Fb3,Fb2,Fb1,Symbol2,Symbol1,PosCond,Pair,Correct,trials.thisRepN,trials.thisTrialN,trials.thisN,trials.thisIndex,Response.keys,Response.corr,Response.rt,Version,Session Number,frameRate,expName,StimCondition,date,Participant,
stim_fb/ques.jpg,stim_fb/negf.jpg,stim_fb/posf.jpg,stim_02/a.jpg,stim_02/b.jpg,2,1,j,0,0,0,10,j,1,1.11631395435,02,02,60.0234848939,PLT_learning_02,A,2014_Jan_27_1754,P01,
stim_fb/ques.jpg,stim_fb/posf.jpg,stim_fb/negf.jpg,stim_02/a.jpg,stim_02/b.jpg,2,1,j,0,1,1,18,j,1,0.783083896047,02,02,60.0234848939,PLT_learning_02,A,2014_Jan_27_1754,P01,
stim_fb/ques.jpg,stim_fb/negf.jpg,stim_fb/posf.jpg,stim_02/c.jpg,stim_02/d.jpg,2,2,j,0,2,2,33,f,0,1.1996617572,02,02,60.0234848939,PLT_learning_02,A,2014_Jan_27_1754,P01,
stim_fb/ques.jpg,stim_fb/posf.jpg,stim_fb/negf.jpg,stim_02/f.jpg,stim_02/e.jpg,1,3,f,0,3,3,48,j,0,1.06632625346,02,02,60.0234848939,PLT_learning_02,A,2014_Jan_27_1754,P01,
stim_fb/ques.jpg,stim_fb/posf.jpg,stim_fb/negf.jpg,stim_02/f.jpg,stim_02/e.jpg,1,3,f,0,4,4,49,j,0,0.916451426488,02,02,60.0234848939,PLT_learning_02,A,2014_Jan_27_1754,P01,
stim_fb/ques.jpg,stim_fb/posf.jpg,stim_fb/negf.jpg,stim_02/e.jpg,stim_02/f.jpg,2,3,j,0,5,5,57,f,0,1.21630930779,02,02,60.0234848939,PLT_learning_02,A,2014_Jan_27_1754,P01,
stim_fb/ques.jpg,stim_fb/negf.jpg,stim_fb/posf.jpg,stim_02/f.jpg,stim_02/e.jpg,1,3,f,0,6,6,41,j,0,0.783077108153,02,02,60.0234848939,PLT_learning_02,A,2014_Jan_27_1754,P01,
stim_fb/ques.jpg,stim_fb/negf.jpg,stim_fb/posf.jpg,stim_02/c.jpg,stim_02/d.jpg,2,2,j,0,7,7,34,f,0,1.08298566257,02,02,60.0234848939,PLT_learning_02,A,2014_Jan_27_1754,P01,
stim_fb/ques.jpg,stim_fb/negf.jpg,stim_fb/posf.jpg,stim_02/a.jpg,stim_02/b.jpg,2,1,j,0,8,8,16,j,1,0.766410114172,02,02,60.0234848939,PLT_learning_02,A,2014_Jan_27_1754,P01,
stim_fb/ques.jpg,stim_fb/negf.jpg,stim_fb/posf.jpg,stim_02/b.jpg,stim_02/a.jpg,1,1,f,0,9,9,1,f,1,1.1163220505,02,02,60.0234848939,PLT_learning_02,A,2014_Jan_27_1754,P01,
stim_fb/ques.jpg,stim_fb/negf.jpg,stim_fb/posf.jpg,stim_02/b.jpg,stim_02/a.jpg,1,1,f,0,10,10,5,f,1,0.766456468536,02,02,60.0234848939,PLT_learning_02,A,2014_Jan_27_1754,P01,
stim_fb/ques.jpg,stim_fb/negf.jpg,stim_fb/posf.jpg,stim_02/c.jpg,stim_02/d.jpg,2,2,j,0,11,11,30,j,1,0.799777858144,02,02,60.0234848939,PLT_learning_02,A,2014_Jan_27_1754,P01,
stim_fb/ques.jpg,stim_fb/negf.jpg,stim_fb/posf.jpg,stim_02/d.jpg,stim_02/c.jpg,1,2,f,0,12,12,24,f,1,0.766440023609,02,02,60.0234848939,PLT_learning_02,A,2014_Jan_27_1754,P01,
stim_fb/ques.jpg,stim_fb/negf.jpg,stim_fb/posf.jpg,stim_02/b.jpg,stim_02/a.jpg,1,1,f,0,13,13,0,f,1,0.849763405676,02,02,60.0234848939,PLT_learning_02,A,2014_Jan_27_1754,P01,
stim_fb/ques.jpg,stim_fb/negf.jpg,stim_fb/posf.jpg,stim_02/d.jpg,stim_02/c.jpg,1,2,f,0,14,14,22,f,1,0.666487779461,02,02,60.0234848939,PLT_learning_02,A,2014_Jan_27_1754,P01,
stim_fb/ques.jpg,stim_fb/negf.jpg,stim_fb/posf.jpg,stim_02/a.jpg,stim_02/b.jpg,2,1,j,0,15,15,14,j,1,0.783126124142,02,02,60.0234848939,PLT_learning_02,A,2014_Jan_27_1754,P01,
stim_fb/ques.jpg,stim_fb/posf.jpg,stim_fb/negf.jpg,stim_02/d.jpg,stim_02/c.jpg,1,2,f,0,16,16,27,f,1,0.599829601922,02,02,60.0234848939,PLT_learning_02,A,2014_Jan_27_1754,P01,
stim_fb/ques.jpg,stim_fb/negf.jpg,stim_fb/posf.jpg,stim_02/d.jpg,stim_02/c.jpg,1,2,f,0,17,17,25,f,1,0.999711245362,02,02,60.0234848939,PLT_learning_02,A,2014_Jan_27_1754,P01,
stim_fb/ques.jpg,stim_fb/negf.jpg,stim_fb/posf.jpg,stim_02/a.jpg,stim_02/b.jpg,2,1,j,0,18,18,15,j,1,0.59989458164,02,02,60.0234848939,PLT_learning_02,A,2014_Jan_27_1754,P01,
stim_fb/ques.jpg,stim_fb/posf.jpg,stim_fb/negf.jpg,stim_02/a.jpg,stim_02/b.jpg,2,1,j,0,19,19,19,j,1,0.849744085593,02,02,60.0234848939,PLT_learning_02,A,2014_Jan_27_1754,P01,
stim_fb/ques.jpg,stim_fb/negf.jpg,stim_fb/posf.jpg,stim_02/b.jpg,stim_02/a.jpg,1,1,f,0,20,20,2,f,1,0.733156823043,02,02,60.0234848939,PLT_learning_02,A,2014_Jan_27_1754,P01,
stim_fb/ques.jpg,stim_fb/negf.jpg,stim_fb/posf.jpg,stim_02/b.jpg,stim_02/a.jpg,1,1,f,0,21,21,3,f,1,0.649826638045,02,02,60.0234848939,PLT_learning_02,A,2014_Jan_27_1754,P01,
stim_fb/ques.jpg,stim_fb/negf.jpg,stim_fb/posf.jpg,stim_02/a.jpg,stim_02/b.jpg,2,1,j,0,22,22,17,j,1,0.6165209445,02,02,60.0234848939,PLT_learning_02,A,2014_Jan_27_1754,P01,
stim_fb/ques.jpg,stim_fb/negf.jpg,stim_fb/posf.jpg,stim_02/e.jpg,stim_02/f.jpg,2,3,j,0,23,23,51,f,0,1.23297493938,02,02,60.0234848939,PLT_learning_02,A,2014_Jan_27_1754,P01,
stim_fb/ques.jpg,stim_fb/negf.jpg,stim_fb/posf.jpg,stim_02/a.jpg,stim_02/b.jpg,2,1,j,0,24,24,11,j,1,0.583213395337,02,02,60.0234848939,PLT_learning_02,A,2014_Jan_27_1754,P01,
stim_fb/ques.jpg,stim_fb/negf.jpg,stim_fb/posf.jpg,stim_02/d.jpg,stim_02/c.jpg,1,2,f,0,25,25,23,f,1,0.716512409258,02,02,60.0234848939,PLT_learning_02,A,2014_Jan_27_1754,P01,
stim_fb/ques.jpg,stim_fb/negf.jpg,stim_fb/posf.jpg,stim_02/d.jpg,stim_02/c.jpg,1,2,f,0,26,26,20,f,1,0.766475439751,02,02,60.0234848939,PLT_learning_02,A,2014_Jan_27_1754,P01,
stim_fb/ques.jpg,stim_fb/posf.jpg,stim_fb/negf.jpg,stim_02/c.jpg,stim_02/d.jpg,2,2,j,0,27,27,38,j,1,0.933050123495,02,02,60.0234848939,PLT_learning_02,A,2014_Jan_27_1754,P01,
stim_fb/ques.jpg,stim_fb/negf.jpg,stim_fb/posf.jpg,stim_02/b.jpg,stim_02/a.jpg,1,1,f,0,28,28,6,f,1,0.79978777683,02,02,60.0234848939,PLT_learning_02,A,2014_Jan_27_1754,P01,
stim_fb/ques.jpg,stim_fb/negf.jpg,stim_fb/posf.jpg,stim_02/c.jpg,stim_02/d.jpg,2,2,j,0,29,29,36,f,0,0.866361744792,02,02,60.0234848939,PLT_learning_02,A,2014_Jan_27_1754,P01,
stim_fb/ques.jpg,stim_fb/negf.jpg,stim_fb/posf.jpg,stim_02/f.jpg,stim_02/e.jpg,1,3,f,0,30,30,40,f,1,1.31625472795,02,02,60.0234848939,PLT_learning_02,A,2014_Jan_27_1754,P01,
stim_fb/ques.jpg,stim_fb/negf.jpg,stim_fb/posf.jpg,stim_02/d.jpg,stim_02/c.jpg,1,2,f,0,31,31,26,f,1,0.749840475483,02,02,60.0234848939,PLT_learning_02,A,2014_Jan_27_1754,P01,
stim_fb/ques.jpg,stim_fb/posf.jpg,stim_fb/negf.jpg,stim_02/c.jpg,stim_02/d.jpg,2,2,j,0,32,32,37,j,1,0.933076724698,02,02,60.0234848939,PLT_learning_02,A,2014_Jan_27_1754,P01,
stim_fb/ques.jpg,stim_fb/posf.jpg,stim_fb/negf.jpg,stim_02/e.jpg,stim_02/f.jpg,2,3,j,0,33,33,56,j,1,1.66620884727,02,02,60.0234848939,PLT_learning_02,A,2014_Jan_27_1754,P01,
stim_fb/ques.jpg,stim_fb/posf.jpg,stim_fb/negf.jpg,stim_02/d.jpg,stim_02/c.jpg,1,2,f,0,34,34,28,f,1,0.76645159641,02,02,60.0234848939,PLT_learning_02,A,2014_Jan_27_1754,P01,
stim_fb/ques.jpg,stim_fb/negf.jpg,stim_fb/posf.jpg,stim_02/c.jpg,stim_02/d.jpg,2,2,j,0,35,35,32,j,1,1.43284915734,02,02,60.0234848939,PLT_learning_02,A,2014_Jan_27_1754,P01,
stim_fb/ques.jpg,stim_fb/posf.jpg,stim_fb/negf.jpg,stim_02/e.jpg,stim_02/f.jpg,2,3,j,0,36,36,59,j,1,1.09967210595,02,02,60.0234848939,PLT_learning_02,A,2014_Jan_27_1754,P01,
stim_fb/ques.jpg,stim_fb/negf.jpg,stim_fb/posf.jpg,stim_02/c.jpg,stim_02/d.jpg,2,2,j,0,37,37,31,j,1,0.966408649527,02,02,60.0234848939,PLT_learning_02,A,2014_Jan_27_1754,P01,
stim_fb/ques.jpg,stim_fb/negf.jpg,stim_fb/posf.jpg,stim_02/d.jpg,stim_02/c.jpg,1,2,f,0,38,38,21,f,1,1.11636370116,02,02,60.0234848939,PLT_learning_02,A,2014_Jan_27_1754,P01,
stim_fb/ques.jpg,stim_fb/negf.jpg,stim_fb/posf.jpg,stim_02/e.jpg,stim_02/f.jpg,2,3,j,0,39,39,50,f,0,0.53316740939,02,02,60.0234848939,PLT_learning_02,A,2014_Jan_27_1754,P01,
stim_fb/ques.jpg,stim_fb/negf.jpg,stim_fb/posf.jpg,stim_02/b.jpg,stim_02/a.jpg,1,1,f,0,40,40,4,f,1,0.916432834216,02,02,60.0234848939,PLT_learning_02,A,2014_Jan_27_1754,P01,
stim_fb/ques.jpg,stim_fb/posf.jpg,stim_fb/negf.jpg,stim_02/f.jpg,stim_02/e.jpg,1,3,f,0,41,41,46,j,0,1.0496918937,02,02,60.0234848939,PLT_learning_02,A,2014_Jan_27_1754,P01,
stim_fb/ques.jpg,stim_fb/negf.jpg,stim_fb/posf.jpg,stim_02/f.jpg,stim_02/e.jpg,1,3,f,0,42,42,42,j,0,0.533203944316,02,02,60.0234848939,PLT_learning_02,A,2014_Jan_27_1754,P01,
stim_fb/ques.jpg,stim_fb/posf.jpg,stim_fb/negf.jpg,stim_02/e.jpg,stim_02/f.jpg,2,3,j,0,43,43,58,f,0,0.666460101578,02,02,60.0234848939,PLT_learning_02,A,2014_Jan_27_1754,P01,
stim_fb/ques.jpg,stim_fb/negf.jpg,stim_fb/posf.jpg,stim_02/f.jpg,stim_02/e.jpg,1,3,f,0,44,44,45,f,1,1.34962445987,02,02,60.0234848939,PLT_learning_02,A,2014_Jan_27_1754,P01,
stim_fb/ques.jpg,stim_fb/negf.jpg,stim_fb/posf.jpg,stim_02/c.jpg,stim_02/d.jpg,2,2,j,0,45,45,35,j,1,0.81648427123,02,02,60.0234848939,PLT_learning_02,A,2014_Jan_27_1754,P01,
stim_fb/ques.jpg,stim_fb/negf.jpg,stim_fb/posf.jpg,stim_02/f.jpg,stim_02/e.jpg,1,3,f,0,46,46,43,f,1,1.28294859832,02,02,60.0234848939,PLT_learning_02,A,2014_Jan_27_1754,P01,
stim_fb/ques.jpg,stim_fb/negf.jpg,stim_fb/posf.jpg,stim_02/f.jpg,stim_02/e.jpg,1,3,f,0,47,47,44,j,0,0.816445029568,02,02,60.0234848939,PLT_learning_02,A,2014_Jan_27_1754,P01,
stim_fb/ques.jpg,stim_fb/negf.jpg,stim_fb/posf.jpg,stim_02/b.jpg,stim_02/a.jpg,1,1,f,0,48,48,7,f,1,0.799803758604,02,02,60.0234848939,PLT_learning_02,A,2014_Jan_27_1754,P01,
stim_fb/ques.jpg,stim_fb/posf.jpg,stim_fb/negf.jpg,stim_02/b.jpg,stim_02/a.jpg,1,1,f,0,49,49,8,f,1,0.866363431991,02,02,60.0234848939,PLT_learning_02,A,2014_Jan_27_1754,P01,
stim_fb/ques.jpg,stim_fb/posf.jpg,stim_fb/negf.jpg,stim_02/d.jpg,stim_02/c.jpg,1,2,f,0,50,50,29,f,1,0.816449958835,02,02,60.0234848939,PLT_learning_02,A,2014_Jan_27_1754,P01,
stim_fb/ques.jpg,stim_fb/negf.jpg,stim_fb/posf.jpg,stim_02/a.jpg,stim_02/b.jpg,2,1,j,0,51,51,12,j,1,0.633185066334,02,02,60.0234848939,PLT_learning_02,A,2014_Jan_27_1754,P01,
stim_fb/ques.jpg,stim_fb/posf.jpg,stim_fb/negf.jpg,stim_02/b.jpg,stim_02/a.jpg,1,1,f,0,52,52,9,f,1,0.633215709598,02,02,60.0234848939,PLT_learning_02,A,2014_Jan_27_1754,P01,
stim_fb/ques.jpg,stim_fb/negf.jpg,stim_fb/posf.jpg,stim_02/e.jpg,stim_02/f.jpg,2,3,j,0,53,53,52,f,0,0.99970714616,02,02,60.0234848939,PLT_learning_02,A,2014_Jan_27_1754,P01,
stim_fb/ques.jpg,stim_fb/negf.jpg,stim_fb/posf.jpg,stim_02/a.jpg,stim_02/b.jpg,2,1,j,0,54,54,13,j,1,1.3329290602,02,02,60.0234848939,PLT_learning_02,A,2014_Jan_27_1754,P01,
stim_fb/ques.jpg,stim_fb/posf.jpg,stim_fb/negf.jpg,stim_02/c.jpg,stim_02/d.jpg,2,2,j,0,55,55,39,j,1,0.766452468581,02,02,60.0234848939,PLT_learning_02,A,2014_Jan_27_1754,P01,
stim_fb/ques.jpg,stim_fb/negf.jpg,stim_fb/posf.jpg,stim_02/e.jpg,stim_02/f.jpg,2,3,j,0,56,56,54,f,0,0.816447390443,02,02,60.0234848939,PLT_learning_02,A,2014_Jan_27_1754,P01,
stim_fb/ques.jpg,stim_fb/negf.jpg,stim_fb/posf.jpg,stim_02/e.jpg,stim_02/f.jpg,2,3,j,0,57,57,53,j,1,0.933056267786,02,02,60.0234848939,PLT_learning_02,A,2014_Jan_27_1754,P01,
stim_fb/ques.jpg,stim_fb/posf.jpg,stim_fb/negf.jpg,stim_02/f.jpg,stim_02/e.jpg,1,3,f,0,58,58,47,j,0,1.08303881686,02,02,60.0234848939,PLT_learning_02,A,2014_Jan_27_1754,P01,
stim_fb/ques.jpg,stim_fb/negf.jpg,stim_fb/posf.jpg,stim_02/e.jpg,stim_02/f.jpg,2,3,j,0,59,59,55,j,1,1.49954402319,02,02,60.0234848939,PLT_learning_02,A,2014_Jan_27_1754,P01,
stim_fb/ques.jpg,stim_fb/negf.jpg,stim_fb/posf.jpg,stim_02/e.jpg,stim_02/f.jpg,2,3,j,1,0,60,51,f,0,0.91635394488,02,02,60.0234848939,PLT_learning_02,A,2014_Jan_27_1754,P01,
stim_fb/ques.jpg,stim_fb/negf.jpg,stim_fb/posf.jpg,stim_02/d.jpg,stim_02/c.jpg,1,2,f,1,1,61,22,f,1,0.66647202024,02,02,60.0234848939,PLT_learning_02,A,2014_Jan_27_1754,P01,
stim_fb/ques.jpg,stim_fb/negf.jpg,stim_fb/posf.jpg,stim_02/e.jpg,stim_02/f.jpg,2,3,j,1,2,62,50,j,1,0.699846946087,02,02,60.0234848939,PLT_learning_02,A,2014_Jan_27_1754,P01,
stim_fb/ques.jpg,stim_fb/negf.jpg,stim_fb/posf.jpg,stim_02/b.jpg,stim_02/a.jpg,1,1,f,1,3,63,6,f,1,0.949740296162,02,02,60.0234848939,PLT_learning_02,A,2014_Jan_27_1754,P01,
stim_fb/ques.jpg,stim_fb/negf.jpg,stim_fb/posf.jpg,stim_02/a.jpg,stim_02/b.jpg,2,1,j,1,4,64,11,j,1,0.899795313587,02,02,60.0234848939,PLT_learning_02,A,2014_Jan_27_1754,P01,
stim_fb/ques.jpg,stim_fb/negf.jpg,stim_fb/posf.jpg,stim_02/e.jpg,stim_02/f.jpg,2,3,j,1,5,65,53,j,1,1.366267803,02,02,60.0234848939,PLT_learning_02,A,2014_Jan_27_1754,P01,
stim_fb/ques.jpg,stim_fb/negf.jpg,stim_fb/posf.jpg,stim_02/d.jpg,stim_02/c.jpg,1,2,f,1,6,66,25,f,1,0.733141668327,02,02,60.0234848939,PLT_learning_02,A,2014_Jan_27_1754,P01,
stim_fb/ques.jpg,stim_fb/negf.jpg,stim_fb/posf.jpg,stim_02/a.jpg,stim_02/b.jpg,2,1,j,1,7,67,10,j,1,1.1829575095,02,02,60.0234848939,PLT_learning_02,A,2014_Jan_27_1754,P01,
stim_fb/ques.jpg,stim_fb/negf.jpg,stim_fb/posf.jpg,stim_02/a.jpg,stim_02/b.jpg,2,1,j,1,8,68,17,j,1,0.549860327891,02,02,60.0234848939,PLT_learning_02,A,2014_Jan_27_1754,P01,
stim_fb/ques.jpg,stim_fb/posf.jpg,stim_fb/negf.jpg,stim_02/f.jpg,stim_02/e.jpg,1,3,f,1,9,69,48,f,1,1.06748470055,02,02,60.0234848939,PLT_learning_02,A,2014_Jan_27_1754,P01,
stim_fb/ques.jpg,stim_fb/posf.jpg,stim_fb/negf.jpg,stim_02/d.jpg,stim_02/c.jpg,1,2,f,1,10,70,29,f,1,0.683163236505,02,02,60.0234848939,PLT_learning_02,A,2014_Jan_27_1754,P01,
stim_fb/ques.jpg,stim_fb/negf.jpg,stim_fb/posf.jpg,stim_02/b.jpg,stim_02/a.jpg,1,1,f,1,11,71,1,f,1,1.03304455063,02,02,60.0234848939,PLT_learning_02,A,2014_Jan_27_1754,P01,
stim_fb/ques.jpg,stim_fb/negf.jpg,stim_fb/posf.jpg,stim_02/e.jpg,stim_02/f.jpg,2,3,j,1,12,72,52,j,1,0.899759034296,02,02,60.0234848939,PLT_learning_02,A,2014_Jan_27_1754,P01,
stim_fb/ques.jpg,stim_fb/posf.jpg,stim_fb/negf.jpg,stim_02/c.jpg,stim_02/d.jpg,2,2,j,1,13,73,37,j,1,0.849809552524,02,02,60.0234848939,PLT_learning_02,A,2014_Jan_27_1754,P01,
stim_fb/ques.jpg,stim_fb/posf.jpg,stim_fb/negf.jpg,stim_02/e.jpg,stim_02/f.jpg,2,3,j,1,14,74,58,j,1,1.53287191799,02,02,60.0234848939,PLT_learning_02,A,2014_Jan_27_1754,P01,
stim_fb/ques.jpg,stim_fb/posf.jpg,stim_fb/negf.jpg,stim_02/c.jpg,stim_02/d.jpg,2,2,j,1,15,75,38,j,1,1.03304093563,02,02,60.0234848939,PLT_learning_02,A,2014_Jan_27_1754,P01,
stim_fb/ques.jpg,stim_fb/posf.jpg,stim_fb/negf.jpg,stim_02/e.jpg,stim_02/f.jpg,2,3,j,1,16,76,57,f,0,1.41622084262,02,02,60.0234848939,PLT_learning_02,A,2014_Jan_27_1754,P01,
stim_fb/ques.jpg,stim_fb/negf.jpg,stim_fb/posf.jpg,stim_02/f.jpg,stim_02/e.jpg,1,3,f,1,17,77,42,f,1,1.36620569542,02,02,60.0234848939,PLT_learning_02,A,2014_Jan_27_1754,P01,
stim_fb/ques.jpg,stim_fb/negf.jpg,stim_fb/posf.jpg,stim_02/b.jpg,stim_02/a.jpg,1,1,f,1,18,78,5,f,1,0.916396969959,02,02,60.0234848939,PLT_learning_02,A,2014_Jan_27_1754,P01,
stim_fb/ques.jpg,stim_fb/posf.jpg,stim_fb/negf.jpg,stim_02/c.jpg,stim_02/d.jpg,2,2,j,1,19,79,39,f,0,1.08302419446,02,02,60.0234848939,PLT_learning_02,A,2014_Jan_27_1754,P01,
stim_fb/ques.jpg,stim_fb/negf.jpg,stim_fb/posf.jpg,stim_02/c.jpg,stim_02/d.jpg,2,2,j,1,20,80,33,f,0,0.666504104089,02,02,60.0234848939,PLT_learning_02,A,2014_Jan_27_1754,P01,
stim_fb/ques.jpg,stim_fb/posf.jpg,stim_fb/negf.jpg,stim_02/b.jpg,stim_02/a.jpg,1,1,f,1,21,81,8,f,1,0.833077121687,02,02,60.0234848939,PLT_learning_02,A,2014_Jan_27_1754,P01,
stim_fb/ques.jpg,stim_fb/negf.jpg,stim_fb/posf.jpg,stim_02/a.jpg,stim_02/b.jpg,2,1,j,1,22,82,12,j,1,0.633117894159,02,02,60.0234848939,PLT_learning_02,A,2014_Jan_27_1754,P01,
stim_fb/ques.jpg,stim_fb/negf.jpg,stim_fb/posf.jpg,stim_02/f.jpg,stim_02/e.jpg,1,3,f,1,23,83,40,f,1,1.14965350015,02,02,60.0234848939,PLT_learning_02,A,2014_Jan_27_1754,P01,
stim_fb/ques.jpg,stim_fb/negf.jpg,stim_fb/posf.jpg,stim_02/c.jpg,stim_02/d.jpg,2,2,j,1,24,84,36,f,0,0.933127127138,02,02,60.0234848939,PLT_learning_02,A,2014_Jan_27_1754,P01,
stim_fb/ques.jpg,stim_fb/posf.jpg,stim_fb/negf.jpg,stim_02/a.jpg,stim_02/b.jpg,2,1,j,1,25,85,19,j,1,0.64979533915,02,02,60.0234848939,PLT_learning_02,A,2014_Jan_27_1754,P01,
stim_fb/ques.jpg,stim_fb/negf.jpg,stim_fb/posf.jpg,stim_02/f.jpg,stim_02/e.jpg,1,3,f,1,26,86,43,f,1,1.63278593099,02,02,60.0234848939,PLT_learning_02,A,2014_Jan_27_1754,P01,
stim_fb/ques.jpg,stim_fb/negf.jpg,stim_fb/posf.jpg,stim_02/f.jpg,stim_02/e.jpg,1,3,f,1,27,87,41,None,0,,02,02,60.0234848939,PLT_learning_02,A,2014_Jan_27_1754,P01,
stim_fb/ques.jpg,stim_fb/negf.jpg,stim_fb/posf.jpg,stim_02/c.jpg,stim_02/d.jpg,2,2,j,1,28,88,35,f,0,1.1163433435,02,02,60.0234848939,PLT_learning_02,A,2014_Jan_27_1754,P01,
stim_fb/ques.jpg,stim_fb/negf.jpg,stim_fb/posf.jpg,stim_02/b.jpg,stim_02/a.jpg,1,1,f,1,29,89,2,f,1,0.883089838836,02,02,60.0234848939,PLT_learning_02,A,2014_Jan_27_1754,P01,
stim_fb/ques.jpg,stim_fb/negf.jpg,stim_fb/posf.jpg,stim_02/c.jpg,stim_02/d.jpg,2,2,j,1,30,90,31,f,0,0.666318800916,02,02,60.0234848939,PLT_learning_02,A,2014_Jan_27_1754,P01,
stim_fb/ques.jpg,stim_fb/posf.jpg,stim_fb/negf.jpg,stim_02/e.jpg,stim_02/f.jpg,2,3,j,1,31,91,59,j,1,0.883100689842,02,02,60.0234848939,PLT_learning_02,A,2014_Jan_27_1754,P01,
stim_fb/ques.jpg,stim_fb/negf.jpg,stim_fb/posf.jpg,stim_02/f.jpg,stim_02/e.jpg,1,3,f,1,32,92,45,f,1,1.2829438465,02,02,60.0234848939,PLT_learning_02,A,2014_Jan_27_1754,P01,
stim_fb/ques.jpg,stim_fb/posf.jpg,stim_fb/negf.jpg,stim_02/f.jpg,stim_02/e.jpg,1,3,f,1,33,93,49,j,0,1.63284411379,02,02,60.0234848939,PLT_learning_02,A,2014_Jan_27_1754,P01,
stim_fb/ques.jpg,stim_fb/negf.jpg,stim_fb/posf.jpg,stim_02/e.jpg,stim_02/f.jpg,2,3,j,1,34,94,54,f,0,1.28295368699,02,02,60.0234848939,PLT_learning_02,A,2014_Jan_27_1754,P01,
stim_fb/ques.jpg,stim_fb/posf.jpg,stim_fb/negf.jpg,stim_02/f.jpg,stim_02/e.jpg,1,3,f,1,35,95,47,j,0,0.583177004771,02,02,60.0234848939,PLT_learning_02,A,2014_Jan_27_1754,P01,
stim_fb/ques.jpg,stim_fb/negf.jpg,stim_fb/posf.jpg,stim_02/a.jpg,stim_02/b.jpg,2,1,j,1,36,96,14,j,1,0.799771067244,02,02,60.0234848939,PLT_learning_02,A,2014_Jan_27_1754,P01,
stim_fb/ques.jpg,stim_fb/negf.jpg,stim_fb/posf.jpg,stim_02/e.jpg,stim_02/f.jpg,2,3,j,1,37,97,55,j,1,0.999713861874,02,02,60.0234848939,PLT_learning_02,A,2014_Jan_27_1754,P01,
stim_fb/ques.jpg,stim_fb/posf.jpg,stim_fb/negf.jpg,stim_02/b.jpg,stim_02/a.jpg,1,1,f,1,38,98,9,f,1,0.799757298978,02,02,60.0234848939,PLT_learning_02,A,2014_Jan_27_1754,P01,
stim_fb/ques.jpg,stim_fb/negf.jpg,stim_fb/posf.jpg,stim_02/a.jpg,stim_02/b.jpg,2,1,j,1,39,99,15,j,1,0.649827416984,02,02,60.0234848939,PLT_learning_02,A,2014_Jan_27_1754,P01,
stim_fb/ques.jpg,stim_fb/negf.jpg,stim_fb/posf.jpg,stim_02/d.jpg,stim_02/c.jpg,1,2,f,1,40,100,21,f,1,1.29957459126,02,02,60.0234848939,PLT_learning_02,A,2014_Jan_27_1754,P01,
stim_fb/ques.jpg,stim_fb/posf.jpg,stim_fb/negf.jpg,stim_02/f.jpg,stim_02/e.jpg,1,3,f,1,41,101,46,f,1,0.98304881975,02,02,60.0234848939,PLT_learning_02,A,2014_Jan_27_1754,P01,
stim_fb/ques.jpg,stim_fb/posf.jpg,stim_fb/negf.jpg,stim_02/a.jpg,stim_02/b.jpg,2,1,j,1,42,102,18,j,1,0.566570758976,02,02,60.0234848939,PLT_learning_02,A,2014_Jan_27_1754,P01,
stim_fb/ques.jpg,stim_fb/negf.jpg,stim_fb/posf.jpg,stim_02/b.jpg,stim_02/a.jpg,1,1,f,1,43,103,7,f,1,0.566490666647,02,02,60.0234848939,PLT_learning_02,A,2014_Jan_27_1754,P01,
stim_fb/ques.jpg,stim_fb/negf.jpg,stim_fb/posf.jpg,stim_02/c.jpg,stim_02/d.jpg,2,2,j,1,44,104,32,f,0,0.716494216982,02,02,60.0234848939,PLT_learning_02,A,2014_Jan_27_1754,P01,
stim_fb/ques.jpg,stim_fb/negf.jpg,stim_fb/posf.jpg,stim_02/d.jpg,stim_02/c.jpg,1,2,f,1,45,105,24,j,0,0.783156553874,02,02,60.0234848939,PLT_learning_02,A,2014_Jan_27_1754,P01,
stim_fb/ques.jpg,stim_fb/posf.jpg,stim_fb/negf.jpg,stim_02/d.jpg,stim_02/c.jpg,1,2,f,1,46,106,27,f,1,0.633164119202,02,02,60.0234848939,PLT_learning_02,A,2014_Jan_27_1754,P01,
stim_fb/ques.jpg,stim_fb/negf.jpg,stim_fb/posf.jpg,stim_02/d.jpg,stim_02/c.jpg,1,2,f,1,47,107,20,f,1,0.566531387992,02,02,60.0234848939,PLT_learning_02,A,2014_Jan_27_1754,P01,
stim_fb/ques.jpg,stim_fb/negf.jpg,stim_fb/posf.jpg,stim_02/f.jpg,stim_02/e.jpg,1,3,f,1,48,108,44,f,1,1.23297646418,02,02,60.0234848939,PLT_learning_02,A,2014_Jan_27_1754,P01,
stim_fb/ques.jpg,stim_fb/negf.jpg,stim_fb/posf.jpg,stim_02/d.jpg,stim_02/c.jpg,1,2,f,1,49,109,26,j,0,0.833111127318,02,02,60.0234848939,PLT_learning_02,A,2014_Jan_27_1754,P01,
stim_fb/ques.jpg,stim_fb/negf.jpg,stim_fb/posf.jpg,stim_02/a.jpg,stim_02/b.jpg,2,1,j,1,50,110,16,j,1,0.766469572148,02,02,60.0234848939,PLT_learning_02,A,2014_Jan_27_1754,P01,
stim_fb/ques.jpg,stim_fb/posf.jpg,stim_fb/negf.jpg,stim_02/d.jpg,stim_02/c.jpg,1,2,f,1,51,111,28,f,1,0.68315838844,02,02,60.0234848939,PLT_learning_02,A,2014_Jan_27_1754,P01,
stim_fb/ques.jpg,stim_fb/negf.jpg,stim_fb/posf.jpg,stim_02/b.jpg,stim_02/a.jpg,1,1,f,1,52,112,3,f,1,0.666497830476,02,02,60.0234848939,PLT_learning_02,A,2014_Jan_27_1754,P01,
stim_fb/ques.jpg,stim_fb/negf.jpg,stim_fb/posf.jpg,stim_02/b.jpg,stim_02/a.jpg,1,1,f,1,53,113,0,f,1,0.749774789006,02,02,60.0234848939,PLT_learning_02,A,2014_Jan_27_1754,P01,
stim_fb/ques.jpg,stim_fb/negf.jpg,stim_fb/posf.jpg,stim_02/c.jpg,stim_02/d.jpg,2,2,j,1,54,114,34,j,1,0.849786085119,02,02,60.0234848939,PLT_learning_02,A,2014_Jan_27_1754,P01,
stim_fb/ques.jpg,stim_fb/negf.jpg,stim_fb/posf.jpg,stim_02/a.jpg,stim_02/b.jpg,2,1,j,1,55,115,13,j,1,0.599917032515,02,02,60.0234848939,PLT_learning_02,A,2014_Jan_27_1754,P01,
stim_fb/ques.jpg,stim_fb/negf.jpg,stim_fb/posf.jpg,stim_02/b.jpg,stim_02/a.jpg,1,1,f,1,56,116,4,f,1,0.649769568013,02,02,60.0234848939,PLT_learning_02,A,2014_Jan_27_1754,P01,
stim_fb/ques.jpg,stim_fb/negf.jpg,stim_fb/posf.jpg,stim_02/c.jpg,stim_02/d.jpg,2,2,j,1,57,117,30,j,1,0.916388979072,02,02,60.0234848939,PLT_learning_02,A,2014_Jan_27_1754,P01,
stim_fb/ques.jpg,stim_fb/negf.jpg,stim_fb/posf.jpg,stim_02/d.jpg,stim_02/c.jpg,1,2,f,1,58,118,23,f,1,1.13300410898,02,02,60.0234848939,PLT_learning_02,A,2014_Jan_27_1754,P01,
stim_fb/ques.jpg,stim_fb/posf.jpg,stim_fb/negf.jpg,stim_02/e.jpg,stim_02/f.jpg,2,3,j,1,59,119,56,j,1,0.899755584711,02,02,60.0234848939,PLT_learning_02,A,2014_Jan_27_1754,P01,
stim_fb/ques.jpg,stim_fb/negf.jpg,stim_fb/posf.jpg,stim_02/d.jpg,stim_02/c.jpg,1,2,f,2,0,120,21,f,1,1.03302246666,02,02,60.0234848939,PLT_learning_02,A,2014_Jan_27_1754,P01,
stim_fb/ques.jpg,stim_fb/posf.jpg,stim_fb/negf.jpg,stim_02/f.jpg,stim_02/e.jpg,1,3,f,2,1,121,46,f,1,0.966417238903,02,02,60.0234848939,PLT_learning_02,A,2014_Jan_27_1754,P01,
stim_fb/ques.jpg,stim_fb/negf.jpg,stim_fb/posf.jpg,stim_02/d.jpg,stim_02/c.jpg,1,2,f,2,2,122,23,f,1,0.99971115213,02,02,60.0234848939,PLT_learning_02,A,2014_Jan_27_1754,P01,
stim_fb/ques.jpg,stim_fb/negf.jpg,stim_fb/posf.jpg,stim_02/c.jpg,stim_02/d.jpg,2,2,j,2,3,123,30,f,0,0.966375741627,02,02,60.0234848939,PLT_learning_02,A,2014_Jan_27_1754,P01,
stim_fb/ques.jpg,stim_fb/negf.jpg,stim_fb/posf.jpg,stim_02/e.jpg,stim_02/f.jpg,2,3,j,2,4,124,51,f,0,0.933091055364,02,02,60.0234848939,PLT_learning_02,A,2014_Jan_27_1754,P01,
stim_fb/ques.jpg,stim_fb/negf.jpg,stim_fb/posf.jpg,stim_02/a.jpg,stim_02/b.jpg,2,1,j,2,5,125,10,j,1,0.716479549479,02,02,60.0234848939,PLT_learning_02,A,2014_Jan_27_1754,P01,
stim_fb/ques.jpg,stim_fb/negf.jpg,stim_fb/posf.jpg,stim_02/f.jpg,stim_02/e.jpg,1,3,f,2,6,126,43,j,0,1.28295267647,02,02,60.0234848939,PLT_learning_02,A,2014_Jan_27_1754,P01,
stim_fb/ques.jpg,stim_fb/negf.jpg,stim_fb/posf.jpg,stim_02/e.jpg,stim_02/f.jpg,2,3,j,2,7,127,53,f,0,1.51621671936,02,02,60.0234848939,PLT_learning_02,A,2014_Jan_27_1754,P01,
stim_fb/ques.jpg,stim_fb/posf.jpg,stim_fb/negf.jpg,stim_02/e.jpg,stim_02/f.jpg,2,3,j,2,8,128,56,j,1,0.816420362176,02,02,60.0234848939,PLT_learning_02,A,2014_Jan_27_1754,P01,
stim_fb/ques.jpg,stim_fb/negf.jpg,stim_fb/posf.jpg,stim_02/c.jpg,stim_02/d.jpg,2,2,j,2,9,129,34,j,1,1.06637367248,02,02,60.0234848939,PLT_learning_02,A,2014_Jan_27_1754,P01,
stim_fb/ques.jpg,stim_fb/negf.jpg,stim_fb/posf.jpg,stim_02/c.jpg,stim_02/d.jpg,2,2,j,2,10,130,31,j,1,0.666372472491,02,02,60.0234848939,PLT_learning_02,A,2014_Jan_27_1754,P01,
stim_fb/ques.jpg,stim_fb/negf.jpg,stim_fb/posf.jpg,stim_02/b.jpg,stim_02/a.jpg,1,1,f,2,11,131,2,f,1,0.849785802416,02,02,60.0234848939,PLT_learning_02,A,2014_Jan_27_1754,P01,
stim_fb/ques.jpg,stim_fb/negf.jpg,stim_fb/posf.jpg,stim_02/a.jpg,stim_02/b.jpg,2,1,j,2,12,132,13,j,1,0.74978658737,02,02,60.0234848939,PLT_learning_02,A,2014_Jan_27_1754,P01,
stim_fb/ques.jpg,stim_fb/negf.jpg,stim_fb/posf.jpg,stim_02/f.jpg,stim_02/e.jpg,1,3,f,2,13,133,44,j,0,1.04964977989,02,02,60.0234848939,PLT_learning_02,A,2014_Jan_27_1754,P01,
stim_fb/ques.jpg,stim_fb/posf.jpg,stim_fb/negf.jpg,stim_02/b.jpg,stim_02/a.jpg,1,1,f,2,14,134,9,f,1,0.61650816269,02,02,60.0234848939,PLT_learning_02,A,2014_Jan_27_1754,P01,
stim_fb/ques.jpg,stim_fb/posf.jpg,stim_fb/negf.jpg,stim_02/c.jpg,stim_02/d.jpg,2,2,j,2,15,135,39,j,1,0.833058574528,02,02,60.0234848939,PLT_learning_02,A,2014_Jan_27_1754,P01,
stim_fb/ques.jpg,stim_fb/posf.jpg,stim_fb/negf.jpg,stim_02/e.jpg,stim_02/f.jpg,2,3,j,2,16,136,58,f,0,1.33295717717,02,02,60.0234848939,PLT_learning_02,A,2014_Jan_27_1754,P01,
stim_fb/ques.jpg,stim_fb/negf.jpg,stim_fb/posf.jpg,stim_02/e.jpg,stim_02/f.jpg,2,3,j,2,17,137,54,f,0,0.699801400736,02,02,60.0234848939,PLT_learning_02,A,2014_Jan_27_1754,P01,
stim_fb/ques.jpg,stim_fb/negf.jpg,stim_fb/posf.jpg,stim_02/d.jpg,stim_02/c.jpg,1,2,f,2,18,138,26,f,1,0.866447960361,02,02,60.0234848939,PLT_learning_02,A,2014_Jan_27_1754,P01,
stim_fb/ques.jpg,stim_fb/posf.jpg,stim_fb/negf.jpg,stim_02/b.jpg,stim_02/a.jpg,1,1,f,2,19,139,8,f,1,0.633184645286,02,02,60.0234848939,PLT_learning_02,A,2014_Jan_27_1754,P01,
stim_fb/ques.jpg,stim_fb/negf.jpg,stim_fb/posf.jpg,stim_02/b.jpg,stim_02/a.jpg,1,1,f,2,20,140,0,f,1,0.516478803623,02,02,60.0234848939,PLT_learning_02,A,2014_Jan_27_1754,P01,
stim_fb/ques.jpg,stim_fb/posf.jpg,stim_fb/negf.jpg,stim_02/c.jpg,stim_02/d.jpg,2,2,j,2,21,141,37,j,1,0.866418995274,02,02,60.0234848939,PLT_learning_02,A,2014_Jan_27_1754,P01,
stim_fb/ques.jpg,stim_fb/negf.jpg,stim_fb/posf.jpg,stim_02/f.jpg,stim_02/e.jpg,1,3,f,2,22,142,41,j,0,1.64950245524,02,02,60.0234848939,PLT_learning_02,A,2014_Jan_27_1754,P01,
stim_fb/ques.jpg,stim_fb/negf.jpg,stim_fb/posf.jpg,stim_02/d.jpg,stim_02/c.jpg,1,2,f,2,23,143,24,f,1,0.749806217223,02,02,60.0234848939,PLT_learning_02,A,2014_Jan_27_1754,P01,
stim_fb/ques.jpg,stim_fb/negf.jpg,stim_fb/posf.jpg,stim_02/d.jpg,stim_02/c.jpg,1,2,f,2,24,144,25,f,1,0.766481313368,02,02,60.0234848939,PLT_learning_02,A,2014_Jan_27_1754,P01,
stim_fb/ques.jpg,stim_fb/posf.jpg,stim_fb/negf.jpg,stim_02/f.jpg,stim_02/e.jpg,1,3,f,2,25,145,47,j,0,1.04970493415,02,02,60.0234848939,PLT_learning_02,A,2014_Jan_27_1754,P01,
stim_fb/ques.jpg,stim_fb/negf.jpg,stim_fb/posf.jpg,stim_02/a.jpg,stim_02/b.jpg,2,1,j,2,26,146,16,j,1,1.06633822626,02,02,60.0234848939,PLT_learning_02,A,2014_Jan_27_1754,P01,
stim_fb/ques.jpg,stim_fb/negf.jpg,stim_fb/posf.jpg,stim_02/e.jpg,stim_02/f.jpg,2,3,j,2,27,147,52,f,0,0.916400461649,02,02,60.0234848939,PLT_learning_02,A,2014_Jan_27_1754,P01,
stim_fb/ques.jpg,stim_fb/posf.jpg,stim_fb/negf.jpg,stim_02/c.jpg,stim_02/d.jpg,2,2,j,2,28,148,38,j,1,1.08300079924,02,02,60.0234848939,PLT_learning_02,A,2014_Jan_27_1754,P01,
stim_fb/ques.jpg,stim_fb/negf.jpg,stim_fb/posf.jpg,stim_02/c.jpg,stim_02/d.jpg,2,2,j,2,29,149,32,j,1,0.833084625362,02,02,60.0234848939,PLT_learning_02,A,2014_Jan_27_1754,P01,
stim_fb/ques.jpg,stim_fb/negf.jpg,stim_fb/posf.jpg,stim_02/e.jpg,stim_02/f.jpg,2,3,j,2,30,150,55,f,0,1.16632312267,02,02,60.0234848939,PLT_learning_02,A,2014_Jan_27_1754,P01,
stim_fb/ques.jpg,stim_fb/negf.jpg,stim_fb/posf.jpg,stim_02/c.jpg,stim_02/d.jpg,2,2,j,2,31,151,33,j,1,0.716479910377,02,02,60.0234848939,PLT_learning_02,A,2014_Jan_27_1754,P01,
stim_fb/ques.jpg,stim_fb/posf.jpg,stim_fb/negf.jpg,stim_02/a.jpg,stim_02/b.jpg,2,1,j,2,32,152,19,j,1,0.849722958012,02,02,60.0234848939,PLT_learning_02,A,2014_Jan_27_1754,P01,
stim_fb/ques.jpg,stim_fb/negf.jpg,stim_fb/posf.jpg,stim_02/b.jpg,stim_02/a.jpg,1,1,f,2,33,153,4,f,1,1.03305251445,02,02,60.0234848939,PLT_learning_02,A,2014_Jan_27_1754,P01,
stim_fb/ques.jpg,stim_fb/negf.jpg,stim_fb/posf.jpg,stim_02/f.jpg,stim_02/e.jpg,1,3,f,2,34,154,40,j,0,0.98304589046,02,02,60.0234848939,PLT_learning_02,A,2014_Jan_27_1754,P01,
stim_fb/ques.jpg,stim_fb/negf.jpg,stim_fb/posf.jpg,stim_02/b.jpg,stim_02/a.jpg,1,1,f,2,35,155,3,f,1,0.633149256211,02,02,60.0234848939,PLT_learning_02,A,2014_Jan_27_1754,P01,
stim_fb/ques.jpg,stim_fb/negf.jpg,stim_fb/posf.jpg,stim_02/a.jpg,stim_02/b.jpg,2,1,j,2,36,156,11,j,1,0.566395136897,02,02,60.0234848939,PLT_learning_02,A,2014_Jan_27_1754,P01,
stim_fb/ques.jpg,stim_fb/posf.jpg,stim_fb/negf.jpg,stim_02/f.jpg,stim_02/e.jpg,1,3,f,2,37,157,48,f,1,1.23295956211,02,02,60.0234848939,PLT_learning_02,A,2014_Jan_27_1754,P01,
stim_fb/ques.jpg,stim_fb/negf.jpg,stim_fb/posf.jpg,stim_02/d.jpg,stim_02/c.jpg,1,2,f,2,38,158,20,f,1,1.0164363229,02,02,60.0234848939,PLT_learning_02,A,2014_Jan_27_1754,P01,
stim_fb/ques.jpg,stim_fb/negf.jpg,stim_fb/posf.jpg,stim_02/e.jpg,stim_02/f.jpg,2,3,j,2,39,159,50,j,1,0.566520585106,02,02,60.0234848939,PLT_learning_02,A,2014_Jan_27_1754,P01,
stim_fb/ques.jpg,stim_fb/posf.jpg,stim_fb/negf.jpg,stim_02/a.jpg,stim_02/b.jpg,2,1,j,2,40,160,18,j,1,0.749842616813,02,02,60.0234848939,PLT_learning_02,A,2014_Jan_27_1754,P01,
stim_fb/ques.jpg,stim_fb/posf.jpg,stim_fb/negf.jpg,stim_02/e.jpg,stim_02/f.jpg,2,3,j,2,41,161,57,j,1,1.46619592711,02,02,60.0234848939,PLT_learning_02,A,2014_Jan_27_1754,P01,
stim_fb/ques.jpg,stim_fb/negf.jpg,stim_fb/posf.jpg,stim_02/f.jpg,stim_02/e.jpg,1,3,f,2,42,162,42,f,1,1.29961717424,02,02,60.0234848939,PLT_learning_02,A,2014_Jan_27_1754,P01,
stim_fb/ques.jpg,stim_fb/negf.jpg,stim_fb/posf.jpg,stim_02/d.jpg,stim_02/c.jpg,1,2,f,2,43,163,22,f,1,0.716456794848,02,02,60.0234848939,PLT_learning_02,A,2014_Jan_27_1754,P01,
stim_fb/ques.jpg,stim_fb/negf.jpg,stim_fb/posf.jpg,stim_02/c.jpg,stim_02/d.jpg,2,2,j,2,44,164,35,j,1,1.61618773924,02,02,60.0234848939,PLT_learning_02,A,2014_Jan_27_1754,P01,
stim_fb/ques.jpg,stim_fb/posf.jpg,stim_fb/negf.jpg,stim_02/d.jpg,stim_02/c.jpg,1,2,f,2,45,165,29,j,0,1.49953447442,02,02,60.0234848939,PLT_learning_02,A,2014_Jan_27_1754,P01,
stim_fb/ques.jpg,stim_fb/posf.jpg,stim_fb/negf.jpg,stim_02/d.jpg,stim_02/c.jpg,1,2,f,2,46,166,28,f,1,1.61616593798,02,02,60.0234848939,PLT_learning_02,A,2014_Jan_27_1754,P01,
stim_fb/ques.jpg,stim_fb/negf.jpg,stim_fb/posf.jpg,stim_02/c.jpg,stim_02/d.jpg,2,2,j,2,47,167,36,j,1,0.76641636974,02,02,60.0234848939,PLT_learning_02,A,2014_Jan_27_1754,P01,
stim_fb/ques.jpg,stim_fb/negf.jpg,stim_fb/posf.jpg,stim_02/b.jpg,stim_02/a.jpg,1,1,f,2,48,168,1,f,1,0.816460307591,02,02,60.0234848939,PLT_learning_02,A,2014_Jan_27_1754,P01,
stim_fb/ques.jpg,stim_fb/posf.jpg,stim_fb/negf.jpg,stim_02/f.jpg,stim_02/e.jpg,1,3,f,2,49,169,49,f,1,1.38293182257,02,02,60.0234848939,PLT_learning_02,A,2014_Jan_27_1754,P01,
stim_fb/ques.jpg,stim_fb/negf.jpg,stim_fb/posf.jpg,stim_02/f.jpg,stim_02/e.jpg,1,3,f,2,50,170,45,j,0,0.916415210354,02,02,60.0234848939,PLT_learning_02,A,2014_Jan_27_1754,P01,
stim_fb/ques.jpg,stim_fb/negf.jpg,stim_fb/posf.jpg,stim_02/b.jpg,stim_02/a.jpg,1,1,f,2,51,171,5,f,1,0.683150018609,02,02,60.0234848939,PLT_learning_02,A,2014_Jan_27_1754,P01,
stim_fb/ques.jpg,stim_fb/negf.jpg,stim_fb/posf.jpg,stim_02/a.jpg,stim_02/b.jpg,2,1,j,2,52,172,12,j,1,1.43291682575,02,02,60.0234848939,PLT_learning_02,A,2014_Jan_27_1754,P01,
stim_fb/ques.jpg,stim_fb/negf.jpg,stim_fb/posf.jpg,stim_02/b.jpg,stim_02/a.jpg,1,1,f,2,53,173,7,f,1,1.43292818502,02,02,60.0234848939,PLT_learning_02,A,2014_Jan_27_1754,P01,
stim_fb/ques.jpg,stim_fb/posf.jpg,stim_fb/negf.jpg,stim_02/e.jpg,stim_02/f.jpg,2,3,j,2,54,174,59,f,0,1.36623062747,02,02,60.0234848939,PLT_learning_02,A,2014_Jan_27_1754,P01,
stim_fb/ques.jpg,stim_fb/negf.jpg,stim_fb/posf.jpg,stim_02/a.jpg,stim_02/b.jpg,2,1,j,2,55,175,17,j,1,0.899765783093,02,02,60.0234848939,PLT_learning_02,A,2014_Jan_27_1754,P01,
stim_fb/ques.jpg,stim_fb/negf.jpg,stim_fb/posf.jpg,stim_02/a.jpg,stim_02/b.jpg,2,1,j,2,56,176,14,j,1,0.766498498137,02,02,60.0234848939,PLT_learning_02,A,2014_Jan_27_1754,P01,
stim_fb/ques.jpg,stim_fb/negf.jpg,stim_fb/posf.jpg,stim_02/a.jpg,stim_02/b.jpg,2,1,j,2,57,177,15,j,1,1.04971520472,02,02,60.0234848939,PLT_learning_02,A,2014_Jan_27_1754,P01,
stim_fb/ques.jpg,stim_fb/posf.jpg,stim_fb/negf.jpg,stim_02/d.jpg,stim_02/c.jpg,1,2,f,2,58,178,27,f,1,1.2329186543,02,02,60.0234848939,PLT_learning_02,A,2014_Jan_27_1754,P01,
stim_fb/ques.jpg,stim_fb/negf.jpg,stim_fb/posf.jpg,stim_02/b.jpg,stim_02/a.jpg,1,1,f,2,59,179,6,f,1,0.649816674248,02,02,60.0234848939,PLT_learning_02,A,2014_Jan_27_1754,P01,
stim_fb/ques.jpg,stim_fb/posf.jpg,stim_fb/negf.jpg,stim_02/e.jpg,stim_02/f.jpg,2,3,j,3,0,180,57,j,1,0.916390371537,02,02,60.0234848939,PLT_learning_02,A,2014_Jan_27_1754,P01,
stim_fb/ques.jpg,stim_fb/posf.jpg,stim_fb/negf.jpg,stim_02/c.jpg,stim_02/d.jpg,2,2,j,3,1,181,37,j,1,0.866431545509,02,02,60.0234848939,PLT_learning_02,A,2014_Jan_27_1754,P01,
stim_fb/ques.jpg,stim_fb/negf.jpg,stim_fb/posf.jpg,stim_02/c.jpg,stim_02/d.jpg,2,2,j,3,2,182,35,f,0,0.683141621711,02,02,60.0234848939,PLT_learning_02,A,2014_Jan_27_1754,P01,
stim_fb/ques.jpg,stim_fb/posf.jpg,stim_fb/negf.jpg,stim_02/b.jpg,stim_02/a.jpg,1,1,f,3,3,183,9,f,1,0.766449006966,02,02,60.0234848939,PLT_learning_02,A,2014_Jan_27_1754,P01,
stim_fb/ques.jpg,stim_fb/negf.jpg,stim_fb/posf.jpg,stim_02/d.jpg,stim_02/c.jpg,1,2,f,3,4,184,20,f,1,0.833094110969,02,02,60.0234848939,PLT_learning_02,A,2014_Jan_27_1754,P01,
stim_fb/ques.jpg,stim_fb/posf.jpg,stim_fb/negf.jpg,stim_02/d.jpg,stim_02/c.jpg,1,2,f,3,5,185,29,f,1,1.28282359823,02,02,60.0234848939,PLT_learning_02,A,2014_Jan_27_1754,P01,
stim_fb/ques.jpg,stim_fb/posf.jpg,stim_fb/negf.jpg,stim_02/f.jpg,stim_02/e.jpg,1,3,f,3,6,186,48,j,0,0.949738416484,02,02,60.0234848939,PLT_learning_02,A,2014_Jan_27_1754,P01,
stim_fb/ques.jpg,stim_fb/negf.jpg,stim_fb/posf.jpg,stim_02/e.jpg,stim_02/f.jpg,2,3,j,3,7,187,53,f,0,1.46623193272,02,02,60.0234848939,PLT_learning_02,A,2014_Jan_27_1754,P01,
stim_fb/ques.jpg,stim_fb/negf.jpg,stim_fb/posf.jpg,stim_02/b.jpg,stim_02/a.jpg,1,1,f,3,8,188,4,f,1,0.633213450976,02,02,60.0234848939,PLT_learning_02,A,2014_Jan_27_1754,P01,
stim_fb/ques.jpg,stim_fb/negf.jpg,stim_fb/posf.jpg,stim_02/b.jpg,stim_02/a.jpg,1,1,f,3,9,189,2,f,1,0.833101743965,02,02,60.0234848939,PLT_learning_02,A,2014_Jan_27_1754,P01,
stim_fb/ques.jpg,stim_fb/posf.jpg,stim_fb/negf.jpg,stim_02/e.jpg,stim_02/f.jpg,2,3,j,3,10,190,58,j,1,1.08300952997,02,02,60.0234848939,PLT_learning_02,A,2014_Jan_27_1754,P01,
stim_fb/ques.jpg,stim_fb/negf.jpg,stim_fb/posf.jpg,stim_02/b.jpg,stim_02/a.jpg,1,1,f,3,11,191,6,f,1,0.566534753368,02,02,60.0234848939,PLT_learning_02,A,2014_Jan_27_1754,P01,
stim_fb/ques.jpg,stim_fb/negf.jpg,stim_fb/posf.jpg,stim_02/b.jpg,stim_02/a.jpg,1,1,f,3,12,192,1,f,1,0.583195094792,02,02,60.0234848939,PLT_learning_02,A,2014_Jan_27_1754,P01,
stim_fb/ques.jpg,stim_fb/negf.jpg,stim_fb/posf.jpg,stim_02/c.jpg,stim_02/d.jpg,2,2,j,3,13,193,33,j,1,0.799780228042,02,02,60.0234848939,PLT_learning_02,A,2014_Jan_27_1754,P01,
stim_fb/ques.jpg,stim_fb/negf.jpg,stim_fb/posf.jpg,stim_02/b.jpg,stim_02/a.jpg,1,1,f,3,14,194,0,f,1,0.616498550768,02,02,60.0234848939,PLT_learning_02,A,2014_Jan_27_1754,P01,
stim_fb/ques.jpg,stim_fb/posf.jpg,stim_fb/negf.jpg,stim_02/e.jpg,stim_02/f.jpg,2,3,j,3,15,195,59,j,1,1.39953793905,02,02,60.0234848939,PLT_learning_02,A,2014_Jan_27_1754,P01,
stim_fb/ques.jpg,stim_fb/posf.jpg,stim_fb/negf.jpg,stim_02/c.jpg,stim_02/d.jpg,2,2,j,3,16,196,39,j,1,0.849775008553,02,02,60.0234848939,PLT_learning_02,A,2014_Jan_27_1754,P01,
stim_fb/ques.jpg,stim_fb/negf.jpg,stim_fb/posf.jpg,stim_02/d.jpg,stim_02/c.jpg,1,2,f,3,17,197,24,j,0,1.11630602963,02,02,60.0234848939,PLT_learning_02,A,2014_Jan_27_1754,P01,
stim_fb/ques.jpg,stim_fb/negf.jpg,stim_fb/posf.jpg,stim_02/d.jpg,stim_02/c.jpg,1,2,f,3,18,198,22,f,1,0.79975984331,02,02,60.0234848939,PLT_learning_02,A,2014_Jan_27_1754,P01,
stim_fb/ques.jpg,stim_fb/negf.jpg,stim_fb/posf.jpg,stim_02/c.jpg,stim_02/d.jpg,2,2,j,3,19,199,36,j,1,1.11636385154,02,02,60.0234848939,PLT_learning_02,A,2014_Jan_27_1754,P01,
stim_fb/ques.jpg,stim_fb/negf.jpg,stim_fb/posf.jpg,stim_02/d.jpg,stim_02/c.jpg,1,2,f,3,20,200,25,j,0,0.799795280504,02,02,60.0234848939,PLT_learning_02,A,2014_Jan_27_1754,P01,
stim_fb/ques.jpg,stim_fb/negf.jpg,stim_fb/posf.jpg,stim_02/f.jpg,stim_02/e.jpg,1,3,f,3,21,201,40,None,0,,02,02,60.0234848939,PLT_learning_02,A,2014_Jan_27_1754,P01,
stim_fb/ques.jpg,stim_fb/posf.jpg,stim_fb/negf.jpg,stim_02/a.jpg,stim_02/b.jpg,2,1,j,3,22,202,18,j,1,0.716467287963,02,02,60.0234848939,PLT_learning_02,A,2014_Jan_27_1754,P01,
stim_fb/ques.jpg,stim_fb/posf.jpg,stim_fb/negf.jpg,stim_02/b.jpg,stim_02/a.jpg,1,1,f,3,23,203,8,f,1,0.616487029094,02,02,60.0234848939,PLT_learning_02,A,2014_Jan_27_1754,P01,
stim_fb/ques.jpg,stim_fb/negf.jpg,stim_fb/posf.jpg,stim_02/e.jpg,stim_02/f.jpg,2,3,j,3,24,204,52,j,1,0.849743463044,02,02,60.0234848939,PLT_learning_02,A,2014_Jan_27_1754,P01,
stim_fb/ques.jpg,stim_fb/negf.jpg,stim_fb/posf.jpg,stim_02/f.jpg,stim_02/e.jpg,1,3,f,3,25,205,41,j,0,0.999754670436,02,02,60.0234848939,PLT_learning_02,A,2014_Jan_27_1754,P01,
stim_fb/ques.jpg,stim_fb/negf.jpg,stim_fb/posf.jpg,stim_02/d.jpg,stim_02/c.jpg,1,2,f,3,26,206,26,f,1,0.666475779596,02,02,60.0234848939,PLT_learning_02,A,2014_Jan_27_1754,P01,
stim_fb/ques.jpg,stim_fb/posf.jpg,stim_fb/negf.jpg,stim_02/a.jpg,stim_02/b.jpg,2,1,j,3,27,207,19,j,1,0.666433283835,02,02,60.0234848939,PLT_learning_02,A,2014_Jan_27_1754,P01,
stim_fb/ques.jpg,stim_fb/negf.jpg,stim_fb/posf.jpg,stim_02/b.jpg,stim_02/a.jpg,1,1,f,3,28,208,7,f,1,0.799819337376,02,02,60.0234848939,PLT_learning_02,A,2014_Jan_27_1754,P01,
stim_fb/ques.jpg,stim_fb/negf.jpg,stim_fb/posf.jpg,stim_02/f.jpg,stim_02/e.jpg,1,3,f,3,29,209,45,f,1,1.43292903012,02,02,60.0234848939,PLT_learning_02,A,2014_Jan_27_1754,P01,
stim_fb/ques.jpg,stim_fb/negf.jpg,stim_fb/posf.jpg,stim_02/f.jpg,stim_02/e.jpg,1,3,f,3,30,210,43,f,1,1.3996096856,02,02,60.0234848939,PLT_learning_02,A,2014_Jan_27_1754,P01,
stim_fb/ques.jpg,stim_fb/negf.jpg,stim_fb/posf.jpg,stim_02/a.jpg,stim_02/b.jpg,2,1,j,3,31,211,10,j,1,0.699808651782,02,02,60.0234848939,PLT_learning_02,A,2014_Jan_27_1754,P01,
stim_fb/ques.jpg,stim_fb/posf.jpg,stim_fb/negf.jpg,stim_02/d.jpg,stim_02/c.jpg,1,2,f,3,32,212,28,j,0,0.899746772781,02,02,60.0234848939,PLT_learning_02,A,2014_Jan_27_1754,P01,
stim_fb/ques.jpg,stim_fb/negf.jpg,stim_fb/posf.jpg,stim_02/a.jpg,stim_02/b.jpg,2,1,j,3,33,213,14,j,1,0.816496340267,02,02,60.0234848939,PLT_learning_02,A,2014_Jan_27_1754,P01,
stim_fb/ques.jpg,stim_fb/negf.jpg,stim_fb/posf.jpg,stim_02/b.jpg,stim_02/a.jpg,1,1,f,3,34,214,5,f,1,1.01637499727,02,02,60.0234848939,PLT_learning_02,A,2014_Jan_27_1754,P01,
stim_fb/ques.jpg,stim_fb/negf.jpg,stim_fb/posf.jpg,stim_02/a.jpg,stim_02/b.jpg,2,1,j,3,35,215,15,j,1,0.966389314406,02,02,60.0234848939,PLT_learning_02,A,2014_Jan_27_1754,P01,
stim_fb/ques.jpg,stim_fb/negf.jpg,stim_fb/posf.jpg,stim_02/a.jpg,stim_02/b.jpg,2,1,j,3,36,216,12,j,1,0.699839240911,02,02,60.0234848939,PLT_learning_02,A,2014_Jan_27_1754,P01,
stim_fb/ques.jpg,stim_fb/negf.jpg,stim_fb/posf.jpg,stim_02/d.jpg,stim_02/c.jpg,1,2,f,3,37,217,21,f,1,0.966359119258,02,02,60.0234848939,PLT_learning_02,A,2014_Jan_27_1754,P01,
stim_fb/ques.jpg,stim_fb/negf.jpg,stim_fb/posf.jpg,stim_02/c.jpg,stim_02/d.jpg,2,2,j,3,38,218,32,j,1,0.916414284049,02,02,60.0234848939,PLT_learning_02,A,2014_Jan_27_1754,P01,
stim_fb/ques.jpg,stim_fb/posf.jpg,stim_fb/negf.jpg,stim_02/c.jpg,stim_02/d.jpg,2,2,j,3,39,219,38,j,1,1.13301109837,02,02,60.0234848939,PLT_learning_02,A,2014_Jan_27_1754,P01,
stim_fb/ques.jpg,stim_fb/negf.jpg,stim_fb/posf.jpg,stim_02/a.jpg,stim_02/b.jpg,2,1,j,3,40,220,13,j,1,0.983065646628,02,02,60.0234848939,PLT_learning_02,A,2014_Jan_27_1754,P01,
stim_fb/ques.jpg,stim_fb/negf.jpg,stim_fb/posf.jpg,stim_02/f.jpg,stim_02/e.jpg,1,3,f,3,41,221,42,f,1,1.01635551479,02,02,60.0234848939,PLT_learning_02,A,2014_Jan_27_1754,P01,
stim_fb/ques.jpg,stim_fb/negf.jpg,stim_fb/posf.jpg,stim_02/a.jpg,stim_02/b.jpg,2,1,j,3,42,222,17,j,1,0.833074709684,02,02,60.0234848939,PLT_learning_02,A,2014_Jan_27_1754,P01,
stim_fb/ques.jpg,stim_fb/negf.jpg,stim_fb/posf.jpg,stim_02/a.jpg,stim_02/b.jpg,2,1,j,3,43,223,16,j,1,0.6498357808,02,02,60.0234848939,PLT_learning_02,A,2014_Jan_27_1754,P01,
stim_fb/ques.jpg,stim_fb/negf.jpg,stim_fb/posf.jpg,stim_02/d.jpg,stim_02/c.jpg,1,2,f,3,44,224,23,f,1,1.04968583663,02,02,60.0234848939,PLT_learning_02,A,2014_Jan_27_1754,P01,
stim_fb/ques.jpg,stim_fb/posf.jpg,stim_fb/negf.jpg,stim_02/d.jpg,stim_02/c.jpg,1,2,f,3,45,225,27,f,1,1.66610261388,02,02,60.0234848939,PLT_learning_02,A,2014_Jan_27_1754,P01,
stim_fb/ques.jpg,stim_fb/negf.jpg,stim_fb/posf.jpg,stim_02/e.jpg,stim_02/f.jpg,2,3,j,3,46,226,55,j,1,0.916378323553,02,02,60.0234848939,PLT_learning_02,A,2014_Jan_27_1754,P01,
stim_fb/ques.jpg,stim_fb/negf.jpg,stim_fb/posf.jpg,stim_02/e.jpg,stim_02/f.jpg,2,3,j,3,47,227,50,j,1,1.13298031676,02,02,60.0234848939,PLT_learning_02,A,2014_Jan_27_1754,P01,
stim_fb/ques.jpg,stim_fb/posf.jpg,stim_fb/negf.jpg,stim_02/f.jpg,stim_02/e.jpg,1,3,f,3,48,228,49,j,0,1.29962858163,02,02,60.0234848939,PLT_learning_02,A,2014_Jan_27_1754,P01,
stim_fb/ques.jpg,stim_fb/negf.jpg,stim_fb/posf.jpg,stim_02/c.jpg,stim_02/d.jpg,2,2,j,3,49,229,30,j,1,1.03307007515,02,02,60.0234848939,PLT_learning_02,A,2014_Jan_27_1754,P01,
stim_fb/ques.jpg,stim_fb/negf.jpg,stim_fb/posf.jpg,stim_02/e.jpg,stim_02/f.jpg,2,3,j,3,50,230,51,j,1,1.34959801807,02,02,60.0234848939,PLT_learning_02,A,2014_Jan_27_1754,P01,
stim_fb/ques.jpg,stim_fb/negf.jpg,stim_fb/posf.jpg,stim_02/e.jpg,stim_02/f.jpg,2,3,j,3,51,231,54,j,1,1.61617767018,02,02,60.0234848939,PLT_learning_02,A,2014_Jan_27_1754,P01,
stim_fb/ques.jpg,stim_fb/posf.jpg,stim_fb/negf.jpg,stim_02/f.jpg,stim_02/e.jpg,1,3,f,3,52,232,46,None,0,,02,02,60.0234848939,PLT_learning_02,A,2014_Jan_27_1754,P01,
stim_fb/ques.jpg,stim_fb/negf.jpg,stim_fb/posf.jpg,stim_02/f.jpg,stim_02/e.jpg,1,3,f,3,53,233,44,j,0,0.799763235753,02,02,60.0234848939,PLT_learning_02,A,2014_Jan_27_1754,P01,
stim_fb/ques.jpg,stim_fb/posf.jpg,stim_fb/negf.jpg,stim_02/e.jpg,stim_02/f.jpg,2,3,j,3,54,234,56,j,1,1.1663846498,02,02,60.0234848939,PLT_learning_02,A,2014_Jan_27_1754,P01,
stim_fb/ques.jpg,stim_fb/negf.jpg,stim_fb/posf.jpg,stim_02/a.jpg,stim_02/b.jpg,2,1,j,3,55,235,11,j,1,0.633195231633,02,02,60.0234848939,PLT_learning_02,A,2014_Jan_27_1754,P01,
stim_fb/ques.jpg,stim_fb/negf.jpg,stim_fb/posf.jpg,stim_02/c.jpg,stim_02/d.jpg,2,2,j,3,56,236,31,j,1,1.28295542832,02,02,60.0234848939,PLT_learning_02,A,2014_Jan_27_1754,P01,
stim_fb/ques.jpg,stim_fb/negf.jpg,stim_fb/posf.jpg,stim_02/b.jpg,stim_02/a.jpg,1,1,f,3,57,237,3,j,0,0.9163764138,02,02,60.0234848939,PLT_learning_02,A,2014_Jan_27_1754,P01,
stim_fb/ques.jpg,stim_fb/negf.jpg,stim_fb/posf.jpg,stim_02/c.jpg,stim_02/d.jpg,2,2,j,3,58,238,34,j,1,1.03304151908,02,02,60.0234848939,PLT_learning_02,A,2014_Jan_27_1754,P01,
stim_fb/ques.jpg,stim_fb/posf.jpg,stim_fb/negf.jpg,stim_02/f.jpg,stim_02/e.jpg,1,3,f,3,59,239,47,j,0,0.83297000109,02,02,60.0234848939,PLT_learning_02,A,2014_Jan_27_1754,P01,
stim_fb/ques.jpg,stim_fb/posf.jpg,stim_fb/negf.jpg,stim_02/f.jpg,stim_02/e.jpg,1,3,f,4,0,240,47,j,0,0.816467014282,02,02,60.0234848939,PLT_learning_02,A,2014_Jan_27_1754,P01,
stim_fb/ques.jpg,stim_fb/negf.jpg,stim_fb/posf.jpg,stim_02/e.jpg,stim_02/f.jpg,2,3,j,4,1,241,50,j,1,0.499856991087,02,02,60.0234848939,PLT_learning_02,A,2014_Jan_27_1754,P01,
stim_fb/ques.jpg,stim_fb/posf.jpg,stim_fb/negf.jpg,stim_02/d.jpg,stim_02/c.jpg,1,2,f,4,2,242,29,j,0,0.683148544941,02,02,60.0234848939,PLT_learning_02,A,2014_Jan_27_1754,P01,
stim_fb/ques.jpg,stim_fb/negf.jpg,stim_fb/posf.jpg,stim_02/d.jpg,stim_02/c.jpg,1,2,f,4,3,243,25,f,1,0.949755246369,02,02,60.0234848939,PLT_learning_02,A,2014_Jan_27_1754,P01,
stim_fb/ques.jpg,stim_fb/posf.jpg,stim_fb/negf.jpg,stim_02/d.jpg,stim_02/c.jpg,1,2,f,4,4,244,27,f,1,1.28298119645,02,02,60.0234848939,PLT_learning_02,A,2014_Jan_27_1754,P01,
stim_fb/ques.jpg,stim_fb/negf.jpg,stim_fb/posf.jpg,stim_02/d.jpg,stim_02/c.jpg,1,2,f,4,5,245,22,j,0,0.749794045932,02,02,60.0234848939,PLT_learning_02,A,2014_Jan_27_1754,P01,
stim_fb/ques.jpg,stim_fb/negf.jpg,stim_fb/posf.jpg,stim_02/b.jpg,stim_02/a.jpg,1,1,f,4,6,246,6,f,1,0.649832207907,02,02,60.0234848939,PLT_learning_02,A,2014_Jan_27_1754,P01,
stim_fb/ques.jpg,stim_fb/posf.jpg,stim_fb/negf.jpg,stim_02/b.jpg,stim_02/a.jpg,1,1,f,4,7,247,9,f,1,0.63312423093,02,02,60.0234848939,PLT_learning_02,A,2014_Jan_27_1754,P01,
stim_fb/ques.jpg,stim_fb/posf.jpg,stim_fb/negf.jpg,stim_02/f.jpg,stim_02/e.jpg,1,3,f,4,8,248,48,j,0,0.916449315233,02,02,60.0234848939,PLT_learning_02,A,2014_Jan_27_1754,P01,
stim_fb/ques.jpg,stim_fb/negf.jpg,stim_fb/posf.jpg,stim_02/c.jpg,stim_02/d.jpg,2,2,j,4,9,249,30,j,1,0.749809696883,02,02,60.0234848939,PLT_learning_02,A,2014_Jan_27_1754,P01,
stim_fb/ques.jpg,stim_fb/negf.jpg,stim_fb/posf.jpg,stim_02/f.jpg,stim_02/e.jpg,1,3,f,4,10,250,40,j,0,0.549840066466,02,02,60.0234848939,PLT_learning_02,A,2014_Jan_27_1754,P01,
stim_fb/ques.jpg,stim_fb/negf.jpg,stim_fb/posf.jpg,stim_02/e.jpg,stim_02/f.jpg,2,3,j,4,11,251,54,j,1,0.999847207738,02,02,60.0234848939,PLT_learning_02,A,2014_Jan_27_1754,P01,
stim_fb/ques.jpg,stim_fb/negf.jpg,stim_fb/posf.jpg,stim_02/c.jpg,stim_02/d.jpg,2,2,j,4,12,252,31,f,0,1.26630059962,02,02,60.0234848939,PLT_learning_02,A,2014_Jan_27_1754,P01,
stim_fb/ques.jpg,stim_fb/negf.jpg,stim_fb/posf.jpg,stim_02/f.jpg,stim_02/e.jpg,1,3,f,4,13,253,41,j,0,0.533233444736,02,02,60.0234848939,PLT_learning_02,A,2014_Jan_27_1754,P01,
stim_fb/ques.jpg,stim_fb/posf.jpg,stim_fb/negf.jpg,stim_02/e.jpg,stim_02/f.jpg,2,3,j,4,14,254,57,j,1,0.666474263824,02,02,60.0234848939,PLT_learning_02,A,2014_Jan_27_1754,P01,
stim_fb/ques.jpg,stim_fb/negf.jpg,stim_fb/posf.jpg,stim_02/d.jpg,stim_02/c.jpg,1,2,f,4,15,255,21,j,0,0.999656097112,02,02,60.0234848939,PLT_learning_02,A,2014_Jan_27_1754,P01,
stim_fb/ques.jpg,stim_fb/posf.jpg,stim_fb/negf.jpg,stim_02/c.jpg,stim_02/d.jpg,2,2,j,4,16,256,39,j,1,0.966374502543,02,02,60.0234848939,PLT_learning_02,A,2014_Jan_27_1754,P01,
stim_fb/ques.jpg,stim_fb/negf.jpg,stim_fb/posf.jpg,stim_02/a.jpg,stim_02/b.jpg,2,1,j,4,17,257,15,j,1,1.11633476314,02,02,60.0234848939,PLT_learning_02,A,2014_Jan_27_1754,P01,
stim_fb/ques.jpg,stim_fb/negf.jpg,stim_fb/posf.jpg,stim_02/d.jpg,stim_02/c.jpg,1,2,f,4,18,258,26,f,1,0.633161583892,02,02,60.0234848939,PLT_learning_02,A,2014_Jan_27_1754,P01,
stim_fb/ques.jpg,stim_fb/posf.jpg,stim_fb/negf.jpg,stim_02/d.jpg,stim_02/c.jpg,1,2,f,4,19,259,28,f,1,1.29961560734,02,02,60.0234848939,PLT_learning_02,A,2014_Jan_27_1754,P01,
stim_fb/ques.jpg,stim_fb/negf.jpg,stim_fb/posf.jpg,stim_02/e.jpg,stim_02/f.jpg,2,3,j,4,20,260,55,j,1,0.933033813904,02,02,60.0234848939,PLT_learning_02,A,2014_Jan_27_1754,P01,
stim_fb/ques.jpg,stim_fb/posf.jpg,stim_fb/negf.jpg,stim_02/b.jpg,stim_02/a.jpg,1,1,f,4,21,261,8,f,1,0.699794937651,02,02,60.0234848939,PLT_learning_02,A,2014_Jan_27_1754,P01,
stim_fb/ques.jpg,stim_fb/negf.jpg,stim_fb/posf.jpg,stim_02/d.jpg,stim_02/c.jpg,1,2,f,4,22,262,23,f,1,1.26628846141,02,02,60.0234848939,PLT_learning_02,A,2014_Jan_27_1754,P01,
stim_fb/ques.jpg,stim_fb/negf.jpg,stim_fb/posf.jpg,stim_02/a.jpg,stim_02/b.jpg,2,1,j,4,23,263,11,j,1,0.649840210825,02,02,60.0234848939,PLT_learning_02,A,2014_Jan_27_1754,P01,
stim_fb/ques.jpg,stim_fb/negf.jpg,stim_fb/posf.jpg,stim_02/b.jpg,stim_02/a.jpg,1,1,f,4,24,264,7,f,1,0.683110629579,02,02,60.0234848939,PLT_learning_02,A,2014_Jan_27_1754,P01,
stim_fb/ques.jpg,stim_fb/negf.jpg,stim_fb/posf.jpg,stim_02/c.jpg,stim_02/d.jpg,2,2,j,4,25,265,33,j,1,0.899737428525,02,02,60.0234848939,PLT_learning_02,A,2014_Jan_27_1754,P01,
stim_fb/ques.jpg,stim_fb/negf.jpg,stim_fb/posf.jpg,stim_02/b.jpg,stim_02/a.jpg,1,1,f,4,26,266,2,f,1,0.666494013978,02,02,60.0234848939,PLT_learning_02,A,2014_Jan_27_1754,P01,
stim_fb/ques.jpg,stim_fb/negf.jpg,stim_fb/posf.jpg,stim_02/f.jpg,stim_02/e.jpg,1,3,f,4,27,267,43,j,0,1.2329911016,02,02,60.0234848939,PLT_learning_02,A,2014_Jan_27_1754,P01,
stim_fb/ques.jpg,stim_fb/negf.jpg,stim_fb/posf.jpg,stim_02/a.jpg,stim_02/b.jpg,2,1,j,4,28,268,10,j,1,1.01634337357,02,02,60.0234848939,PLT_learning_02,A,2014_Jan_27_1754,P01,
stim_fb/ques.jpg,stim_fb/posf.jpg,stim_fb/negf.jpg,stim_02/c.jpg,stim_02/d.jpg,2,2,j,4,29,269,38,f,0,0.816434268786,02,02,60.0234848939,PLT_learning_02,A,2014_Jan_27_1754,P01,
stim_fb/ques.jpg,stim_fb/negf.jpg,stim_fb/posf.jpg,stim_02/a.jpg,stim_02/b.jpg,2,1,j,4,30,270,17,j,1,0.649807447284,02,02,60.0234848939,PLT_learning_02,A,2014_Jan_27_1754,P01,
stim_fb/ques.jpg,stim_fb/negf.jpg,stim_fb/posf.jpg,stim_02/b.jpg,stim_02/a.jpg,1,1,f,4,31,271,0,f,1,0.649830583865,02,02,60.0234848939,PLT_learning_02,A,2014_Jan_27_1754,P01,
stim_fb/ques.jpg,stim_fb/posf.jpg,stim_fb/negf.jpg,stim_02/c.jpg,stim_02/d.jpg,2,2,j,4,32,272,37,f,0,1.18295771702,02,02,60.0234848939,PLT_learning_02,A,2014_Jan_27_1754,P01,
stim_fb/ques.jpg,stim_fb/posf.jpg,stim_fb/negf.jpg,stim_02/f.jpg,stim_02/e.jpg,1,3,f,4,33,273,46,j,0,0.883108187501,02,02,60.0234848939,PLT_learning_02,A,2014_Jan_27_1754,P01,
stim_fb/ques.jpg,stim_fb/negf.jpg,stim_fb/posf.jpg,stim_02/a.jpg,stim_02/b.jpg,2,1,j,4,34,274,13,j,1,0.766459987293,02,02,60.0234848939,PLT_learning_02,A,2014_Jan_27_1754,P01,
stim_fb/ques.jpg,stim_fb/posf.jpg,stim_fb/negf.jpg,stim_02/a.jpg,stim_02/b.jpg,2,1,j,4,35,275,18,j,1,0.683128322613,02,02,60.0234848939,PLT_learning_02,A,2014_Jan_27_1754,P01,
stim_fb/ques.jpg,stim_fb/negf.jpg,stim_fb/posf.jpg,stim_02/e.jpg,stim_02/f.jpg,2,3,j,4,36,276,53,j,1,1.2662559505,02,02,60.0234848939,PLT_learning_02,A,2014_Jan_27_1754,P01,
stim_fb/ques.jpg,stim_fb/negf.jpg,stim_fb/posf.jpg,stim_02/f.jpg,stim_02/e.jpg,1,3,f,4,37,277,45,j,0,0.716468054872,02,02,60.0234848939,PLT_learning_02,A,2014_Jan_27_1754,P01,
stim_fb/ques.jpg,stim_fb/negf.jpg,stim_fb/posf.jpg,stim_02/c.jpg,stim_02/d.jpg,2,2,j,4,38,278,35,f,0,1.09970291463,02,02,60.0234848939,PLT_learning_02,A,2014_Jan_27_1754,P01,
stim_fb/ques.jpg,stim_fb/negf.jpg,stim_fb/posf.jpg,stim_02/a.jpg,stim_02/b.jpg,2,1,j,4,39,279,12,j,1,0.616513479923,02,02,60.0234848939,PLT_learning_02,A,2014_Jan_27_1754,P01,
stim_fb/ques.jpg,stim_fb/negf.jpg,stim_fb/posf.jpg,stim_02/c.jpg,stim_02/d.jpg,2,2,j,4,40,280,32,f,0,1.0663853325,02,02,60.0234848939,PLT_learning_02,A,2014_Jan_27_1754,P01,
stim_fb/ques.jpg,stim_fb/negf.jpg,stim_fb/posf.jpg,stim_02/a.jpg,stim_02/b.jpg,2,1,j,4,41,281,14,j,1,0.76645970459,02,02,60.0234848939,PLT_learning_02,A,2014_Jan_27_1754,P01,
stim_fb/ques.jpg,stim_fb/negf.jpg,stim_fb/posf.jpg,stim_02/e.jpg,stim_02/f.jpg,2,3,j,4,42,282,52,j,1,0.966372376251,02,02,60.0234848939,PLT_learning_02,A,2014_Jan_27_1754,P01,
stim_fb/ques.jpg,stim_fb/negf.jpg,stim_fb/posf.jpg,stim_02/b.jpg,stim_02/a.jpg,1,1,f,4,43,283,4,f,1,0.716476163051,02,02,60.0234848939,PLT_learning_02,A,2014_Jan_27_1754,P01,
stim_fb/ques.jpg,stim_fb/negf.jpg,stim_fb/posf.jpg,stim_02/b.jpg,stim_02/a.jpg,1,1,f,4,44,284,1,f,1,0.849716552069,02,02,60.0234848939,PLT_learning_02,A,2014_Jan_27_1754,P01,
stim_fb/ques.jpg,stim_fb/negf.jpg,stim_fb/posf.jpg,stim_02/b.jpg,stim_02/a.jpg,1,1,f,4,45,285,3,f,1,0.883098512423,02,02,60.0234848939,PLT_learning_02,A,2014_Jan_27_1754,P01,
stim_fb/ques.jpg,stim_fb/negf.jpg,stim_fb/posf.jpg,stim_02/a.jpg,stim_02/b.jpg,2,1,j,4,46,286,16,j,1,0.566551941144,02,02,60.0234848939,PLT_learning_02,A,2014_Jan_27_1754,P01,
stim_fb/ques.jpg,stim_fb/negf.jpg,stim_fb/posf.jpg,stim_02/d.jpg,stim_02/c.jpg,1,2,f,4,47,287,24,f,1,0.733120396386,02,02,60.0234848939,PLT_learning_02,A,2014_Jan_27_1754,P01,
stim_fb/ques.jpg,stim_fb/posf.jpg,stim_fb/negf.jpg,stim_02/e.jpg,stim_02/f.jpg,2,3,j,4,48,288,59,j,1,0.749790310635,02,02,60.0234848939,PLT_learning_02,A,2014_Jan_27_1754,P01,
stim_fb/ques.jpg,stim_fb/posf.jpg,stim_fb/negf.jpg,stim_02/e.jpg,stim_02/f.jpg,2,3,j,4,49,289,56,j,1,0.783133266918,02,02,60.0234848939,PLT_learning_02,A,2014_Jan_27_1754,P01,
stim_fb/ques.jpg,stim_fb/negf.jpg,stim_fb/posf.jpg,stim_02/b.jpg,stim_02/a.jpg,1,1,f,4,50,290,5,f,1,0.599841039387,02,02,60.0234848939,PLT_learning_02,A,2014_Jan_27_1754,P01,
stim_fb/ques.jpg,stim_fb/posf.jpg,stim_fb/negf.jpg,stim_02/a.jpg,stim_02/b.jpg,2,1,j,4,51,291,19,j,1,0.683152535874,02,02,60.0234848939,PLT_learning_02,A,2014_Jan_27_1754,P01,
stim_fb/ques.jpg,stim_fb/negf.jpg,stim_fb/posf.jpg,stim_02/f.jpg,stim_02/e.jpg,1,3,f,4,52,292,44,j,0,1.21631464307,02,02,60.0234848939,PLT_learning_02,A,2014_Jan_27_1754,P01,
stim_fb/ques.jpg,stim_fb/posf.jpg,stim_fb/negf.jpg,stim_02/e.jpg,stim_02/f.jpg,2,3,j,4,53,293,58,f,0,1.36626126172,02,02,60.0234848939,PLT_learning_02,A,2014_Jan_27_1754,P01,
stim_fb/ques.jpg,stim_fb/negf.jpg,stim_fb/posf.jpg,stim_02/f.jpg,stim_02/e.jpg,1,3,f,4,54,294,42,j,0,1.03302219298,02,02,60.0234848939,PLT_learning_02,A,2014_Jan_27_1754,P01,
stim_fb/ques.jpg,stim_fb/posf.jpg,stim_fb/negf.jpg,stim_02/f.jpg,stim_02/e.jpg,1,3,f,4,55,295,49,f,1,0.933069263129,02,02,60.0234848939,PLT_learning_02,A,2014_Jan_27_1754,P01,
stim_fb/ques.jpg,stim_fb/negf.jpg,stim_fb/posf.jpg,stim_02/c.jpg,stim_02/d.jpg,2,2,j,4,56,296,34,j,1,0.81640068721,02,02,60.0234848939,PLT_learning_02,A,2014_Jan_27_1754,P01,
stim_fb/ques.jpg,stim_fb/negf.jpg,stim_fb/posf.jpg,stim_02/d.jpg,stim_02/c.jpg,1,2,f,4,57,297,20,j,0,0.6997797288,02,02,60.0234848939,PLT_learning_02,A,2014_Jan_27_1754,P01,
stim_fb/ques.jpg,stim_fb/negf.jpg,stim_fb/posf.jpg,stim_02/e.jpg,stim_02/f.jpg,2,3,j,4,58,298,51,f,0,0.666521878325,02,02,60.0234848939,PLT_learning_02,A,2014_Jan_27_1754,P01,
stim_fb/ques.jpg,stim_fb/negf.jpg,stim_fb/posf.jpg,stim_02/c.jpg,stim_02/d.jpg,2,2,j,4,59,299,36,j,1,0.94973913828,02,02,60.0234848939,PLT_learning_02,A,2014_Jan_27_1754,P01,
stim_fb/ques.jpg,stim_fb/posf.jpg,stim_fb/negf.jpg,stim_02/e.jpg,stim_02/f.jpg,2,3,j,5,0,300,57,j,1,0.916405366856,02,02,60.0234848939,PLT_learning_02,A,2014_Jan_27_1754,P01,
stim_fb/ques.jpg,stim_fb/posf.jpg,stim_fb/negf.jpg,stim_02/d.jpg,stim_02/c.jpg,1,2,f,5,1,301,27,f,1,0.716501170287,02,02,60.0234848939,PLT_learning_02,A,2014_Jan_27_1754,P01,
stim_fb/ques.jpg,stim_fb/negf.jpg,stim_fb/posf.jpg,stim_02/a.jpg,stim_02/b.jpg,2,1,j,5,2,302,12,j,1,1.04969822446,02,02,60.0234848939,PLT_learning_02,A,2014_Jan_27_1754,P01,
stim_fb/ques.jpg,stim_fb/negf.jpg,stim_fb/posf.jpg,stim_02/d.jpg,stim_02/c.jpg,1,2,f,5,3,303,20,f,1,0.966412267531,02,02,60.0234848939,PLT_learning_02,A,2014_Jan_27_1754,P01,
stim_fb/ques.jpg,stim_fb/posf.jpg,stim_fb/negf.jpg,stim_02/b.jpg,stim_02/a.jpg,1,1,f,5,4,304,9,f,1,0.899764571076,02,02,60.0234848939,PLT_learning_02,A,2014_Jan_27_1754,P01,
stim_fb/ques.jpg,stim_fb/negf.jpg,stim_fb/posf.jpg,stim_02/c.jpg,stim_02/d.jpg,2,2,j,5,5,305,32,j,1,0.883086963681,02,02,60.0234848939,PLT_learning_02,A,2014_Jan_27_1754,P01,
stim_fb/ques.jpg,stim_fb/posf.jpg,stim_fb/negf.jpg,stim_02/d.jpg,stim_02/c.jpg,1,2,f,5,6,306,29,f,1,1.23298416634,02,02,60.0234848939,PLT_learning_02,A,2014_Jan_27_1754,P01,
stim_fb/ques.jpg,stim_fb/posf.jpg,stim_fb/negf.jpg,stim_02/f.jpg,stim_02/e.jpg,1,3,f,5,7,307,49,j,0,0.749784734759,02,02,60.0234848939,PLT_learning_02,A,2014_Jan_27_1754,P01,
stim_fb/ques.jpg,stim_fb/negf.jpg,stim_fb/posf.jpg,stim_02/f.jpg,stim_02/e.jpg,1,3,f,5,8,308,41,f,1,1.29960944501,02,02,60.0234848939,PLT_learning_02,A,2014_Jan_27_1754,P01,
stim_fb/ques.jpg,stim_fb/negf.jpg,stim_fb/posf.jpg,stim_02/c.jpg,stim_02/d.jpg,2,2,j,5,9,309,34,j,1,0.999696244027,02,02,60.0234848939,PLT_learning_02,A,2014_Jan_27_1754,P01,
stim_fb/ques.jpg,stim_fb/posf.jpg,stim_fb/negf.jpg,stim_02/c.jpg,stim_02/d.jpg,2,2,j,5,10,310,39,j,1,0.983056768533,02,02,60.0234848939,PLT_learning_02,A,2014_Jan_27_1754,P01,
stim_fb/ques.jpg,stim_fb/negf.jpg,stim_fb/posf.jpg,stim_02/f.jpg,stim_02/e.jpg,1,3,f,5,11,311,42,j,0,0.799750123119,02,02,60.0234848939,PLT_learning_02,A,2014_Jan_27_1754,P01,
stim_fb/ques.jpg,stim_fb/posf.jpg,stim_fb/negf.jpg,stim_02/b.jpg,stim_02/a.jpg,1,1,f,5,12,312,8,f,1,0.749759850829,02,02,60.0234848939,PLT_learning_02,A,2014_Jan_27_1754,P01,
stim_fb/ques.jpg,stim_fb/negf.jpg,stim_fb/posf.jpg,stim_02/d.jpg,stim_02/c.jpg,1,2,f,5,13,313,21,j,0,0.949727186535,02,02,60.0234848939,PLT_learning_02,A,2014_Jan_27_1754,P01,
stim_fb/ques.jpg,stim_fb/negf.jpg,stim_fb/posf.jpg,stim_02/e.jpg,stim_02/f.jpg,2,3,j,5,14,314,55,j,1,1.03298930914,02,02,60.0234848939,PLT_learning_02,A,2014_Jan_27_1754,P01,
stim_fb/ques.jpg,stim_fb/negf.jpg,stim_fb/posf.jpg,stim_02/f.jpg,stim_02/e.jpg,1,3,f,5,15,315,44,f,1,0.899767145484,02,02,60.0234848939,PLT_learning_02,A,2014_Jan_27_1754,P01,
stim_fb/ques.jpg,stim_fb/posf.jpg,stim_fb/negf.jpg,stim_02/e.jpg,stim_02/f.jpg,2,3,j,5,16,316,56,j,1,0.883057785063,02,02,60.0234848939,PLT_learning_02,A,2014_Jan_27_1754,P01,
stim_fb/ques.jpg,stim_fb/negf.jpg,stim_fb/posf.jpg,stim_02/a.jpg,stim_02/b.jpg,2,1,j,5,17,317,14,j,1,0.949722007646,02,02,60.0234848939,PLT_learning_02,A,2014_Jan_27_1754,P01,
stim_fb/ques.jpg,stim_fb/negf.jpg,stim_fb/posf.jpg,stim_02/e.jpg,stim_02/f.jpg,2,3,j,5,18,318,54,f,0,0.833099786093,02,02,60.0234848939,PLT_learning_02,A,2014_Jan_27_1754,P01,
stim_fb/ques.jpg,stim_fb/negf.jpg,stim_fb/posf.jpg,stim_02/d.jpg,stim_02/c.jpg,1,2,f,5,19,319,22,j,0,0.983055021184,02,02,60.0234848939,PLT_learning_02,A,2014_Jan_27_1754,P01,
stim_fb/ques.jpg,stim_fb/posf.jpg,stim_fb/negf.jpg,stim_02/e.jpg,stim_02/f.jpg,2,3,j,5,20,320,59,j,1,1.2496473348,02,02,60.0234848939,PLT_learning_02,A,2014_Jan_27_1754,P01,
stim_fb/ques.jpg,stim_fb/negf.jpg,stim_fb/posf.jpg,stim_02/b.jpg,stim_02/a.jpg,1,1,f,5,21,321,7,f,1,0.783132605271,02,02,60.0234848939,PLT_learning_02,A,2014_Jan_27_1754,P01,
stim_fb/ques.jpg,stim_fb/negf.jpg,stim_fb/posf.jpg,stim_02/c.jpg,stim_02/d.jpg,2,2,j,5,22,322,31,j,1,0.666472916471,02,02,60.0234848939,PLT_learning_02,A,2014_Jan_27_1754,P01,
stim_fb/ques.jpg,stim_fb/negf.jpg,stim_fb/posf.jpg,stim_02/b.jpg,stim_02/a.jpg,1,1,f,5,23,323,3,f,1,0.916419646395,02,02,60.0234848939,PLT_learning_02,A,2014_Jan_27_1754,P01,
stim_fb/ques.jpg,stim_fb/negf.jpg,stim_fb/posf.jpg,stim_02/f.jpg,stim_02/e.jpg,1,3,f,5,24,324,45,j,0,0.866455024943,02,02,60.0234848939,PLT_learning_02,A,2014_Jan_27_1754,P01,
stim_fb/ques.jpg,stim_fb/negf.jpg,stim_fb/posf.jpg,stim_02/d.jpg,stim_02/c.jpg,1,2,f,5,25,325,26,f,1,0.49989815754,02,02,60.0234848939,PLT_learning_02,A,2014_Jan_27_1754,P01,
stim_fb/ques.jpg,stim_fb/posf.jpg,stim_fb/negf.jpg,stim_02/e.jpg,stim_02/f.jpg,2,3,j,5,26,326,58,j,1,0.69985990534,02,02,60.0234848939,PLT_learning_02,A,2014_Jan_27_1754,P01,
stim_fb/ques.jpg,stim_fb/negf.jpg,stim_fb/posf.jpg,stim_02/f.jpg,stim_02/e.jpg,1,3,f,5,27,327,40,f,1,1.14952523393,02,02,60.0234848939,PLT_learning_02,A,2014_Jan_27_1754,P01,
stim_fb/ques.jpg,stim_fb/negf.jpg,stim_fb/posf.jpg,stim_02/b.jpg,stim_02/a.jpg,1,1,f,5,28,328,1,f,1,0.849773619094,02,02,60.0234848939,PLT_learning_02,A,2014_Jan_27_1754,P01,
stim_fb/ques.jpg,stim_fb/posf.jpg,stim_fb/negf.jpg,stim_02/d.jpg,stim_02/c.jpg,1,2,f,5,29,329,28,f,1,0.733123403871,02,02,60.0234848939,PLT_learning_02,A,2014_Jan_27_1754,P01,
stim_fb/ques.jpg,stim_fb/posf.jpg,stim_fb/negf.jpg,stim_02/f.jpg,stim_02/e.jpg,1,3,f,5,30,330,47,j,0,0.666487758409,02,02,60.0234848939,PLT_learning_02,A,2014_Jan_27_1754,P01,
stim_fb/ques.jpg,stim_fb/negf.jpg,stim_fb/posf.jpg,stim_02/b.jpg,stim_02/a.jpg,1,1,f,5,31,331,5,f,1,0.616512331064,02,02,60.0234848939,PLT_learning_02,A,2014_Jan_27_1754,P01,
stim_fb/ques.jpg,stim_fb/negf.jpg,stim_fb/posf.jpg,stim_02/d.jpg,stim_02/c.jpg,1,2,f,5,32,332,25,f,1,0.89974898629,02,02,60.0234848939,PLT_learning_02,A,2014_Jan_27_1754,P01,
stim_fb/ques.jpg,stim_fb/negf.jpg,stim_fb/posf.jpg,stim_02/a.jpg,stim_02/b.jpg,2,1,j,5,33,333,11,j,1,0.599872419484,02,02,60.0234848939,PLT_learning_02,A,2014_Jan_27_1754,P01,
stim_fb/ques.jpg,stim_fb/posf.jpg,stim_fb/negf.jpg,stim_02/f.jpg,stim_02/e.jpg,1,3,f,5,34,334,48,f,1,0.949706970222,02,02,60.0234848939,PLT_learning_02,A,2014_Jan_27_1754,P01,
stim_fb/ques.jpg,stim_fb/negf.jpg,stim_fb/posf.jpg,stim_02/c.jpg,stim_02/d.jpg,2,2,j,5,35,335,33,j,1,0.566524894832,02,02,60.0234848939,PLT_learning_02,A,2014_Jan_27_1754,P01,
stim_fb/ques.jpg,stim_fb/posf.jpg,stim_fb/negf.jpg,stim_02/a.jpg,stim_02/b.jpg,2,1,j,5,36,336,19,j,1,0.849753932098,02,02,60.0234848939,PLT_learning_02,A,2014_Jan_27_1754,P01,
stim_fb/ques.jpg,stim_fb/negf.jpg,stim_fb/posf.jpg,stim_02/a.jpg,stim_02/b.jpg,2,1,j,5,37,337,16,j,1,0.566520714428,02,02,60.0234848939,PLT_learning_02,A,2014_Jan_27_1754,P01,
stim_fb/ques.jpg,stim_fb/negf.jpg,stim_fb/posf.jpg,stim_02/a.jpg,stim_02/b.jpg,2,1,j,5,38,338,15,j,1,0.566534518784,02,02,60.0234848939,PLT_learning_02,A,2014_Jan_27_1754,P01,
stim_fb/ques.jpg,stim_fb/negf.jpg,stim_fb/posf.jpg,stim_02/b.jpg,stim_02/a.jpg,1,1,f,5,39,339,2,f,1,0.58317762732,02,02,60.0234848939,PLT_learning_02,A,2014_Jan_27_1754,P01,
stim_fb/ques.jpg,stim_fb/negf.jpg,stim_fb/posf.jpg,stim_02/b.jpg,stim_02/a.jpg,1,1,f,5,40,340,0,f,1,0.49988672609,02,02,60.0234848939,PLT_learning_02,A,2014_Jan_27_1754,P01,
stim_fb/ques.jpg,stim_fb/posf.jpg,stim_fb/negf.jpg,stim_02/a.jpg,stim_02/b.jpg,2,1,j,5,41,341,18,j,1,0.449884541152,02,02,60.0234848939,PLT_learning_02,A,2014_Jan_27_1754,P01,
stim_fb/ques.jpg,stim_fb/negf.jpg,stim_fb/posf.jpg,stim_02/b.jpg,stim_02/a.jpg,1,1,f,5,42,342,6,f,1,0.566522236215,02,02,60.0234848939,PLT_learning_02,A,2014_Jan_27_1754,P01,
stim_fb/ques.jpg,stim_fb/negf.jpg,stim_fb/posf.jpg,stim_02/d.jpg,stim_02/c.jpg,1,2,f,5,43,343,23,j,0,1.04970581836,02,02,60.0234848939,PLT_learning_02,A,2014_Jan_27_1754,P01,
stim_fb/ques.jpg,stim_fb/posf.jpg,stim_fb/negf.jpg,stim_02/c.jpg,stim_02/d.jpg,2,2,j,5,44,344,37,f,0,0.783121883588,02,02,60.0234848939,PLT_learning_02,A,2014_Jan_27_1754,P01,
stim_fb/ques.jpg,stim_fb/negf.jpg,stim_fb/posf.jpg,stim_02/a.jpg,stim_02/b.jpg,2,1,j,5,45,345,17,j,1,0.949735923279,02,02,60.0234848939,PLT_learning_02,A,2014_Jan_27_1754,P01,
stim_fb/ques.jpg,stim_fb/negf.jpg,stim_fb/posf.jpg,stim_02/e.jpg,stim_02/f.jpg,2,3,j,5,46,346,51,j,1,0.88305581516,02,02,60.0234848939,PLT_learning_02,A,2014_Jan_27_1754,P01,
stim_fb/ques.jpg,stim_fb/posf.jpg,stim_fb/negf.jpg,stim_02/c.jpg,stim_02/d.jpg,2,2,j,5,47,347,38,f,0,1.2163621884,02,02,60.0234848939,PLT_learning_02,A,2014_Jan_27_1754,P01,
stim_fb/ques.jpg,stim_fb/negf.jpg,stim_fb/posf.jpg,stim_02/e.jpg,stim_02/f.jpg,2,3,j,5,48,348,50,j,1,1.39961106003,02,02,60.0234848939,PLT_learning_02,A,2014_Jan_27_1754,P01,
stim_fb/ques.jpg,stim_fb/negf.jpg,stim_fb/posf.jpg,stim_02/e.jpg,stim_02/f.jpg,2,3,j,5,49,349,52,j,1,1.26628011865,02,02,60.0234848939,PLT_learning_02,A,2014_Jan_27_1754,P01,
stim_fb/ques.jpg,stim_fb/negf.jpg,stim_fb/posf.jpg,stim_02/d.jpg,stim_02/c.jpg,1,2,f,5,50,350,24,f,1,0.866384749044,02,02,60.0234848939,PLT_learning_02,A,2014_Jan_27_1754,P01,
stim_fb/ques.jpg,stim_fb/negf.jpg,stim_fb/posf.jpg,stim_02/a.jpg,stim_02/b.jpg,2,1,j,5,51,351,13,j,1,0.599875381857,02,02,60.0234848939,PLT_learning_02,A,2014_Jan_27_1754,P01,
stim_fb/ques.jpg,stim_fb/negf.jpg,stim_fb/posf.jpg,stim_02/c.jpg,stim_02/d.jpg,2,2,j,5,52,352,35,j,1,1.03303222896,02,02,60.0234848939,PLT_learning_02,A,2014_Jan_27_1754,P01,
stim_fb/ques.jpg,stim_fb/negf.jpg,stim_fb/posf.jpg,stim_02/e.jpg,stim_02/f.jpg,2,3,j,5,53,353,53,f,0,0.849766945485,02,02,60.0234848939,PLT_learning_02,A,2014_Jan_27_1754,P01,
stim_fb/ques.jpg,stim_fb/negf.jpg,stim_fb/posf.jpg,stim_02/a.jpg,stim_02/b.jpg,2,1,j,5,54,354,10,j,1,0.516509507036,02,02,60.0234848939,PLT_learning_02,A,2014_Jan_27_1754,P01,
stim_fb/ques.jpg,stim_fb/negf.jpg,stim_fb/posf.jpg,stim_02/f.jpg,stim_02/e.jpg,1,3,f,5,55,355,43,f,1,1.41632008962,02,02,60.0234848939,PLT_learning_02,A,2014_Jan_27_1754,P01,
stim_fb/ques.jpg,stim_fb/negf.jpg,stim_fb/posf.jpg,stim_02/c.jpg,stim_02/d.jpg,2,2,j,5,56,356,36,j,1,1.19966443085,02,02,60.0234848939,PLT_learning_02,A,2014_Jan_27_1754,P01,
stim_fb/ques.jpg,stim_fb/posf.jpg,stim_fb/negf.jpg,stim_02/f.jpg,stim_02/e.jpg,1,3,f,5,57,357,46,j,0,1.38290313417,02,02,60.0234848939,PLT_learning_02,A,2014_Jan_27_1754,P01,
stim_fb/ques.jpg,stim_fb/negf.jpg,stim_fb/posf.jpg,stim_02/c.jpg,stim_02/d.jpg,2,2,j,5,58,358,30,f,0,1.18295387045,02,02,60.0234848939,PLT_learning_02,A,2014_Jan_27_1754,P01,
stim_fb/ques.jpg,stim_fb/negf.jpg,stim_fb/posf.jpg,stim_02/b.jpg,stim_02/a.jpg,1,1,f,5,59,359,4,f,1,1.04978596181,02,02,60.0234848939,PLT_learning_02,A,2014_Jan_27_1754,P01,
