Fb3,Fb2,Fb1,Symbol2,Symbol1,PosCond,Pair,Correct,trials.thisRepN,trials.thisTrialN,trials.thisN,trials.thisIndex,Response.keys,Response.corr,Response.rt,Version,Session Number,frameRate,expName,StimCondition,date,Participant,
stim_fb/ques.jpg,stim_fb/posf.jpg,stim_fb/negf.jpg,stim_03/e.jpg,stim_03/f.jpg,2,3,j,0,0,0,56,j,1,0.733142041255,03,03,60.023437218,PLT_learning_3,A,2014_Feb_06_1246,P02,
stim_fb/ques.jpg,stim_fb/negf.jpg,stim_fb/posf.jpg,stim_03/f.jpg,stim_03/e.jpg,1,3,f,0,1,1,43,j,0,0.766485099792,03,03,60.023437218,PLT_learning_3,A,2014_Feb_06_1246,P02,
stim_fb/ques.jpg,stim_fb/negf.jpg,stim_fb/posf.jpg,stim_03/d.jpg,stim_03/c.jpg,1,2,f,0,2,2,25,f,1,0.766449927256,03,03,60.023437218,PLT_learning_3,A,2014_Feb_06_1246,P02,
stim_fb/ques.jpg,stim_fb/negf.jpg,stim_fb/posf.jpg,stim_03/c.jpg,stim_03/d.jpg,2,2,j,0,3,3,36,j,1,0.699771987534,03,03,60.023437218,PLT_learning_3,A,2014_Feb_06_1246,P02,
stim_fb/ques.jpg,stim_fb/negf.jpg,stim_fb/posf.jpg,stim_03/a.jpg,stim_03/b.jpg,2,1,j,0,4,4,12,j,1,0.849749769739,03,03,60.023437218,PLT_learning_3,A,2014_Feb_06_1246,P02,
stim_fb/ques.jpg,stim_fb/posf.jpg,stim_fb/negf.jpg,stim_03/f.jpg,stim_03/e.jpg,1,3,f,0,5,5,48,f,1,1.13304233712,03,03,60.023437218,PLT_learning_3,A,2014_Feb_06_1246,P02,
stim_fb/ques.jpg,stim_fb/posf.jpg,stim_fb/negf.jpg,stim_03/a.jpg,stim_03/b.jpg,2,1,j,0,6,6,19,j,1,0.899757677921,03,03,60.023437218,PLT_learning_3,A,2014_Feb_06_1246,P02,
stim_fb/ques.jpg,stim_fb/negf.jpg,stim_fb/posf.jpg,stim_03/e.jpg,stim_03/f.jpg,2,3,j,0,7,7,55,f,0,1.19966940824,03,03,60.023437218,PLT_learning_3,A,2014_Feb_06_1246,P02,
stim_fb/ques.jpg,stim_fb/posf.jpg,stim_fb/negf.jpg,stim_03/b.jpg,stim_03/a.jpg,1,1,f,0,8,8,8,f,1,0.816476045758,03,03,60.023437218,PLT_learning_3,A,2014_Feb_06_1246,P02,
stim_fb/ques.jpg,stim_fb/posf.jpg,stim_fb/negf.jpg,stim_03/c.jpg,stim_03/d.jpg,2,2,j,0,9,9,38,j,1,0.899710953636,03,03,60.023437218,PLT_learning_3,A,2014_Feb_06_1246,P02,
stim_fb/ques.jpg,stim_fb/posf.jpg,stim_fb/negf.jpg,stim_03/a.jpg,stim_03/b.jpg,2,1,j,0,10,10,18,j,1,0.699813060755,03,03,60.023437218,PLT_learning_3,A,2014_Feb_06_1246,P02,
stim_fb/ques.jpg,stim_fb/negf.jpg,stim_fb/posf.jpg,stim_03/a.jpg,stim_03/b.jpg,2,1,j,0,11,11,16,f,0,0.74980486987,03,03,60.023437218,PLT_learning_3,A,2014_Feb_06_1246,P02,
stim_fb/ques.jpg,stim_fb/negf.jpg,stim_fb/posf.jpg,stim_03/d.jpg,stim_03/c.jpg,1,2,f,0,12,12,23,f,1,0.933062694782,03,03,60.023437218,PLT_learning_3,A,2014_Feb_06_1246,P02,
stim_fb/ques.jpg,stim_fb/posf.jpg,stim_fb/negf.jpg,stim_03/e.jpg,stim_03/f.jpg,2,3,j,0,13,13,59,j,1,0.999666325568,03,03,60.023437218,PLT_learning_3,A,2014_Feb_06_1246,P02,
stim_fb/ques.jpg,stim_fb/posf.jpg,stim_fb/negf.jpg,stim_03/d.jpg,stim_03/c.jpg,1,2,f,0,14,14,29,f,1,0.766421837348,03,03,60.023437218,PLT_learning_3,A,2014_Feb_06_1246,P02,
stim_fb/ques.jpg,stim_fb/negf.jpg,stim_fb/posf.jpg,stim_03/e.jpg,stim_03/f.jpg,2,3,j,0,15,15,53,f,0,0.783105664222,03,03,60.023437218,PLT_learning_3,A,2014_Feb_06_1246,P02,
stim_fb/ques.jpg,stim_fb/negf.jpg,stim_fb/posf.jpg,stim_03/b.jpg,stim_03/a.jpg,1,1,f,0,16,16,2,j,0,1.08300764427,03,03,60.023437218,PLT_learning_3,A,2014_Feb_06_1246,P02,
stim_fb/ques.jpg,stim_fb/negf.jpg,stim_fb/posf.jpg,stim_03/b.jpg,stim_03/a.jpg,1,1,f,0,17,17,7,f,1,0.616559274895,03,03,60.023437218,PLT_learning_3,A,2014_Feb_06_1246,P02,
stim_fb/ques.jpg,stim_fb/negf.jpg,stim_fb/posf.jpg,stim_03/f.jpg,stim_03/e.jpg,1,3,f,0,18,18,40,f,1,0.866485623094,03,03,60.023437218,PLT_learning_3,A,2014_Feb_06_1246,P02,
stim_fb/ques.jpg,stim_fb/negf.jpg,stim_fb/posf.jpg,stim_03/f.jpg,stim_03/e.jpg,1,3,f,0,19,19,45,f,1,0.666522606136,03,03,60.023437218,PLT_learning_3,A,2014_Feb_06_1246,P02,
stim_fb/ques.jpg,stim_fb/negf.jpg,stim_fb/posf.jpg,stim_03/a.jpg,stim_03/b.jpg,2,1,j,0,20,20,15,j,1,0.966386042262,03,03,60.023437218,PLT_learning_3,A,2014_Feb_06_1246,P02,
stim_fb/ques.jpg,stim_fb/negf.jpg,stim_fb/posf.jpg,stim_03/b.jpg,stim_03/a.jpg,1,1,f,0,21,21,3,f,1,0.533194227133,03,03,60.023437218,PLT_learning_3,A,2014_Feb_06_1246,P02,
stim_fb/ques.jpg,stim_fb/posf.jpg,stim_fb/negf.jpg,stim_03/c.jpg,stim_03/d.jpg,2,2,j,0,22,22,39,j,1,0.933082456965,03,03,60.023437218,PLT_learning_3,A,2014_Feb_06_1246,P02,
stim_fb/ques.jpg,stim_fb/posf.jpg,stim_fb/negf.jpg,stim_03/e.jpg,stim_03/f.jpg,2,3,j,0,23,23,57,j,1,0.599845445352,03,03,60.023437218,PLT_learning_3,A,2014_Feb_06_1246,P02,
stim_fb/ques.jpg,stim_fb/negf.jpg,stim_fb/posf.jpg,stim_03/b.jpg,stim_03/a.jpg,1,1,f,0,24,24,0,f,1,0.53319778198,03,03,60.023437218,PLT_learning_3,A,2014_Feb_06_1246,P02,
stim_fb/ques.jpg,stim_fb/negf.jpg,stim_fb/posf.jpg,stim_03/a.jpg,stim_03/b.jpg,2,1,j,0,25,25,17,j,1,1.13299091514,03,03,60.023437218,PLT_learning_3,A,2014_Feb_06_1246,P02,
stim_fb/ques.jpg,stim_fb/negf.jpg,stim_fb/posf.jpg,stim_03/a.jpg,stim_03/b.jpg,2,1,j,0,26,26,13,j,1,0.6498431341,03,03,60.023437218,PLT_learning_3,A,2014_Feb_06_1246,P02,
stim_fb/ques.jpg,stim_fb/negf.jpg,stim_fb/posf.jpg,stim_03/e.jpg,stim_03/f.jpg,2,3,j,0,27,27,51,f,0,0.883086476468,03,03,60.023437218,PLT_learning_3,A,2014_Feb_06_1246,P02,
stim_fb/ques.jpg,stim_fb/negf.jpg,stim_fb/posf.jpg,stim_03/a.jpg,stim_03/b.jpg,2,1,j,0,28,28,10,j,1,0.833111834077,03,03,60.023437218,PLT_learning_3,A,2014_Feb_06_1246,P02,
stim_fb/ques.jpg,stim_fb/negf.jpg,stim_fb/posf.jpg,stim_03/e.jpg,stim_03/f.jpg,2,3,j,0,29,29,52,j,1,0.799762411702,03,03,60.023437218,PLT_learning_3,A,2014_Feb_06_1246,P02,
stim_fb/ques.jpg,stim_fb/negf.jpg,stim_fb/posf.jpg,stim_03/f.jpg,stim_03/e.jpg,1,3,f,0,30,30,41,j,0,0.716485158438,03,03,60.023437218,PLT_learning_3,A,2014_Feb_06_1246,P02,
stim_fb/ques.jpg,stim_fb/posf.jpg,stim_fb/negf.jpg,stim_03/b.jpg,stim_03/a.jpg,1,1,f,0,31,31,9,f,1,0.649822069676,03,03,60.023437218,PLT_learning_3,A,2014_Feb_06_1246,P02,
stim_fb/ques.jpg,stim_fb/negf.jpg,stim_fb/posf.jpg,stim_03/e.jpg,stim_03/f.jpg,2,3,j,0,32,32,50,j,1,0.716452229486,03,03,60.023437218,PLT_learning_3,A,2014_Feb_06_1246,P02,
stim_fb/ques.jpg,stim_fb/posf.jpg,stim_fb/negf.jpg,stim_03/d.jpg,stim_03/c.jpg,1,2,f,0,33,33,28,f,1,0.749817390029,03,03,60.023437218,PLT_learning_3,A,2014_Feb_06_1246,P02,
stim_fb/ques.jpg,stim_fb/negf.jpg,stim_fb/posf.jpg,stim_03/d.jpg,stim_03/c.jpg,1,2,f,0,34,34,26,j,0,0.649827383902,03,03,60.023437218,PLT_learning_3,A,2014_Feb_06_1246,P02,
stim_fb/ques.jpg,stim_fb/negf.jpg,stim_fb/posf.jpg,stim_03/b.jpg,stim_03/a.jpg,1,1,f,0,35,35,4,j,0,0.733121680583,03,03,60.023437218,PLT_learning_3,A,2014_Feb_06_1246,P02,
stim_fb/ques.jpg,stim_fb/negf.jpg,stim_fb/posf.jpg,stim_03/d.jpg,stim_03/c.jpg,1,2,f,0,36,36,21,f,1,1.06637131461,03,03,60.023437218,PLT_learning_3,A,2014_Feb_06_1246,P02,
stim_fb/ques.jpg,stim_fb/posf.jpg,stim_fb/negf.jpg,stim_03/f.jpg,stim_03/e.jpg,1,3,f,0,37,37,47,f,1,0.816454467055,03,03,60.023437218,PLT_learning_3,A,2014_Feb_06_1246,P02,
stim_fb/ques.jpg,stim_fb/posf.jpg,stim_fb/negf.jpg,stim_03/d.jpg,stim_03/c.jpg,1,2,f,0,38,38,27,f,1,0.649811895355,03,03,60.023437218,PLT_learning_3,A,2014_Feb_06_1246,P02,
stim_fb/ques.jpg,stim_fb/negf.jpg,stim_fb/posf.jpg,stim_03/b.jpg,stim_03/a.jpg,1,1,f,0,39,39,1,f,1,0.633148585542,03,03,60.023437218,PLT_learning_3,A,2014_Feb_06_1246,P02,
stim_fb/ques.jpg,stim_fb/negf.jpg,stim_fb/posf.jpg,stim_03/a.jpg,stim_03/b.jpg,2,1,j,0,40,40,14,j,1,0.733119566321,03,03,60.023437218,PLT_learning_3,A,2014_Feb_06_1246,P02,
stim_fb/ques.jpg,stim_fb/negf.jpg,stim_fb/posf.jpg,stim_03/c.jpg,stim_03/d.jpg,2,2,j,0,41,41,34,f,0,1.01635317196,03,03,60.023437218,PLT_learning_3,A,2014_Feb_06_1246,P02,
stim_fb/ques.jpg,stim_fb/negf.jpg,stim_fb/posf.jpg,stim_03/d.jpg,stim_03/c.jpg,1,2,f,0,42,42,24,j,0,0.849767378563,03,03,60.023437218,PLT_learning_3,A,2014_Feb_06_1246,P02,
stim_fb/ques.jpg,stim_fb/negf.jpg,stim_fb/posf.jpg,stim_03/e.jpg,stim_03/f.jpg,2,3,j,0,43,43,54,j,1,0.749809994624,03,03,60.023437218,PLT_learning_3,A,2014_Feb_06_1246,P02,
stim_fb/ques.jpg,stim_fb/negf.jpg,stim_fb/posf.jpg,stim_03/c.jpg,stim_03/d.jpg,2,2,j,0,44,44,30,j,1,1.1829563035,03,03,60.023437218,PLT_learning_3,A,2014_Feb_06_1246,P02,
stim_fb/ques.jpg,stim_fb/posf.jpg,stim_fb/negf.jpg,stim_03/f.jpg,stim_03/e.jpg,1,3,f,0,45,45,46,f,1,0.516604678895,03,03,60.023437218,PLT_learning_3,A,2014_Feb_06_1246,P02,
stim_fb/ques.jpg,stim_fb/negf.jpg,stim_fb/posf.jpg,stim_03/b.jpg,stim_03/a.jpg,1,1,f,0,46,46,6,f,1,0.699816829133,03,03,60.023437218,PLT_learning_3,A,2014_Feb_06_1246,P02,
stim_fb/ques.jpg,stim_fb/negf.jpg,stim_fb/posf.jpg,stim_03/b.jpg,stim_03/a.jpg,1,1,f,0,47,47,5,f,1,0.583103853716,03,03,60.023437218,PLT_learning_3,A,2014_Feb_06_1246,P02,
stim_fb/ques.jpg,stim_fb/negf.jpg,stim_fb/posf.jpg,stim_03/c.jpg,stim_03/d.jpg,2,2,j,0,48,48,31,j,1,0.849763826724,03,03,60.023437218,PLT_learning_3,A,2014_Feb_06_1246,P02,
stim_fb/ques.jpg,stim_fb/posf.jpg,stim_fb/negf.jpg,stim_03/e.jpg,stim_03/f.jpg,2,3,j,0,49,49,58,j,1,0.73316382146,03,03,60.023437218,PLT_learning_3,A,2014_Feb_06_1246,P02,
stim_fb/ques.jpg,stim_fb/negf.jpg,stim_fb/posf.jpg,stim_03/c.jpg,stim_03/d.jpg,2,2,j,0,50,50,35,j,1,0.816456614399,03,03,60.023437218,PLT_learning_3,A,2014_Feb_06_1246,P02,
stim_fb/ques.jpg,stim_fb/posf.jpg,stim_fb/negf.jpg,stim_03/f.jpg,stim_03/e.jpg,1,3,f,0,51,51,49,f,1,0.899766219178,03,03,60.023437218,PLT_learning_3,A,2014_Feb_06_1246,P02,
stim_fb/ques.jpg,stim_fb/negf.jpg,stim_fb/posf.jpg,stim_03/f.jpg,stim_03/e.jpg,1,3,f,0,52,52,42,f,1,0.949721505396,03,03,60.023437218,PLT_learning_3,A,2014_Feb_06_1246,P02,
stim_fb/ques.jpg,stim_fb/negf.jpg,stim_fb/posf.jpg,stim_03/d.jpg,stim_03/c.jpg,1,2,f,0,53,53,22,f,1,0.833093329023,03,03,60.023437218,PLT_learning_3,A,2014_Feb_06_1246,P02,
stim_fb/ques.jpg,stim_fb/negf.jpg,stim_fb/posf.jpg,stim_03/f.jpg,stim_03/e.jpg,1,3,f,0,54,54,44,f,1,0.749811029199,03,03,60.023437218,PLT_learning_3,A,2014_Feb_06_1246,P02,
stim_fb/ques.jpg,stim_fb/negf.jpg,stim_fb/posf.jpg,stim_03/a.jpg,stim_03/b.jpg,2,1,j,0,55,55,11,j,1,0.766482726887,03,03,60.023437218,PLT_learning_3,A,2014_Feb_06_1246,P02,
stim_fb/ques.jpg,stim_fb/posf.jpg,stim_fb/negf.jpg,stim_03/c.jpg,stim_03/d.jpg,2,2,j,0,56,56,37,j,1,0.799837180783,03,03,60.023437218,PLT_learning_3,A,2014_Feb_06_1246,P02,
stim_fb/ques.jpg,stim_fb/negf.jpg,stim_fb/posf.jpg,stim_03/d.jpg,stim_03/c.jpg,1,2,f,0,57,57,20,f,1,0.633123563268,03,03,60.023437218,PLT_learning_3,A,2014_Feb_06_1246,P02,
stim_fb/ques.jpg,stim_fb/negf.jpg,stim_fb/posf.jpg,stim_03/c.jpg,stim_03/d.jpg,2,2,j,0,58,58,33,j,1,0.69984646489,03,03,60.023437218,PLT_learning_3,A,2014_Feb_06_1246,P02,
stim_fb/ques.jpg,stim_fb/negf.jpg,stim_fb/posf.jpg,stim_03/c.jpg,stim_03/d.jpg,2,2,j,0,59,59,32,j,1,0.616519789627,03,03,60.023437218,PLT_learning_3,A,2014_Feb_06_1246,P02,
stim_fb/ques.jpg,stim_fb/negf.jpg,stim_fb/posf.jpg,stim_03/f.jpg,stim_03/e.jpg,1,3,f,1,0,60,44,f,1,0.616498719187,03,03,60.023437218,PLT_learning_3,A,2014_Feb_06_1246,P02,
stim_fb/ques.jpg,stim_fb/posf.jpg,stim_fb/negf.jpg,stim_03/c.jpg,stim_03/d.jpg,2,2,j,1,1,61,39,j,1,0.633149587034,03,03,60.023437218,PLT_learning_3,A,2014_Feb_06_1246,P02,
stim_fb/ques.jpg,stim_fb/posf.jpg,stim_fb/negf.jpg,stim_03/b.jpg,stim_03/a.jpg,1,1,f,1,2,62,8,f,1,0.633196028617,03,03,60.023437218,PLT_learning_3,A,2014_Feb_06_1246,P02,
stim_fb/ques.jpg,stim_fb/negf.jpg,stim_fb/posf.jpg,stim_03/a.jpg,stim_03/b.jpg,2,1,j,1,3,63,15,j,1,0.783127949685,03,03,60.023437218,PLT_learning_3,A,2014_Feb_06_1246,P02,
stim_fb/ques.jpg,stim_fb/negf.jpg,stim_fb/posf.jpg,stim_03/f.jpg,stim_03/e.jpg,1,3,f,1,4,64,42,f,1,0.749785161821,03,03,60.023437218,PLT_learning_3,A,2014_Feb_06_1246,P02,
stim_fb/ques.jpg,stim_fb/posf.jpg,stim_fb/negf.jpg,stim_03/e.jpg,stim_03/f.jpg,2,3,j,1,5,65,56,j,1,0.633161087657,03,03,60.023437218,PLT_learning_3,A,2014_Feb_06_1246,P02,
stim_fb/ques.jpg,stim_fb/negf.jpg,stim_fb/posf.jpg,stim_03/b.jpg,stim_03/a.jpg,1,1,f,1,6,66,7,f,1,0.633178867908,03,03,60.023437218,PLT_learning_3,A,2014_Feb_06_1246,P02,
stim_fb/ques.jpg,stim_fb/negf.jpg,stim_fb/posf.jpg,stim_03/a.jpg,stim_03/b.jpg,2,1,j,1,7,67,14,j,1,0.649808051789,03,03,60.023437218,PLT_learning_3,A,2014_Feb_06_1246,P02,
stim_fb/ques.jpg,stim_fb/posf.jpg,stim_fb/negf.jpg,stim_03/c.jpg,stim_03/d.jpg,2,2,j,1,8,68,38,j,1,0.716489841092,03,03,60.023437218,PLT_learning_3,A,2014_Feb_06_1246,P02,
stim_fb/ques.jpg,stim_fb/negf.jpg,stim_fb/posf.jpg,stim_03/b.jpg,stim_03/a.jpg,1,1,f,1,9,69,4,f,1,0.533214004353,03,03,60.023437218,PLT_learning_3,A,2014_Feb_06_1246,P02,
stim_fb/ques.jpg,stim_fb/negf.jpg,stim_fb/posf.jpg,stim_03/c.jpg,stim_03/d.jpg,2,2,j,1,10,70,35,j,1,0.58312055428,03,03,60.023437218,PLT_learning_3,A,2014_Feb_06_1246,P02,
stim_fb/ques.jpg,stim_fb/negf.jpg,stim_fb/posf.jpg,stim_03/d.jpg,stim_03/c.jpg,1,2,f,1,11,71,23,f,1,0.66650785743,03,03,60.023437218,PLT_learning_3,A,2014_Feb_06_1246,P02,
stim_fb/ques.jpg,stim_fb/negf.jpg,stim_fb/posf.jpg,stim_03/e.jpg,stim_03/f.jpg,2,3,j,1,12,72,51,j,1,0.666480314883,03,03,60.023437218,PLT_learning_3,A,2014_Feb_06_1246,P02,
stim_fb/ques.jpg,stim_fb/negf.jpg,stim_fb/posf.jpg,stim_03/b.jpg,stim_03/a.jpg,1,1,f,1,13,73,0,f,1,0.666502849968,03,03,60.023437218,PLT_learning_3,A,2014_Feb_06_1246,P02,
stim_fb/ques.jpg,stim_fb/negf.jpg,stim_fb/posf.jpg,stim_03/f.jpg,stim_03/e.jpg,1,3,f,1,14,74,41,f,1,0.599857754988,03,03,60.023437218,PLT_learning_3,A,2014_Feb_06_1246,P02,
stim_fb/ques.jpg,stim_fb/posf.jpg,stim_fb/negf.jpg,stim_03/e.jpg,stim_03/f.jpg,2,3,j,1,15,75,58,j,1,0.533210260035,03,03,60.023437218,PLT_learning_3,A,2014_Feb_06_1246,P02,
stim_fb/ques.jpg,stim_fb/negf.jpg,stim_fb/posf.jpg,stim_03/d.jpg,stim_03/c.jpg,1,2,f,1,16,76,21,f,1,0.583226766615,03,03,60.023437218,PLT_learning_3,A,2014_Feb_06_1246,P02,
stim_fb/ques.jpg,stim_fb/negf.jpg,stim_fb/posf.jpg,stim_03/c.jpg,stim_03/d.jpg,2,2,j,1,17,77,36,j,1,0.633181809228,03,03,60.023437218,PLT_learning_3,A,2014_Feb_06_1246,P02,
stim_fb/ques.jpg,stim_fb/negf.jpg,stim_fb/posf.jpg,stim_03/c.jpg,stim_03/d.jpg,2,2,j,1,18,78,30,j,1,0.583182210727,03,03,60.023437218,PLT_learning_3,A,2014_Feb_06_1246,P02,
stim_fb/ques.jpg,stim_fb/posf.jpg,stim_fb/negf.jpg,stim_03/f.jpg,stim_03/e.jpg,1,3,f,1,19,79,46,f,1,0.649881335173,03,03,60.023437218,PLT_learning_3,A,2014_Feb_06_1246,P02,
stim_fb/ques.jpg,stim_fb/negf.jpg,stim_fb/posf.jpg,stim_03/f.jpg,stim_03/e.jpg,1,3,f,1,20,80,45,f,1,0.616513266392,03,03,60.023437218,PLT_learning_3,A,2014_Feb_06_1246,P02,
stim_fb/ques.jpg,stim_fb/negf.jpg,stim_fb/posf.jpg,stim_03/e.jpg,stim_03/f.jpg,2,3,j,1,21,81,54,j,1,0.583165053025,03,03,60.023437218,PLT_learning_3,A,2014_Feb_06_1246,P02,
stim_fb/ques.jpg,stim_fb/negf.jpg,stim_fb/posf.jpg,stim_03/b.jpg,stim_03/a.jpg,1,1,f,1,22,82,3,f,1,0.549876014932,03,03,60.023437218,PLT_learning_3,A,2014_Feb_06_1246,P02,
stim_fb/ques.jpg,stim_fb/posf.jpg,stim_fb/negf.jpg,stim_03/e.jpg,stim_03/f.jpg,2,3,j,1,23,83,59,j,1,0.566538642046,03,03,60.023437218,PLT_learning_3,A,2014_Feb_06_1246,P02,
stim_fb/ques.jpg,stim_fb/negf.jpg,stim_fb/posf.jpg,stim_03/d.jpg,stim_03/c.jpg,1,2,f,1,24,84,20,f,1,0.599855661778,03,03,60.023437218,PLT_learning_3,A,2014_Feb_06_1246,P02,
stim_fb/ques.jpg,stim_fb/posf.jpg,stim_fb/negf.jpg,stim_03/a.jpg,stim_03/b.jpg,2,1,j,1,25,85,19,j,1,0.583167266535,03,03,60.023437218,PLT_learning_3,A,2014_Feb_06_1246,P02,
stim_fb/ques.jpg,stim_fb/negf.jpg,stim_fb/posf.jpg,stim_03/b.jpg,stim_03/a.jpg,1,1,f,1,26,86,6,f,1,0.599846323538,03,03,60.023437218,PLT_learning_3,A,2014_Feb_06_1246,P02,
stim_fb/ques.jpg,stim_fb/negf.jpg,stim_fb/posf.jpg,stim_03/b.jpg,stim_03/a.jpg,1,1,f,1,27,87,2,f,1,0.599853953527,03,03,60.023437218,PLT_learning_3,A,2014_Feb_06_1246,P02,
stim_fb/ques.jpg,stim_fb/negf.jpg,stim_fb/posf.jpg,stim_03/d.jpg,stim_03/c.jpg,1,2,f,1,28,88,26,f,1,0.616423992211,03,03,60.023437218,PLT_learning_3,A,2014_Feb_06_1246,P02,
stim_fb/ques.jpg,stim_fb/negf.jpg,stim_fb/posf.jpg,stim_03/b.jpg,stim_03/a.jpg,1,1,f,1,29,89,5,f,1,0.483219461435,03,03,60.023437218,PLT_learning_3,A,2014_Feb_06_1246,P02,
stim_fb/ques.jpg,stim_fb/negf.jpg,stim_fb/posf.jpg,stim_03/a.jpg,stim_03/b.jpg,2,1,j,1,30,90,12,j,1,0.733128149683,03,03,60.023437218,PLT_learning_3,A,2014_Feb_06_1246,P02,
stim_fb/ques.jpg,stim_fb/negf.jpg,stim_fb/posf.jpg,stim_03/a.jpg,stim_03/b.jpg,2,1,j,1,31,91,11,j,1,0.76651927685,03,03,60.023437218,PLT_learning_3,A,2014_Feb_06_1246,P02,
stim_fb/ques.jpg,stim_fb/negf.jpg,stim_fb/posf.jpg,stim_03/d.jpg,stim_03/c.jpg,1,2,f,1,32,92,24,f,1,0.533213150228,03,03,60.023437218,PLT_learning_3,A,2014_Feb_06_1246,P02,
stim_fb/ques.jpg,stim_fb/negf.jpg,stim_fb/posf.jpg,stim_03/c.jpg,stim_03/d.jpg,2,2,j,1,33,93,31,j,1,0.549872093172,03,03,60.023437218,PLT_learning_3,A,2014_Feb_06_1246,P02,
stim_fb/ques.jpg,stim_fb/negf.jpg,stim_fb/posf.jpg,stim_03/a.jpg,stim_03/b.jpg,2,1,j,1,34,94,16,j,1,0.549859416623,03,03,60.023437218,PLT_learning_3,A,2014_Feb_06_1246,P02,
stim_fb/ques.jpg,stim_fb/negf.jpg,stim_fb/posf.jpg,stim_03/d.jpg,stim_03/c.jpg,1,2,f,1,35,95,25,f,1,0.649847254354,03,03,60.023437218,PLT_learning_3,A,2014_Feb_06_1246,P02,
stim_fb/ques.jpg,stim_fb/posf.jpg,stim_fb/negf.jpg,stim_03/d.jpg,stim_03/c.jpg,1,2,f,1,36,96,29,f,1,0.516543172821,03,03,60.023437218,PLT_learning_3,A,2014_Feb_06_1246,P02,
stim_fb/ques.jpg,stim_fb/posf.jpg,stim_fb/negf.jpg,stim_03/d.jpg,stim_03/c.jpg,1,2,f,1,37,97,28,f,1,0.549857019658,03,03,60.023437218,PLT_learning_3,A,2014_Feb_06_1246,P02,
stim_fb/ques.jpg,stim_fb/posf.jpg,stim_fb/negf.jpg,stim_03/f.jpg,stim_03/e.jpg,1,3,f,1,38,98,49,f,1,0.799779361887,03,03,60.023437218,PLT_learning_3,A,2014_Feb_06_1246,P02,
stim_fb/ques.jpg,stim_fb/negf.jpg,stim_fb/posf.jpg,stim_03/a.jpg,stim_03/b.jpg,2,1,j,1,39,99,10,j,1,0.533209511171,03,03,60.023437218,PLT_learning_3,A,2014_Feb_06_1246,P02,
stim_fb/ques.jpg,stim_fb/negf.jpg,stim_fb/posf.jpg,stim_03/a.jpg,stim_03/b.jpg,2,1,j,1,40,100,13,j,1,0.566538263102,03,03,60.023437218,PLT_learning_3,A,2014_Feb_06_1246,P02,
stim_fb/ques.jpg,stim_fb/negf.jpg,stim_fb/posf.jpg,stim_03/f.jpg,stim_03/e.jpg,1,3,f,1,41,101,43,f,1,0.599850260335,03,03,60.023437218,PLT_learning_3,A,2014_Feb_06_1246,P02,
stim_fb/ques.jpg,stim_fb/negf.jpg,stim_fb/posf.jpg,stim_03/c.jpg,stim_03/d.jpg,2,2,j,1,42,102,34,j,1,0.749887918557,03,03,60.023437218,PLT_learning_3,A,2014_Feb_06_1246,P02,
stim_fb/ques.jpg,stim_fb/negf.jpg,stim_fb/posf.jpg,stim_03/f.jpg,stim_03/e.jpg,1,3,f,1,43,103,40,f,1,0.666516795675,03,03,60.023437218,PLT_learning_3,A,2014_Feb_06_1246,P02,
stim_fb/ques.jpg,stim_fb/negf.jpg,stim_fb/posf.jpg,stim_03/a.jpg,stim_03/b.jpg,2,1,j,1,44,104,17,j,1,0.666536344327,03,03,60.023437218,PLT_learning_3,A,2014_Feb_06_1246,P02,
stim_fb/ques.jpg,stim_fb/negf.jpg,stim_fb/posf.jpg,stim_03/e.jpg,stim_03/f.jpg,2,3,j,1,45,105,50,j,1,0.866407702169,03,03,60.023437218,PLT_learning_3,A,2014_Feb_06_1246,P02,
stim_fb/ques.jpg,stim_fb/posf.jpg,stim_fb/negf.jpg,stim_03/d.jpg,stim_03/c.jpg,1,2,f,1,46,106,27,f,1,0.583129152679,03,03,60.023437218,PLT_learning_3,A,2014_Feb_06_1246,P02,
stim_fb/ques.jpg,stim_fb/negf.jpg,stim_fb/posf.jpg,stim_03/e.jpg,stim_03/f.jpg,2,3,j,1,47,107,55,j,1,0.583173973226,03,03,60.023437218,PLT_learning_3,A,2014_Feb_06_1246,P02,
stim_fb/ques.jpg,stim_fb/posf.jpg,stim_fb/negf.jpg,stim_03/f.jpg,stim_03/e.jpg,1,3,f,1,48,108,48,f,1,0.399923624921,03,03,60.023437218,PLT_learning_3,A,2014_Feb_06_1246,P02,
stim_fb/ques.jpg,stim_fb/negf.jpg,stim_fb/posf.jpg,stim_03/c.jpg,stim_03/d.jpg,2,2,j,1,49,109,33,j,1,0.599855508397,03,03,60.023437218,PLT_learning_3,A,2014_Feb_06_1246,P02,
stim_fb/ques.jpg,stim_fb/negf.jpg,stim_fb/posf.jpg,stim_03/b.jpg,stim_03/a.jpg,1,1,f,1,50,110,1,f,1,0.516553831348,03,03,60.023437218,PLT_learning_3,A,2014_Feb_06_1246,P02,
stim_fb/ques.jpg,stim_fb/posf.jpg,stim_fb/negf.jpg,stim_03/c.jpg,stim_03/d.jpg,2,2,j,1,51,111,37,j,1,0.533197252662,03,03,60.023437218,PLT_learning_3,A,2014_Feb_06_1246,P02,
stim_fb/ques.jpg,stim_fb/posf.jpg,stim_fb/negf.jpg,stim_03/a.jpg,stim_03/b.jpg,2,1,j,1,52,112,18,j,1,0.699821878701,03,03,60.023437218,PLT_learning_3,A,2014_Feb_06_1246,P02,
stim_fb/ques.jpg,stim_fb/posf.jpg,stim_fb/negf.jpg,stim_03/f.jpg,stim_03/e.jpg,1,3,f,1,53,113,47,f,1,0.616508791254,03,03,60.023437218,PLT_learning_3,A,2014_Feb_06_1246,P02,
stim_fb/ques.jpg,stim_fb/posf.jpg,stim_fb/negf.jpg,stim_03/b.jpg,stim_03/a.jpg,1,1,f,1,54,114,9,f,1,0.516555798243,03,03,60.023437218,PLT_learning_3,A,2014_Feb_06_1246,P02,
stim_fb/ques.jpg,stim_fb/posf.jpg,stim_fb/negf.jpg,stim_03/e.jpg,stim_03/f.jpg,2,3,j,1,55,115,57,j,1,0.516523711387,03,03,60.023437218,PLT_learning_3,A,2014_Feb_06_1246,P02,
stim_fb/ques.jpg,stim_fb/negf.jpg,stim_fb/posf.jpg,stim_03/e.jpg,stim_03/f.jpg,2,3,j,1,56,116,53,j,1,0.849765180092,03,03,60.023437218,PLT_learning_3,A,2014_Feb_06_1246,P02,
stim_fb/ques.jpg,stim_fb/negf.jpg,stim_fb/posf.jpg,stim_03/e.jpg,stim_03/f.jpg,2,3,j,1,57,117,52,j,1,0.649843573193,03,03,60.023437218,PLT_learning_3,A,2014_Feb_06_1246,P02,
stim_fb/ques.jpg,stim_fb/negf.jpg,stim_fb/posf.jpg,stim_03/c.jpg,stim_03/d.jpg,2,2,j,1,58,118,32,j,1,0.64982471927,03,03,60.023437218,PLT_learning_3,A,2014_Feb_06_1246,P02,
stim_fb/ques.jpg,stim_fb/negf.jpg,stim_fb/posf.jpg,stim_03/d.jpg,stim_03/c.jpg,1,2,f,1,59,119,22,f,1,0.533198037616,03,03,60.023437218,PLT_learning_3,A,2014_Feb_06_1246,P02,
stim_fb/ques.jpg,stim_fb/negf.jpg,stim_fb/posf.jpg,stim_03/d.jpg,stim_03/c.jpg,1,2,f,2,0,120,26,j,0,1.28294068864,03,03,60.023437218,PLT_learning_3,A,2014_Feb_06_1246,P02,
stim_fb/ques.jpg,stim_fb/negf.jpg,stim_fb/posf.jpg,stim_03/a.jpg,stim_03/b.jpg,2,1,j,2,1,121,13,j,1,1.03304991598,03,03,60.023437218,PLT_learning_3,A,2014_Feb_06_1246,P02,
stim_fb/ques.jpg,stim_fb/negf.jpg,stim_fb/posf.jpg,stim_03/d.jpg,stim_03/c.jpg,1,2,f,2,2,122,24,f,1,0.533214028413,03,03,60.023437218,PLT_learning_3,A,2014_Feb_06_1246,P02,
stim_fb/ques.jpg,stim_fb/negf.jpg,stim_fb/posf.jpg,stim_03/f.jpg,stim_03/e.jpg,1,3,f,2,3,123,45,f,1,0.599869848084,03,03,60.023437218,PLT_learning_3,A,2014_Feb_06_1246,P02,
stim_fb/ques.jpg,stim_fb/posf.jpg,stim_fb/negf.jpg,stim_03/e.jpg,stim_03/f.jpg,2,3,j,2,4,124,59,j,1,0.566523764018,03,03,60.023437218,PLT_learning_3,A,2014_Feb_06_1246,P02,
stim_fb/ques.jpg,stim_fb/negf.jpg,stim_fb/posf.jpg,stim_03/b.jpg,stim_03/a.jpg,1,1,f,2,5,125,5,f,1,0.699850612211,03,03,60.023437218,PLT_learning_3,A,2014_Feb_06_1246,P02,
stim_fb/ques.jpg,stim_fb/negf.jpg,stim_fb/posf.jpg,stim_03/b.jpg,stim_03/a.jpg,1,1,f,2,6,126,2,f,1,0.583204872125,03,03,60.023437218,PLT_learning_3,A,2014_Feb_06_1246,P02,
stim_fb/ques.jpg,stim_fb/negf.jpg,stim_fb/posf.jpg,stim_03/e.jpg,stim_03/f.jpg,2,3,j,2,7,127,52,j,1,0.533139154069,03,03,60.023437218,PLT_learning_3,A,2014_Feb_06_1246,P02,
stim_fb/ques.jpg,stim_fb/negf.jpg,stim_fb/posf.jpg,stim_03/b.jpg,stim_03/a.jpg,1,1,f,2,8,128,0,f,1,0.666497280106,03,03,60.023437218,PLT_learning_3,A,2014_Feb_06_1246,P02,
stim_fb/ques.jpg,stim_fb/negf.jpg,stim_fb/posf.jpg,stim_03/f.jpg,stim_03/e.jpg,1,3,f,2,9,129,40,f,1,0.599912070165,03,03,60.023437218,PLT_learning_3,A,2014_Feb_06_1246,P02,
stim_fb/ques.jpg,stim_fb/posf.jpg,stim_fb/negf.jpg,stim_03/f.jpg,stim_03/e.jpg,1,3,f,2,10,130,49,f,1,0.616658437687,03,03,60.023437218,PLT_learning_3,A,2014_Feb_06_1246,P02,
stim_fb/ques.jpg,stim_fb/posf.jpg,stim_fb/negf.jpg,stim_03/f.jpg,stim_03/e.jpg,1,3,f,2,11,131,46,f,1,0.733129358691,03,03,60.023437218,PLT_learning_3,A,2014_Feb_06_1246,P02,
stim_fb/ques.jpg,stim_fb/negf.jpg,stim_fb/posf.jpg,stim_03/a.jpg,stim_03/b.jpg,2,1,j,2,12,132,17,j,1,0.816451627989,03,03,60.023437218,PLT_learning_3,A,2014_Feb_06_1246,P02,
stim_fb/ques.jpg,stim_fb/posf.jpg,stim_fb/negf.jpg,stim_03/e.jpg,stim_03/f.jpg,2,3,j,2,13,133,58,j,1,0.816415932151,03,03,60.023437218,PLT_learning_3,A,2014_Feb_06_1246,P02,
stim_fb/ques.jpg,stim_fb/negf.jpg,stim_fb/posf.jpg,stim_03/d.jpg,stim_03/c.jpg,1,2,f,2,14,134,23,f,1,0.766503045455,03,03,60.023437218,PLT_learning_3,A,2014_Feb_06_1246,P02,
stim_fb/ques.jpg,stim_fb/negf.jpg,stim_fb/posf.jpg,stim_03/d.jpg,stim_03/c.jpg,1,2,f,2,15,135,22,f,1,0.699835271031,03,03,60.023437218,PLT_learning_3,A,2014_Feb_06_1246,P02,
stim_fb/ques.jpg,stim_fb/negf.jpg,stim_fb/posf.jpg,stim_03/e.jpg,stim_03/f.jpg,2,3,j,2,16,136,51,j,1,0.749771339421,03,03,60.023437218,PLT_learning_3,A,2014_Feb_06_1246,P02,
stim_fb/ques.jpg,stim_fb/posf.jpg,stim_fb/negf.jpg,stim_03/e.jpg,stim_03/f.jpg,2,3,j,2,17,137,57,j,1,0.666500711646,03,03,60.023437218,PLT_learning_3,A,2014_Feb_06_1246,P02,
stim_fb/ques.jpg,stim_fb/negf.jpg,stim_fb/posf.jpg,stim_03/a.jpg,stim_03/b.jpg,2,1,j,2,18,138,16,j,1,0.733156907253,03,03,60.023437218,PLT_learning_3,A,2014_Feb_06_1246,P02,
stim_fb/ques.jpg,stim_fb/negf.jpg,stim_fb/posf.jpg,stim_03/b.jpg,stim_03/a.jpg,1,1,f,2,19,139,6,f,1,0.616488626069,03,03,60.023437218,PLT_learning_3,A,2014_Feb_06_1246,P02,
stim_fb/ques.jpg,stim_fb/posf.jpg,stim_fb/negf.jpg,stim_03/a.jpg,stim_03/b.jpg,2,1,j,2,20,140,19,j,1,0.799796736127,03,03,60.023437218,PLT_learning_3,A,2014_Feb_06_1246,P02,
stim_fb/ques.jpg,stim_fb/negf.jpg,stim_fb/posf.jpg,stim_03/c.jpg,stim_03/d.jpg,2,2,j,2,21,141,35,j,1,0.933076881088,03,03,60.023437218,PLT_learning_3,A,2014_Feb_06_1246,P02,
stim_fb/ques.jpg,stim_fb/negf.jpg,stim_fb/posf.jpg,stim_03/e.jpg,stim_03/f.jpg,2,3,j,2,22,142,53,j,1,0.649811155513,03,03,60.023437218,PLT_learning_3,A,2014_Feb_06_1246,P02,
stim_fb/ques.jpg,stim_fb/posf.jpg,stim_fb/negf.jpg,stim_03/f.jpg,stim_03/e.jpg,1,3,f,2,23,143,47,f,1,0.583188899373,03,03,60.023437218,PLT_learning_3,A,2014_Feb_06_1246,P02,
stim_fb/ques.jpg,stim_fb/negf.jpg,stim_fb/posf.jpg,stim_03/f.jpg,stim_03/e.jpg,1,3,f,2,24,144,41,f,1,0.533202762375,03,03,60.023437218,PLT_learning_3,A,2014_Feb_06_1246,P02,
stim_fb/ques.jpg,stim_fb/negf.jpg,stim_fb/posf.jpg,stim_03/f.jpg,stim_03/e.jpg,1,3,f,2,25,145,44,f,1,0.533184410702,03,03,60.023437218,PLT_learning_3,A,2014_Feb_06_1246,P02,
stim_fb/ques.jpg,stim_fb/posf.jpg,stim_fb/negf.jpg,stim_03/c.jpg,stim_03/d.jpg,2,2,j,2,26,146,37,j,1,0.583154647128,03,03,60.023437218,PLT_learning_3,A,2014_Feb_06_1246,P02,
stim_fb/ques.jpg,stim_fb/posf.jpg,stim_fb/negf.jpg,stim_03/d.jpg,stim_03/c.jpg,1,2,f,2,27,147,29,f,1,0.716470716496,03,03,60.023437218,PLT_learning_3,A,2014_Feb_06_1246,P02,
stim_fb/ques.jpg,stim_fb/negf.jpg,stim_fb/posf.jpg,stim_03/c.jpg,stim_03/d.jpg,2,2,j,2,28,148,33,j,1,0.633180937057,03,03,60.023437218,PLT_learning_3,A,2014_Feb_06_1246,P02,
stim_fb/ques.jpg,stim_fb/negf.jpg,stim_fb/posf.jpg,stim_03/f.jpg,stim_03/e.jpg,1,3,f,2,29,149,43,f,1,0.516594408334,03,03,60.023437218,PLT_learning_3,A,2014_Feb_06_1246,P02,
stim_fb/ques.jpg,stim_fb/negf.jpg,stim_fb/posf.jpg,stim_03/a.jpg,stim_03/b.jpg,2,1,j,2,30,150,11,j,1,0.583188601632,03,03,60.023437218,PLT_learning_3,A,2014_Feb_06_1246,P02,
stim_fb/ques.jpg,stim_fb/posf.jpg,stim_fb/negf.jpg,stim_03/e.jpg,stim_03/f.jpg,2,3,j,2,31,151,56,j,1,0.633137665364,03,03,60.023437218,PLT_learning_3,A,2014_Feb_06_1246,P02,
stim_fb/ques.jpg,stim_fb/negf.jpg,stim_fb/posf.jpg,stim_03/c.jpg,stim_03/d.jpg,2,2,j,2,32,152,31,j,1,0.59987869009,03,03,60.023437218,PLT_learning_3,A,2014_Feb_06_1246,P02,
stim_fb/ques.jpg,stim_fb/negf.jpg,stim_fb/posf.jpg,stim_03/a.jpg,stim_03/b.jpg,2,1,j,2,33,153,12,j,1,0.516550625369,03,03,60.023437218,PLT_learning_3,A,2014_Feb_06_1246,P02,
stim_fb/ques.jpg,stim_fb/negf.jpg,stim_fb/posf.jpg,stim_03/a.jpg,stim_03/b.jpg,2,1,j,2,34,154,10,j,1,0.933052315951,03,03,60.023437218,PLT_learning_3,A,2014_Feb_06_1246,P02,
stim_fb/ques.jpg,stim_fb/negf.jpg,stim_fb/posf.jpg,stim_03/d.jpg,stim_03/c.jpg,1,2,f,2,35,155,25,f,1,0.59983648004,03,03,60.023437218,PLT_learning_3,A,2014_Feb_06_1246,P02,
stim_fb/ques.jpg,stim_fb/negf.jpg,stim_fb/posf.jpg,stim_03/b.jpg,stim_03/a.jpg,1,1,f,2,36,156,3,f,1,0.699800838336,03,03,60.023437218,PLT_learning_3,A,2014_Feb_06_1246,P02,
stim_fb/ques.jpg,stim_fb/posf.jpg,stim_fb/negf.jpg,stim_03/f.jpg,stim_03/e.jpg,1,3,f,2,37,157,48,f,1,0.583251470096,03,03,60.023437218,PLT_learning_3,A,2014_Feb_06_1246,P02,
stim_fb/ques.jpg,stim_fb/posf.jpg,stim_fb/negf.jpg,stim_03/a.jpg,stim_03/b.jpg,2,1,j,2,38,158,18,j,1,0.599815605087,03,03,60.023437218,PLT_learning_3,A,2014_Feb_06_1246,P02,
stim_fb/ques.jpg,stim_fb/negf.jpg,stim_fb/posf.jpg,stim_03/c.jpg,stim_03/d.jpg,2,2,j,2,39,159,30,j,1,0.799772721361,03,03,60.023437218,PLT_learning_3,A,2014_Feb_06_1246,P02,
stim_fb/ques.jpg,stim_fb/negf.jpg,stim_fb/posf.jpg,stim_03/f.jpg,stim_03/e.jpg,1,3,f,2,40,160,42,f,1,0.583227894422,03,03,60.023437218,PLT_learning_3,A,2014_Feb_06_1246,P02,
stim_fb/ques.jpg,stim_fb/posf.jpg,stim_fb/negf.jpg,stim_03/b.jpg,stim_03/a.jpg,1,1,f,2,41,161,8,f,1,0.649845013778,03,03,60.023437218,PLT_learning_3,A,2014_Feb_06_1246,P02,
stim_fb/ques.jpg,stim_fb/negf.jpg,stim_fb/posf.jpg,stim_03/d.jpg,stim_03/c.jpg,1,2,f,2,42,162,20,f,1,0.749797576719,03,03,60.023437218,PLT_learning_3,A,2014_Feb_06_1246,P02,
stim_fb/ques.jpg,stim_fb/posf.jpg,stim_fb/negf.jpg,stim_03/c.jpg,stim_03/d.jpg,2,2,j,2,43,163,39,j,1,0.916407454051,03,03,60.023437218,PLT_learning_3,A,2014_Feb_06_1246,P02,
stim_fb/ques.jpg,stim_fb/negf.jpg,stim_fb/posf.jpg,stim_03/e.jpg,stim_03/f.jpg,2,3,j,2,44,164,55,j,1,0.883104187546,03,03,60.023437218,PLT_learning_3,A,2014_Feb_06_1246,P02,
stim_fb/ques.jpg,stim_fb/posf.jpg,stim_fb/negf.jpg,stim_03/d.jpg,stim_03/c.jpg,1,2,f,2,45,165,28,f,1,0.899770561986,03,03,60.023437218,PLT_learning_3,A,2014_Feb_06_1246,P02,
stim_fb/ques.jpg,stim_fb/negf.jpg,stim_fb/posf.jpg,stim_03/d.jpg,stim_03/c.jpg,1,2,f,2,46,166,21,f,1,1.16634401266,03,03,60.023437218,PLT_learning_3,A,2014_Feb_06_1246,P02,
stim_fb/ques.jpg,stim_fb/negf.jpg,stim_fb/posf.jpg,stim_03/c.jpg,stim_03/d.jpg,2,2,j,2,47,167,32,j,1,0.816444972425,03,03,60.023437218,PLT_learning_3,A,2014_Feb_06_1246,P02,
stim_fb/ques.jpg,stim_fb/negf.jpg,stim_fb/posf.jpg,stim_03/e.jpg,stim_03/f.jpg,2,3,j,2,48,168,50,j,1,0.899759765116,03,03,60.023437218,PLT_learning_3,A,2014_Feb_06_1246,P02,
stim_fb/ques.jpg,stim_fb/negf.jpg,stim_fb/posf.jpg,stim_03/a.jpg,stim_03/b.jpg,2,1,j,2,49,169,15,j,1,1.04973550524,03,03,60.023437218,PLT_learning_3,A,2014_Feb_06_1246,P02,
stim_fb/ques.jpg,stim_fb/posf.jpg,stim_fb/negf.jpg,stim_03/b.jpg,stim_03/a.jpg,1,1,f,2,50,170,9,f,1,0.633169559742,03,03,60.023437218,PLT_learning_3,A,2014_Feb_06_1246,P02,
stim_fb/ques.jpg,stim_fb/negf.jpg,stim_fb/posf.jpg,stim_03/b.jpg,stim_03/a.jpg,1,1,f,2,51,171,1,f,1,0.666488636594,03,03,60.023437218,PLT_learning_3,A,2014_Feb_06_1246,P02,
stim_fb/ques.jpg,stim_fb/posf.jpg,stim_fb/negf.jpg,stim_03/c.jpg,stim_03/d.jpg,2,2,j,2,52,172,38,j,1,0.583192794066,03,03,60.023437218,PLT_learning_3,A,2014_Feb_06_1246,P02,
stim_fb/ques.jpg,stim_fb/posf.jpg,stim_fb/negf.jpg,stim_03/d.jpg,stim_03/c.jpg,1,2,f,2,53,173,27,f,1,0.799793830897,03,03,60.023437218,PLT_learning_3,A,2014_Feb_06_1246,P02,
stim_fb/ques.jpg,stim_fb/negf.jpg,stim_fb/posf.jpg,stim_03/a.jpg,stim_03/b.jpg,2,1,j,2,54,174,14,f,0,0.699816149442,03,03,60.023437218,PLT_learning_3,A,2014_Feb_06_1246,P02,
stim_fb/ques.jpg,stim_fb/negf.jpg,stim_fb/posf.jpg,stim_03/e.jpg,stim_03/f.jpg,2,3,j,2,55,175,54,j,1,0.666511036341,03,03,60.023437218,PLT_learning_3,A,2014_Feb_06_1246,P02,
stim_fb/ques.jpg,stim_fb/negf.jpg,stim_fb/posf.jpg,stim_03/b.jpg,stim_03/a.jpg,1,1,f,2,56,176,7,f,1,0.533146928418,03,03,60.023437218,PLT_learning_3,A,2014_Feb_06_1246,P02,
stim_fb/ques.jpg,stim_fb/negf.jpg,stim_fb/posf.jpg,stim_03/c.jpg,stim_03/d.jpg,2,2,j,2,57,177,36,j,1,0.683117895663,03,03,60.023437218,PLT_learning_3,A,2014_Feb_06_1246,P02,
stim_fb/ques.jpg,stim_fb/negf.jpg,stim_fb/posf.jpg,stim_03/c.jpg,stim_03/d.jpg,2,2,j,2,58,178,34,j,1,0.649789724176,03,03,60.023437218,PLT_learning_3,A,2014_Feb_06_1246,P02,
stim_fb/ques.jpg,stim_fb/negf.jpg,stim_fb/posf.jpg,stim_03/b.jpg,stim_03/a.jpg,1,1,f,2,59,179,4,f,1,0.666484940396,03,03,60.023437218,PLT_learning_3,A,2014_Feb_06_1246,P02,
stim_fb/ques.jpg,stim_fb/negf.jpg,stim_fb/posf.jpg,stim_03/a.jpg,stim_03/b.jpg,2,1,j,3,0,180,13,j,1,0.883089492976,03,03,60.023437218,PLT_learning_3,A,2014_Feb_06_1246,P02,
stim_fb/ques.jpg,stim_fb/negf.jpg,stim_fb/posf.jpg,stim_03/a.jpg,stim_03/b.jpg,2,1,j,3,1,181,11,j,1,0.733144387093,03,03,60.023437218,PLT_learning_3,A,2014_Feb_06_1246,P02,
stim_fb/ques.jpg,stim_fb/posf.jpg,stim_fb/negf.jpg,stim_03/e.jpg,stim_03/f.jpg,2,3,j,3,2,182,58,j,1,0.666489057642,03,03,60.023437218,PLT_learning_3,A,2014_Feb_06_1246,P02,
stim_fb/ques.jpg,stim_fb/negf.jpg,stim_fb/posf.jpg,stim_03/e.jpg,stim_03/f.jpg,2,3,j,3,3,183,54,f,0,0.633170359733,03,03,60.023437218,PLT_learning_3,A,2014_Feb_06_1246,P02,
stim_fb/ques.jpg,stim_fb/negf.jpg,stim_fb/posf.jpg,stim_03/d.jpg,stim_03/c.jpg,1,2,f,3,4,184,24,f,1,0.699798465431,03,03,60.023437218,PLT_learning_3,A,2014_Feb_06_1246,P02,
stim_fb/ques.jpg,stim_fb/negf.jpg,stim_fb/posf.jpg,stim_03/d.jpg,stim_03/c.jpg,1,2,f,3,5,185,21,f,1,0.61652214148,03,03,60.023437218,PLT_learning_3,A,2014_Feb_06_1246,P02,
stim_fb/ques.jpg,stim_fb/negf.jpg,stim_fb/posf.jpg,stim_03/c.jpg,stim_03/d.jpg,2,2,j,3,6,186,35,j,1,0.633041735619,03,03,60.023437218,PLT_learning_3,A,2014_Feb_06_1246,P02,
stim_fb/ques.jpg,stim_fb/negf.jpg,stim_fb/posf.jpg,stim_03/b.jpg,stim_03/a.jpg,1,1,f,3,7,187,3,f,1,0.833110453641,03,03,60.023437218,PLT_learning_3,A,2014_Feb_06_1246,P02,
stim_fb/ques.jpg,stim_fb/negf.jpg,stim_fb/posf.jpg,stim_03/a.jpg,stim_03/b.jpg,2,1,j,3,8,188,17,f,0,0.816457799348,03,03,60.023437218,PLT_learning_3,A,2014_Feb_06_1246,P02,
stim_fb/ques.jpg,stim_fb/negf.jpg,stim_fb/posf.jpg,stim_03/d.jpg,stim_03/c.jpg,1,2,f,3,9,189,22,f,1,0.616504274012,03,03,60.023437218,PLT_learning_3,A,2014_Feb_06_1246,P02,
stim_fb/ques.jpg,stim_fb/negf.jpg,stim_fb/posf.jpg,stim_03/c.jpg,stim_03/d.jpg,2,2,j,3,10,190,31,j,1,0.783121300136,03,03,60.023437218,PLT_learning_3,A,2014_Feb_06_1246,P02,
stim_fb/ques.jpg,stim_fb/negf.jpg,stim_fb/posf.jpg,stim_03/c.jpg,stim_03/d.jpg,2,2,j,3,11,191,34,j,1,0.616535317271,03,03,60.023437218,PLT_learning_3,A,2014_Feb_06_1246,P02,
stim_fb/ques.jpg,stim_fb/negf.jpg,stim_fb/posf.jpg,stim_03/a.jpg,stim_03/b.jpg,2,1,j,3,12,192,16,j,1,0.933081485547,03,03,60.023437218,PLT_learning_3,A,2014_Feb_06_1246,P02,
stim_fb/ques.jpg,stim_fb/negf.jpg,stim_fb/posf.jpg,stim_03/f.jpg,stim_03/e.jpg,1,3,f,3,13,193,41,f,1,0.966388150509,03,03,60.023437218,PLT_learning_3,A,2014_Feb_06_1246,P02,
stim_fb/ques.jpg,stim_fb/posf.jpg,stim_fb/negf.jpg,stim_03/d.jpg,stim_03/c.jpg,1,2,f,3,14,194,28,f,1,0.683154767427,03,03,60.023437218,PLT_learning_3,A,2014_Feb_06_1246,P02,
stim_fb/ques.jpg,stim_fb/posf.jpg,stim_fb/negf.jpg,stim_03/f.jpg,stim_03/e.jpg,1,3,f,3,15,195,46,f,1,0.783096202674,03,03,60.023437218,PLT_learning_3,A,2014_Feb_06_1246,P02,
stim_fb/ques.jpg,stim_fb/negf.jpg,stim_fb/posf.jpg,stim_03/c.jpg,stim_03/d.jpg,2,2,j,3,16,196,32,j,1,0.616491777912,03,03,60.023437218,PLT_learning_3,A,2014_Feb_06_1246,P02,
stim_fb/ques.jpg,stim_fb/posf.jpg,stim_fb/negf.jpg,stim_03/a.jpg,stim_03/b.jpg,2,1,j,3,17,197,19,f,0,0.749845016785,03,03,60.023437218,PLT_learning_3,A,2014_Feb_06_1246,P02,
stim_fb/ques.jpg,stim_fb/negf.jpg,stim_fb/posf.jpg,stim_03/b.jpg,stim_03/a.jpg,1,1,f,3,18,198,5,f,1,0.699787882092,03,03,60.023437218,PLT_learning_3,A,2014_Feb_06_1246,P02,
stim_fb/ques.jpg,stim_fb/negf.jpg,stim_fb/posf.jpg,stim_03/b.jpg,stim_03/a.jpg,1,1,f,3,19,199,2,f,1,0.733122134713,03,03,60.023437218,PLT_learning_3,A,2014_Feb_06_1246,P02,
stim_fb/ques.jpg,stim_fb/posf.jpg,stim_fb/negf.jpg,stim_03/b.jpg,stim_03/a.jpg,1,1,f,3,20,200,8,f,1,0.716478027691,03,03,60.023437218,PLT_learning_3,A,2014_Feb_06_1246,P02,
stim_fb/ques.jpg,stim_fb/negf.jpg,stim_fb/posf.jpg,stim_03/e.jpg,stim_03/f.jpg,2,3,j,3,21,201,52,j,1,1.19965270768,03,03,60.023437218,PLT_learning_3,A,2014_Feb_06_1246,P02,
stim_fb/ques.jpg,stim_fb/posf.jpg,stim_fb/negf.jpg,stim_03/f.jpg,stim_03/e.jpg,1,3,f,3,22,202,48,f,1,0.549857762507,03,03,60.023437218,PLT_learning_3,A,2014_Feb_06_1246,P02,
stim_fb/ques.jpg,stim_fb/negf.jpg,stim_fb/posf.jpg,stim_03/a.jpg,stim_03/b.jpg,2,1,j,3,23,203,15,j,1,0.583174270967,03,03,60.023437218,PLT_learning_3,A,2014_Feb_06_1246,P02,
stim_fb/ques.jpg,stim_fb/posf.jpg,stim_fb/negf.jpg,stim_03/d.jpg,stim_03/c.jpg,1,2,f,3,24,204,29,f,1,0.583193025643,03,03,60.023437218,PLT_learning_3,A,2014_Feb_06_1246,P02,
stim_fb/ques.jpg,stim_fb/negf.jpg,stim_fb/posf.jpg,stim_03/b.jpg,stim_03/a.jpg,1,1,f,3,25,205,4,f,1,0.949724164013,03,03,60.023437218,PLT_learning_3,A,2014_Feb_06_1246,P02,
stim_fb/ques.jpg,stim_fb/negf.jpg,stim_fb/posf.jpg,stim_03/e.jpg,stim_03/f.jpg,2,3,j,3,26,206,51,j,1,0.933056210644,03,03,60.023437218,PLT_learning_3,A,2014_Feb_06_1246,P02,
stim_fb/ques.jpg,stim_fb/posf.jpg,stim_fb/negf.jpg,stim_03/e.jpg,stim_03/f.jpg,2,3,j,3,27,207,56,j,1,0.916416094555,03,03,60.023437218,PLT_learning_3,A,2014_Feb_06_1246,P02,
stim_fb/ques.jpg,stim_fb/posf.jpg,stim_fb/negf.jpg,stim_03/b.jpg,stim_03/a.jpg,1,1,f,3,28,208,9,f,1,0.716476487859,03,03,60.023437218,PLT_learning_3,A,2014_Feb_06_1246,P02,
stim_fb/ques.jpg,stim_fb/negf.jpg,stim_fb/posf.jpg,stim_03/f.jpg,stim_03/e.jpg,1,3,f,3,29,209,44,f,1,0.766465409788,03,03,60.023437218,PLT_learning_3,A,2014_Feb_06_1246,P02,
stim_fb/ques.jpg,stim_fb/posf.jpg,stim_fb/negf.jpg,stim_03/d.jpg,stim_03/c.jpg,1,2,f,3,30,210,27,f,1,0.566528927869,03,03,60.023437218,PLT_learning_3,A,2014_Feb_06_1246,P02,
stim_fb/ques.jpg,stim_fb/negf.jpg,stim_fb/posf.jpg,stim_03/f.jpg,stim_03/e.jpg,1,3,f,3,31,211,40,j,0,0.999681182543,03,03,60.023437218,PLT_learning_3,A,2014_Feb_06_1246,P02,
stim_fb/ques.jpg,stim_fb/negf.jpg,stim_fb/posf.jpg,stim_03/e.jpg,stim_03/f.jpg,2,3,j,3,32,212,50,j,1,0.949725760987,03,03,60.023437218,PLT_learning_3,A,2014_Feb_06_1246,P02,
stim_fb/ques.jpg,stim_fb/negf.jpg,stim_fb/posf.jpg,stim_03/a.jpg,stim_03/b.jpg,2,1,j,3,33,213,12,j,1,0.849780379921,03,03,60.023437218,PLT_learning_3,A,2014_Feb_06_1246,P02,
stim_fb/ques.jpg,stim_fb/negf.jpg,stim_fb/posf.jpg,stim_03/c.jpg,stim_03/d.jpg,2,2,j,3,34,214,30,j,1,0.799784531753,03,03,60.023437218,PLT_learning_3,A,2014_Feb_06_1246,P02,
stim_fb/ques.jpg,stim_fb/negf.jpg,stim_fb/posf.jpg,stim_03/f.jpg,stim_03/e.jpg,1,3,f,3,35,215,42,f,1,0.666477938971,03,03,60.023437218,PLT_learning_3,A,2014_Feb_06_1246,P02,
stim_fb/ques.jpg,stim_fb/negf.jpg,stim_fb/posf.jpg,stim_03/d.jpg,stim_03/c.jpg,1,2,f,3,36,216,26,j,0,0.749815832152,03,03,60.023437218,PLT_learning_3,A,2014_Feb_06_1246,P02,
stim_fb/ques.jpg,stim_fb/negf.jpg,stim_fb/posf.jpg,stim_03/e.jpg,stim_03/f.jpg,2,3,j,3,37,217,55,j,1,1.04973819694,03,03,60.023437218,PLT_learning_3,A,2014_Feb_06_1246,P02,
stim_fb/ques.jpg,stim_fb/negf.jpg,stim_fb/posf.jpg,stim_03/f.jpg,stim_03/e.jpg,1,3,f,3,38,218,43,f,1,0.783133672929,03,03,60.023437218,PLT_learning_3,A,2014_Feb_06_1246,P02,
stim_fb/ques.jpg,stim_fb/posf.jpg,stim_fb/negf.jpg,stim_03/c.jpg,stim_03/d.jpg,2,2,j,3,39,219,37,j,1,0.649834950733,03,03,60.023437218,PLT_learning_3,A,2014_Feb_06_1246,P02,
stim_fb/ques.jpg,stim_fb/negf.jpg,stim_fb/posf.jpg,stim_03/a.jpg,stim_03/b.jpg,2,1,j,3,40,220,10,j,1,0.833103190566,03,03,60.023437218,PLT_learning_3,A,2014_Feb_06_1246,P02,
stim_fb/ques.jpg,stim_fb/negf.jpg,stim_fb/posf.jpg,stim_03/f.jpg,stim_03/e.jpg,1,3,f,3,41,221,45,f,1,0.766466333087,03,03,60.023437218,PLT_learning_3,A,2014_Feb_06_1246,P02,
stim_fb/ques.jpg,stim_fb/posf.jpg,stim_fb/negf.jpg,stim_03/a.jpg,stim_03/b.jpg,2,1,j,3,42,222,18,j,1,1.23298621444,03,03,60.023437218,PLT_learning_3,A,2014_Feb_06_1246,P02,
stim_fb/ques.jpg,stim_fb/posf.jpg,stim_fb/negf.jpg,stim_03/f.jpg,stim_03/e.jpg,1,3,f,3,43,223,49,f,1,0.683217259956,03,03,60.023437218,PLT_learning_3,A,2014_Feb_06_1246,P02,
stim_fb/ques.jpg,stim_fb/negf.jpg,stim_fb/posf.jpg,stim_03/e.jpg,stim_03/f.jpg,2,3,j,3,44,224,53,f,0,0.999721991105,03,03,60.023437218,PLT_learning_3,A,2014_Feb_06_1246,P02,
stim_fb/ques.jpg,stim_fb/negf.jpg,stim_fb/posf.jpg,stim_03/d.jpg,stim_03/c.jpg,1,2,f,3,45,225,25,f,1,0.716448449078,03,03,60.023437218,PLT_learning_3,A,2014_Feb_06_1246,P02,
stim_fb/ques.jpg,stim_fb/negf.jpg,stim_fb/posf.jpg,stim_03/c.jpg,stim_03/d.jpg,2,2,j,3,46,226,33,j,1,0.69985429638,03,03,60.023437218,PLT_learning_3,A,2014_Feb_06_1246,P02,
stim_fb/ques.jpg,stim_fb/posf.jpg,stim_fb/negf.jpg,stim_03/e.jpg,stim_03/f.jpg,2,3,j,3,47,227,57,None,0,,03,03,60.023437218,PLT_learning_3,A,2014_Feb_06_1246,P02,
stim_fb/ques.jpg,stim_fb/negf.jpg,stim_fb/posf.jpg,stim_03/b.jpg,stim_03/a.jpg,1,1,f,3,48,228,1,f,1,0.816449543802,03,03,60.023437218,PLT_learning_3,A,2014_Feb_06_1246,P02,
stim_fb/ques.jpg,stim_fb/posf.jpg,stim_fb/negf.jpg,stim_03/c.jpg,stim_03/d.jpg,2,2,j,3,49,229,38,j,1,0.683186727969,03,03,60.023437218,PLT_learning_3,A,2014_Feb_06_1246,P02,
stim_fb/ques.jpg,stim_fb/negf.jpg,stim_fb/posf.jpg,stim_03/c.jpg,stim_03/d.jpg,2,2,j,3,50,230,36,j,1,0.566539475119,03,03,60.023437218,PLT_learning_3,A,2014_Feb_06_1246,P02,
stim_fb/ques.jpg,stim_fb/negf.jpg,stim_fb/posf.jpg,stim_03/b.jpg,stim_03/a.jpg,1,1,f,3,51,231,6,f,1,0.66649701244,03,03,60.023437218,PLT_learning_3,A,2014_Feb_06_1246,P02,
stim_fb/ques.jpg,stim_fb/posf.jpg,stim_fb/negf.jpg,stim_03/f.jpg,stim_03/e.jpg,1,3,f,3,52,232,47,j,0,0.56652439559,03,03,60.023437218,PLT_learning_3,A,2014_Feb_06_1246,P02,
stim_fb/ques.jpg,stim_fb/posf.jpg,stim_fb/negf.jpg,stim_03/e.jpg,stim_03/f.jpg,2,3,j,3,53,233,59,j,1,0.599840104059,03,03,60.023437218,PLT_learning_3,A,2014_Feb_06_1246,P02,
stim_fb/ques.jpg,stim_fb/posf.jpg,stim_fb/negf.jpg,stim_03/c.jpg,stim_03/d.jpg,2,2,j,3,54,234,39,j,1,0.583183870859,03,03,60.023437218,PLT_learning_3,A,2014_Feb_06_1246,P02,
stim_fb/ques.jpg,stim_fb/negf.jpg,stim_fb/posf.jpg,stim_03/d.jpg,stim_03/c.jpg,1,2,f,3,55,235,20,f,1,0.583191179047,03,03,60.023437218,PLT_learning_3,A,2014_Feb_06_1246,P02,
stim_fb/ques.jpg,stim_fb/negf.jpg,stim_fb/posf.jpg,stim_03/d.jpg,stim_03/c.jpg,1,2,f,3,56,236,23,f,1,0.516563025229,03,03,60.023437218,PLT_learning_3,A,2014_Feb_06_1246,P02,
stim_fb/ques.jpg,stim_fb/negf.jpg,stim_fb/posf.jpg,stim_03/b.jpg,stim_03/a.jpg,1,1,f,3,57,237,0,f,1,0.699803229287,03,03,60.023437218,PLT_learning_3,A,2014_Feb_06_1246,P02,
stim_fb/ques.jpg,stim_fb/negf.jpg,stim_fb/posf.jpg,stim_03/a.jpg,stim_03/b.jpg,2,1,j,3,58,238,14,j,1,0.916377186723,03,03,60.023437218,PLT_learning_3,A,2014_Feb_06_1246,P02,
stim_fb/ques.jpg,stim_fb/negf.jpg,stim_fb/posf.jpg,stim_03/b.jpg,stim_03/a.jpg,1,1,f,3,59,239,7,f,1,0.566547757732,03,03,60.023437218,PLT_learning_3,A,2014_Feb_06_1246,P02,
stim_fb/ques.jpg,stim_fb/negf.jpg,stim_fb/posf.jpg,stim_03/d.jpg,stim_03/c.jpg,1,2,f,4,0,240,20,f,1,0.783105676252,03,03,60.023437218,PLT_learning_3,A,2014_Feb_06_1246,P02,
stim_fb/ques.jpg,stim_fb/negf.jpg,stim_fb/posf.jpg,stim_03/c.jpg,stim_03/d.jpg,2,2,j,4,1,241,33,j,1,0.549871651071,03,03,60.023437218,PLT_learning_3,A,2014_Feb_06_1246,P02,
stim_fb/ques.jpg,stim_fb/negf.jpg,stim_fb/posf.jpg,stim_03/e.jpg,stim_03/f.jpg,2,3,j,4,2,242,54,j,1,0.6831469209,03,03,60.023437218,PLT_learning_3,A,2014_Feb_06_1246,P02,
stim_fb/ques.jpg,stim_fb/posf.jpg,stim_fb/negf.jpg,stim_03/b.jpg,stim_03/a.jpg,1,1,f,4,3,243,9,f,1,0.516518141525,03,03,60.023437218,PLT_learning_3,A,2014_Feb_06_1246,P02,
stim_fb/ques.jpg,stim_fb/negf.jpg,stim_fb/posf.jpg,stim_03/a.jpg,stim_03/b.jpg,2,1,j,4,4,244,12,j,1,0.716476051774,03,03,60.023437218,PLT_learning_3,A,2014_Feb_06_1246,P02,
stim_fb/ques.jpg,stim_fb/negf.jpg,stim_fb/posf.jpg,stim_03/d.jpg,stim_03/c.jpg,1,2,f,4,5,245,24,f,1,0.566524988064,03,03,60.023437218,PLT_learning_3,A,2014_Feb_06_1246,P02,
stim_fb/ques.jpg,stim_fb/negf.jpg,stim_fb/posf.jpg,stim_03/a.jpg,stim_03/b.jpg,2,1,j,4,6,246,14,j,1,0.533204013489,03,03,60.023437218,PLT_learning_3,A,2014_Feb_06_1246,P02,
stim_fb/ques.jpg,stim_fb/negf.jpg,stim_fb/posf.jpg,stim_03/b.jpg,stim_03/a.jpg,1,1,f,4,7,247,6,f,1,0.549903581538,03,03,60.023437218,PLT_learning_3,A,2014_Feb_06_1246,P02,
stim_fb/ques.jpg,stim_fb/negf.jpg,stim_fb/posf.jpg,stim_03/f.jpg,stim_03/e.jpg,1,3,f,4,8,248,45,f,1,0.599885483999,03,03,60.023437218,PLT_learning_3,A,2014_Feb_06_1246,P02,
stim_fb/ques.jpg,stim_fb/posf.jpg,stim_fb/negf.jpg,stim_03/c.jpg,stim_03/d.jpg,2,2,j,4,9,249,37,j,1,0.633182452829,03,03,60.023437218,PLT_learning_3,A,2014_Feb_06_1246,P02,
stim_fb/ques.jpg,stim_fb/negf.jpg,stim_fb/posf.jpg,stim_03/f.jpg,stim_03/e.jpg,1,3,f,4,10,250,43,f,1,0.53320280448,03,03,60.023437218,PLT_learning_3,A,2014_Feb_06_1246,P02,
stim_fb/ques.jpg,stim_fb/negf.jpg,stim_fb/posf.jpg,stim_03/b.jpg,stim_03/a.jpg,1,1,f,4,11,251,5,f,1,0.716476641241,03,03,60.023437218,PLT_learning_3,A,2014_Feb_06_1246,P02,
stim_fb/ques.jpg,stim_fb/negf.jpg,stim_fb/posf.jpg,stim_03/e.jpg,stim_03/f.jpg,2,3,j,4,12,252,51,j,1,0.716473552554,03,03,60.023437218,PLT_learning_3,A,2014_Feb_06_1246,P02,
stim_fb/ques.jpg,stim_fb/negf.jpg,stim_fb/posf.jpg,stim_03/a.jpg,stim_03/b.jpg,2,1,j,4,13,253,17,j,1,0.816423643342,03,03,60.023437218,PLT_learning_3,A,2014_Feb_06_1246,P02,
stim_fb/ques.jpg,stim_fb/negf.jpg,stim_fb/posf.jpg,stim_03/f.jpg,stim_03/e.jpg,1,3,f,4,14,254,40,f,1,0.699826362861,03,03,60.023437218,PLT_learning_3,A,2014_Feb_06_1246,P02,
stim_fb/ques.jpg,stim_fb/negf.jpg,stim_fb/posf.jpg,stim_03/a.jpg,stim_03/b.jpg,2,1,j,4,15,255,10,j,1,0.699831376338,03,03,60.023437218,PLT_learning_3,A,2014_Feb_06_1246,P02,
stim_fb/ques.jpg,stim_fb/posf.jpg,stim_fb/negf.jpg,stim_03/f.jpg,stim_03/e.jpg,1,3,f,4,16,256,46,f,1,0.816446452108,03,03,60.023437218,PLT_learning_3,A,2014_Feb_06_1246,P02,
stim_fb/ques.jpg,stim_fb/negf.jpg,stim_fb/posf.jpg,stim_03/d.jpg,stim_03/c.jpg,1,2,f,4,17,257,23,f,1,0.633159716244,03,03,60.023437218,PLT_learning_3,A,2014_Feb_06_1246,P02,
stim_fb/ques.jpg,stim_fb/negf.jpg,stim_fb/posf.jpg,stim_03/d.jpg,stim_03/c.jpg,1,2,f,4,18,258,25,f,1,0.666496320718,03,03,60.023437218,PLT_learning_3,A,2014_Feb_06_1246,P02,
stim_fb/ques.jpg,stim_fb/negf.jpg,stim_fb/posf.jpg,stim_03/b.jpg,stim_03/a.jpg,1,1,f,4,19,259,0,f,1,0.666489274181,03,03,60.023437218,PLT_learning_3,A,2014_Feb_06_1246,P02,
stim_fb/ques.jpg,stim_fb/negf.jpg,stim_fb/posf.jpg,stim_03/c.jpg,stim_03/d.jpg,2,2,j,4,20,260,35,j,1,0.899819217076,03,03,60.023437218,PLT_learning_3,A,2014_Feb_06_1246,P02,
stim_fb/ques.jpg,stim_fb/posf.jpg,stim_fb/negf.jpg,stim_03/e.jpg,stim_03/f.jpg,2,3,j,4,21,261,58,j,1,0.616478358515,03,03,60.023437218,PLT_learning_3,A,2014_Feb_06_1246,P02,
stim_fb/ques.jpg,stim_fb/posf.jpg,stim_fb/negf.jpg,stim_03/e.jpg,stim_03/f.jpg,2,3,j,4,22,262,56,j,1,0.716468286448,03,03,60.023437218,PLT_learning_3,A,2014_Feb_06_1246,P02,
stim_fb/ques.jpg,stim_fb/negf.jpg,stim_fb/posf.jpg,stim_03/f.jpg,stim_03/e.jpg,1,3,f,4,23,263,42,f,1,0.499891510998,03,03,60.023437218,PLT_learning_3,A,2014_Feb_06_1246,P02,
stim_fb/ques.jpg,stim_fb/negf.jpg,stim_fb/posf.jpg,stim_03/d.jpg,stim_03/c.jpg,1,2,f,4,24,264,26,f,1,0.616540099172,03,03,60.023437218,PLT_learning_3,A,2014_Feb_06_1246,P02,
stim_fb/ques.jpg,stim_fb/negf.jpg,stim_fb/posf.jpg,stim_03/f.jpg,stim_03/e.jpg,1,3,f,4,25,265,41,f,1,0.616510502513,03,03,60.023437218,PLT_learning_3,A,2014_Feb_06_1246,P02,
stim_fb/ques.jpg,stim_fb/negf.jpg,stim_fb/posf.jpg,stim_03/d.jpg,stim_03/c.jpg,1,2,f,4,26,266,22,f,1,0.766461256452,03,03,60.023437218,PLT_learning_3,A,2014_Feb_06_1246,P02,
stim_fb/ques.jpg,stim_fb/negf.jpg,stim_fb/posf.jpg,stim_03/a.jpg,stim_03/b.jpg,2,1,j,4,27,267,16,j,1,0.81650164547,03,03,60.023437218,PLT_learning_3,A,2014_Feb_06_1246,P02,
stim_fb/ques.jpg,stim_fb/negf.jpg,stim_fb/posf.jpg,stim_03/c.jpg,stim_03/d.jpg,2,2,j,4,28,268,32,j,1,0.816403108236,03,03,60.023437218,PLT_learning_3,A,2014_Feb_06_1246,P02,
stim_fb/ques.jpg,stim_fb/negf.jpg,stim_fb/posf.jpg,stim_03/a.jpg,stim_03/b.jpg,2,1,j,4,29,269,15,j,1,0.766478663774,03,03,60.023437218,PLT_learning_3,A,2014_Feb_06_1246,P02,
stim_fb/ques.jpg,stim_fb/negf.jpg,stim_fb/posf.jpg,stim_03/c.jpg,stim_03/d.jpg,2,2,j,4,30,270,36,j,1,0.649860406086,03,03,60.023437218,PLT_learning_3,A,2014_Feb_06_1246,P02,
stim_fb/ques.jpg,stim_fb/posf.jpg,stim_fb/negf.jpg,stim_03/a.jpg,stim_03/b.jpg,2,1,j,4,31,271,18,j,1,0.699830347778,03,03,60.023437218,PLT_learning_3,A,2014_Feb_06_1246,P02,
stim_fb/ques.jpg,stim_fb/negf.jpg,stim_fb/posf.jpg,stim_03/a.jpg,stim_03/b.jpg,2,1,j,4,32,272,11,j,1,0.666492227531,03,03,60.023437218,PLT_learning_3,A,2014_Feb_06_1246,P02,
stim_fb/ques.jpg,stim_fb/negf.jpg,stim_fb/posf.jpg,stim_03/b.jpg,stim_03/a.jpg,1,1,f,4,33,273,7,f,1,0.499858936929,03,03,60.023437218,PLT_learning_3,A,2014_Feb_06_1246,P02,
stim_fb/ques.jpg,stim_fb/negf.jpg,stim_fb/posf.jpg,stim_03/b.jpg,stim_03/a.jpg,1,1,f,4,34,274,2,f,1,0.666493039552,03,03,60.023437218,PLT_learning_3,A,2014_Feb_06_1246,P02,
stim_fb/ques.jpg,stim_fb/posf.jpg,stim_fb/negf.jpg,stim_03/e.jpg,stim_03/f.jpg,2,3,j,4,35,275,59,j,1,0.583192649707,03,03,60.023437218,PLT_learning_3,A,2014_Feb_06_1246,P02,
stim_fb/ques.jpg,stim_fb/negf.jpg,stim_fb/posf.jpg,stim_03/d.jpg,stim_03/c.jpg,1,2,f,4,36,276,21,f,1,0.683161898174,03,03,60.023437218,PLT_learning_3,A,2014_Feb_06_1246,P02,
stim_fb/ques.jpg,stim_fb/negf.jpg,stim_fb/posf.jpg,stim_03/a.jpg,stim_03/b.jpg,2,1,j,4,37,277,13,j,1,0.583183452818,03,03,60.023437218,PLT_learning_3,A,2014_Feb_06_1246,P02,
stim_fb/ques.jpg,stim_fb/posf.jpg,stim_fb/negf.jpg,stim_03/f.jpg,stim_03/e.jpg,1,3,f,4,38,278,49,f,1,0.749788379831,03,03,60.023437218,PLT_learning_3,A,2014_Feb_06_1246,P02,
stim_fb/ques.jpg,stim_fb/posf.jpg,stim_fb/negf.jpg,stim_03/e.jpg,stim_03/f.jpg,2,3,j,4,39,279,57,j,1,0.966365504149,03,03,60.023437218,PLT_learning_3,A,2014_Feb_06_1246,P02,
stim_fb/ques.jpg,stim_fb/negf.jpg,stim_fb/posf.jpg,stim_03/e.jpg,stim_03/f.jpg,2,3,j,4,40,280,53,j,1,0.949719529479,03,03,60.023437218,PLT_learning_3,A,2014_Feb_06_1246,P02,
stim_fb/ques.jpg,stim_fb/negf.jpg,stim_fb/posf.jpg,stim_03/e.jpg,stim_03/f.jpg,2,3,j,4,41,281,55,j,1,0.566528245171,03,03,60.023437218,PLT_learning_3,A,2014_Feb_06_1246,P02,
stim_fb/ques.jpg,stim_fb/posf.jpg,stim_fb/negf.jpg,stim_03/c.jpg,stim_03/d.jpg,2,2,j,4,42,282,38,j,1,0.849775104792,03,03,60.023437218,PLT_learning_3,A,2014_Feb_06_1246,P02,
stim_fb/ques.jpg,stim_fb/posf.jpg,stim_fb/negf.jpg,stim_03/c.jpg,stim_03/d.jpg,2,2,j,4,43,283,39,j,1,0.649833446991,03,03,60.023437218,PLT_learning_3,A,2014_Feb_06_1246,P02,
stim_fb/ques.jpg,stim_fb/posf.jpg,stim_fb/negf.jpg,stim_03/d.jpg,stim_03/c.jpg,1,2,f,4,44,284,29,f,1,0.666456618911,03,03,60.023437218,PLT_learning_3,A,2014_Feb_06_1246,P02,
stim_fb/ques.jpg,stim_fb/negf.jpg,stim_fb/posf.jpg,stim_03/f.jpg,stim_03/e.jpg,1,3,f,4,45,285,44,f,1,0.666483361466,03,03,60.023437218,PLT_learning_3,A,2014_Feb_06_1246,P02,
stim_fb/ques.jpg,stim_fb/negf.jpg,stim_fb/posf.jpg,stim_03/b.jpg,stim_03/a.jpg,1,1,f,4,46,286,4,f,1,0.633164004917,03,03,60.023437218,PLT_learning_3,A,2014_Feb_06_1246,P02,
stim_fb/ques.jpg,stim_fb/negf.jpg,stim_fb/posf.jpg,stim_03/b.jpg,stim_03/a.jpg,1,1,f,4,47,287,1,f,1,0.68320347966,03,03,60.023437218,PLT_learning_3,A,2014_Feb_06_1246,P02,
stim_fb/ques.jpg,stim_fb/negf.jpg,stim_fb/posf.jpg,stim_03/c.jpg,stim_03/d.jpg,2,2,j,4,48,288,34,j,1,0.633229962068,03,03,60.023437218,PLT_learning_3,A,2014_Feb_06_1246,P02,
stim_fb/ques.jpg,stim_fb/posf.jpg,stim_fb/negf.jpg,stim_03/a.jpg,stim_03/b.jpg,2,1,j,4,49,289,19,j,1,0.983043743116,03,03,60.023437218,PLT_learning_3,A,2014_Feb_06_1246,P02,
stim_fb/ques.jpg,stim_fb/posf.jpg,stim_fb/negf.jpg,stim_03/d.jpg,stim_03/c.jpg,1,2,f,4,50,290,28,f,1,0.616537479652,03,03,60.023437218,PLT_learning_3,A,2014_Feb_06_1246,P02,
stim_fb/ques.jpg,stim_fb/posf.jpg,stim_fb/negf.jpg,stim_03/d.jpg,stim_03/c.jpg,1,2,f,4,51,291,27,f,1,0.933084959192,03,03,60.023437218,PLT_learning_3,A,2014_Feb_06_1246,P02,
stim_fb/ques.jpg,stim_fb/posf.jpg,stim_fb/negf.jpg,stim_03/f.jpg,stim_03/e.jpg,1,3,f,4,52,292,48,f,1,0.89972412642,03,03,60.023437218,PLT_learning_3,A,2014_Feb_06_1246,P02,
stim_fb/ques.jpg,stim_fb/negf.jpg,stim_fb/posf.jpg,stim_03/c.jpg,stim_03/d.jpg,2,2,j,4,53,293,31,j,1,0.933061639154,03,03,60.023437218,PLT_learning_3,A,2014_Feb_06_1246,P02,
stim_fb/ques.jpg,stim_fb/posf.jpg,stim_fb/negf.jpg,stim_03/b.jpg,stim_03/a.jpg,1,1,f,4,54,294,8,f,1,1.03304915208,03,03,60.023437218,PLT_learning_3,A,2014_Feb_06_1246,P02,
stim_fb/ques.jpg,stim_fb/negf.jpg,stim_fb/posf.jpg,stim_03/e.jpg,stim_03/f.jpg,2,3,j,4,55,295,52,j,1,0.733147147964,03,03,60.023437218,PLT_learning_3,A,2014_Feb_06_1246,P02,
stim_fb/ques.jpg,stim_fb/negf.jpg,stim_fb/posf.jpg,stim_03/e.jpg,stim_03/f.jpg,2,3,j,4,56,296,50,j,1,0.816487215558,03,03,60.023437218,PLT_learning_3,A,2014_Feb_06_1246,P02,
stim_fb/ques.jpg,stim_fb/negf.jpg,stim_fb/posf.jpg,stim_03/b.jpg,stim_03/a.jpg,1,1,f,4,57,297,3,None,0,,03,03,60.023437218,PLT_learning_3,A,2014_Feb_06_1246,P02,
stim_fb/ques.jpg,stim_fb/negf.jpg,stim_fb/posf.jpg,stim_03/c.jpg,stim_03/d.jpg,2,2,j,4,58,298,30,j,1,0.699811190099,03,03,60.023437218,PLT_learning_3,A,2014_Feb_06_1246,P02,
stim_fb/ques.jpg,stim_fb/posf.jpg,stim_fb/negf.jpg,stim_03/f.jpg,stim_03/e.jpg,1,3,f,4,59,299,47,f,1,0.749752103548,03,03,60.023437218,PLT_learning_3,A,2014_Feb_06_1246,P02,
stim_fb/ques.jpg,stim_fb/posf.jpg,stim_fb/negf.jpg,stim_03/e.jpg,stim_03/f.jpg,2,3,j,5,0,300,58,j,1,0.699783596426,03,03,60.023437218,PLT_learning_3,A,2014_Feb_06_1246,P02,
stim_fb/ques.jpg,stim_fb/negf.jpg,stim_fb/posf.jpg,stim_03/b.jpg,stim_03/a.jpg,1,1,f,5,1,301,6,f,1,0.516527585027,03,03,60.023437218,PLT_learning_3,A,2014_Feb_06_1246,P02,
stim_fb/ques.jpg,stim_fb/posf.jpg,stim_fb/negf.jpg,stim_03/d.jpg,stim_03/c.jpg,1,2,f,5,2,302,28,f,1,0.633177316045,03,03,60.023437218,PLT_learning_3,A,2014_Feb_06_1246,P02,
stim_fb/ques.jpg,stim_fb/posf.jpg,stim_fb/negf.jpg,stim_03/e.jpg,stim_03/f.jpg,2,3,j,5,3,303,57,j,1,0.549844770172,03,03,60.023437218,PLT_learning_3,A,2014_Feb_06_1246,P02,
stim_fb/ques.jpg,stim_fb/negf.jpg,stim_fb/posf.jpg,stim_03/c.jpg,stim_03/d.jpg,2,2,j,5,4,304,34,j,1,0.566843059665,03,03,60.023437218,PLT_learning_3,A,2014_Feb_06_1246,P02,
stim_fb/ques.jpg,stim_fb/negf.jpg,stim_fb/posf.jpg,stim_03/a.jpg,stim_03/b.jpg,2,1,j,5,5,305,11,j,1,0.799608470581,03,03,60.023437218,PLT_learning_3,A,2014_Feb_06_1246,P02,
stim_fb/ques.jpg,stim_fb/negf.jpg,stim_fb/posf.jpg,stim_03/f.jpg,stim_03/e.jpg,1,3,f,5,6,306,41,f,1,0.783131498517,03,03,60.023437218,PLT_learning_3,A,2014_Feb_06_1246,P02,
stim_fb/ques.jpg,stim_fb/negf.jpg,stim_fb/posf.jpg,stim_03/b.jpg,stim_03/a.jpg,1,1,f,5,7,307,7,f,1,0.749814406605,03,03,60.023437218,PLT_learning_3,A,2014_Feb_06_1246,P02,
stim_fb/ques.jpg,stim_fb/negf.jpg,stim_fb/posf.jpg,stim_03/d.jpg,stim_03/c.jpg,1,2,f,5,8,308,21,f,1,0.533208936741,03,03,60.023437218,PLT_learning_3,A,2014_Feb_06_1246,P02,
stim_fb/ques.jpg,stim_fb/negf.jpg,stim_fb/posf.jpg,stim_03/a.jpg,stim_03/b.jpg,2,1,j,5,9,309,10,j,1,0.549869389443,03,03,60.023437218,PLT_learning_3,A,2014_Feb_06_1246,P02,
stim_fb/ques.jpg,stim_fb/posf.jpg,stim_fb/negf.jpg,stim_03/a.jpg,stim_03/b.jpg,2,1,j,5,10,310,19,j,1,0.716434103375,03,03,60.023437218,PLT_learning_3,A,2014_Feb_06_1246,P02,
stim_fb/ques.jpg,stim_fb/negf.jpg,stim_fb/posf.jpg,stim_03/b.jpg,stim_03/a.jpg,1,1,f,5,11,311,1,f,1,0.516525449713,03,03,60.023437218,PLT_learning_3,A,2014_Feb_06_1246,P02,
stim_fb/ques.jpg,stim_fb/posf.jpg,stim_fb/negf.jpg,stim_03/f.jpg,stim_03/e.jpg,1,3,f,5,12,312,49,f,1,0.866426736541,03,03,60.023437218,PLT_learning_3,A,2014_Feb_06_1246,P02,
stim_fb/ques.jpg,stim_fb/negf.jpg,stim_fb/posf.jpg,stim_03/c.jpg,stim_03/d.jpg,2,2,j,5,13,313,30,j,1,0.649686531355,03,03,60.023437218,PLT_learning_3,A,2014_Feb_06_1246,P02,
stim_fb/ques.jpg,stim_fb/negf.jpg,stim_fb/posf.jpg,stim_03/d.jpg,stim_03/c.jpg,1,2,f,5,14,314,20,f,1,0.533216605827,03,03,60.023437218,PLT_learning_3,A,2014_Feb_06_1246,P02,
stim_fb/ques.jpg,stim_fb/negf.jpg,stim_fb/posf.jpg,stim_03/b.jpg,stim_03/a.jpg,1,1,f,5,15,315,5,j,0,0.84961983737,03,03,60.023437218,PLT_learning_3,A,2014_Feb_06_1246,P02,
stim_fb/ques.jpg,stim_fb/negf.jpg,stim_fb/posf.jpg,stim_03/d.jpg,stim_03/c.jpg,1,2,f,5,16,316,26,f,1,0.666494170367,03,03,60.023437218,PLT_learning_3,A,2014_Feb_06_1246,P02,
stim_fb/ques.jpg,stim_fb/negf.jpg,stim_fb/posf.jpg,stim_03/c.jpg,stim_03/d.jpg,2,2,j,5,17,317,33,j,1,0.583204977387,03,03,60.023437218,PLT_learning_3,A,2014_Feb_06_1246,P02,
stim_fb/ques.jpg,stim_fb/negf.jpg,stim_fb/posf.jpg,stim_03/f.jpg,stim_03/e.jpg,1,3,f,5,18,318,43,f,1,0.799779942331,03,03,60.023437218,PLT_learning_3,A,2014_Feb_06_1246,P02,
stim_fb/ques.jpg,stim_fb/negf.jpg,stim_fb/posf.jpg,stim_03/c.jpg,stim_03/d.jpg,2,2,j,5,19,319,36,j,1,0.53321311113,03,03,60.023437218,PLT_learning_3,A,2014_Feb_06_1246,P02,
stim_fb/ques.jpg,stim_fb/negf.jpg,stim_fb/posf.jpg,stim_03/b.jpg,stim_03/a.jpg,1,1,f,5,20,320,0,f,1,0.533209736732,03,03,60.023437218,PLT_learning_3,A,2014_Feb_06_1246,P02,
stim_fb/ques.jpg,stim_fb/posf.jpg,stim_fb/negf.jpg,stim_03/c.jpg,stim_03/d.jpg,2,2,j,5,21,321,38,j,1,0.716505997301,03,03,60.023437218,PLT_learning_3,A,2014_Feb_06_1246,P02,
stim_fb/ques.jpg,stim_fb/posf.jpg,stim_fb/negf.jpg,stim_03/f.jpg,stim_03/e.jpg,1,3,f,5,22,322,47,f,1,0.733141767574,03,03,60.023437218,PLT_learning_3,A,2014_Feb_06_1246,P02,
stim_fb/ques.jpg,stim_fb/posf.jpg,stim_fb/negf.jpg,stim_03/b.jpg,stim_03/a.jpg,1,1,f,5,23,323,8,f,1,0.533216879509,03,03,60.023437218,PLT_learning_3,A,2014_Feb_06_1246,P02,
stim_fb/ques.jpg,stim_fb/negf.jpg,stim_fb/posf.jpg,stim_03/e.jpg,stim_03/f.jpg,2,3,j,5,24,324,54,j,1,0.649791721146,03,03,60.023437218,PLT_learning_3,A,2014_Feb_06_1246,P02,
stim_fb/ques.jpg,stim_fb/negf.jpg,stim_fb/posf.jpg,stim_03/a.jpg,stim_03/b.jpg,2,1,j,5,25,325,13,f,0,0.799784083638,03,03,60.023437218,PLT_learning_3,A,2014_Feb_06_1246,P02,
stim_fb/ques.jpg,stim_fb/negf.jpg,stim_fb/posf.jpg,stim_03/c.jpg,stim_03/d.jpg,2,2,j,5,26,326,35,j,1,0.633179722033,03,03,60.023437218,PLT_learning_3,A,2014_Feb_06_1246,P02,
stim_fb/ques.jpg,stim_fb/negf.jpg,stim_fb/posf.jpg,stim_03/b.jpg,stim_03/a.jpg,1,1,f,5,27,327,3,f,1,0.966405912715,03,03,60.023437218,PLT_learning_3,A,2014_Feb_06_1246,P02,
stim_fb/ques.jpg,stim_fb/negf.jpg,stim_fb/posf.jpg,stim_03/e.jpg,stim_03/f.jpg,2,3,j,5,28,328,52,j,1,0.733146534437,03,03,60.023437218,PLT_learning_3,A,2014_Feb_06_1246,P02,
stim_fb/ques.jpg,stim_fb/posf.jpg,stim_fb/negf.jpg,stim_03/a.jpg,stim_03/b.jpg,2,1,j,5,29,329,18,j,1,0.933053564057,03,03,60.023437218,PLT_learning_3,A,2014_Feb_06_1246,P02,
stim_fb/ques.jpg,stim_fb/negf.jpg,stim_fb/posf.jpg,stim_03/a.jpg,stim_03/b.jpg,2,1,j,5,30,330,12,j,1,0.816427953068,03,03,60.023437218,PLT_learning_3,A,2014_Feb_06_1246,P02,
stim_fb/ques.jpg,stim_fb/negf.jpg,stim_fb/posf.jpg,stim_03/d.jpg,stim_03/c.jpg,1,2,f,5,31,331,23,f,1,0.88307731567,03,03,60.023437218,PLT_learning_3,A,2014_Feb_06_1246,P02,
stim_fb/ques.jpg,stim_fb/posf.jpg,stim_fb/negf.jpg,stim_03/f.jpg,stim_03/e.jpg,1,3,f,5,32,332,48,f,1,0.683143125454,03,03,60.023437218,PLT_learning_3,A,2014_Feb_06_1246,P02,
stim_fb/ques.jpg,stim_fb/negf.jpg,stim_fb/posf.jpg,stim_03/d.jpg,stim_03/c.jpg,1,2,f,5,33,333,22,f,1,0.599836681542,03,03,60.023437218,PLT_learning_3,A,2014_Feb_06_1246,P02,
stim_fb/ques.jpg,stim_fb/negf.jpg,stim_fb/posf.jpg,stim_03/e.jpg,stim_03/f.jpg,2,3,j,5,34,334,53,j,1,0.683022877186,03,03,60.023437218,PLT_learning_3,A,2014_Feb_06_1246,P02,
stim_fb/ques.jpg,stim_fb/negf.jpg,stim_fb/posf.jpg,stim_03/b.jpg,stim_03/a.jpg,1,1,f,5,35,335,4,f,1,0.666496471093,03,03,60.023437218,PLT_learning_3,A,2014_Feb_06_1246,P02,
stim_fb/ques.jpg,stim_fb/posf.jpg,stim_fb/negf.jpg,stim_03/c.jpg,stim_03/d.jpg,2,2,j,5,36,336,37,j,1,0.633027567358,03,03,60.023437218,PLT_learning_3,A,2014_Feb_06_1246,P02,
stim_fb/ques.jpg,stim_fb/negf.jpg,stim_fb/posf.jpg,stim_03/f.jpg,stim_03/e.jpg,1,3,f,5,37,337,40,f,1,0.683090957621,03,03,60.023437218,PLT_learning_3,A,2014_Feb_06_1246,P02,
stim_fb/ques.jpg,stim_fb/negf.jpg,stim_fb/posf.jpg,stim_03/d.jpg,stim_03/c.jpg,1,2,f,5,38,338,25,f,1,0.533200016541,03,03,60.023437218,PLT_learning_3,A,2014_Feb_06_1246,P02,
stim_fb/ques.jpg,stim_fb/negf.jpg,stim_fb/posf.jpg,stim_03/b.jpg,stim_03/a.jpg,1,1,f,5,39,339,2,f,1,0.549871702199,03,03,60.023437218,PLT_learning_3,A,2014_Feb_06_1246,P02,
stim_fb/ques.jpg,stim_fb/posf.jpg,stim_fb/negf.jpg,stim_03/d.jpg,stim_03/c.jpg,1,2,f,5,40,340,29,f,1,0.533219396774,03,03,60.023437218,PLT_learning_3,A,2014_Feb_06_1246,P02,
stim_fb/ques.jpg,stim_fb/negf.jpg,stim_fb/posf.jpg,stim_03/c.jpg,stim_03/d.jpg,2,2,j,5,41,341,32,j,1,0.599887908031,03,03,60.023437218,PLT_learning_3,A,2014_Feb_06_1246,P02,
stim_fb/ques.jpg,stim_fb/posf.jpg,stim_fb/negf.jpg,stim_03/d.jpg,stim_03/c.jpg,1,2,f,5,42,342,27,f,1,0.533210981831,03,03,60.023437218,PLT_learning_3,A,2014_Feb_06_1246,P02,
stim_fb/ques.jpg,stim_fb/posf.jpg,stim_fb/negf.jpg,stim_03/e.jpg,stim_03/f.jpg,2,3,j,5,43,343,56,j,1,0.783135727041,03,03,60.023437218,PLT_learning_3,A,2014_Feb_06_1246,P02,
stim_fb/ques.jpg,stim_fb/negf.jpg,stim_fb/posf.jpg,stim_03/d.jpg,stim_03/c.jpg,1,2,f,5,44,344,24,f,1,0.533221865919,03,03,60.023437218,PLT_learning_3,A,2014_Feb_06_1246,P02,
stim_fb/ques.jpg,stim_fb/negf.jpg,stim_fb/posf.jpg,stim_03/e.jpg,stim_03/f.jpg,2,3,j,5,45,345,50,f,0,0.683160800442,03,03,60.023437218,PLT_learning_3,A,2014_Feb_06_1246,P02,
stim_fb/ques.jpg,stim_fb/posf.jpg,stim_fb/negf.jpg,stim_03/c.jpg,stim_03/d.jpg,2,2,j,5,46,346,39,j,1,0.566586530227,03,03,60.023437218,PLT_learning_3,A,2014_Feb_06_1246,P02,
stim_fb/ques.jpg,stim_fb/negf.jpg,stim_fb/posf.jpg,stim_03/c.jpg,stim_03/d.jpg,2,2,j,5,47,347,31,j,1,0.516522096367,03,03,60.023437218,PLT_learning_3,A,2014_Feb_06_1246,P02,
stim_fb/ques.jpg,stim_fb/posf.jpg,stim_fb/negf.jpg,stim_03/b.jpg,stim_03/a.jpg,1,1,f,5,48,348,9,f,1,0.616509837859,03,03,60.023437218,PLT_learning_3,A,2014_Feb_06_1246,P02,
stim_fb/ques.jpg,stim_fb/negf.jpg,stim_fb/posf.jpg,stim_03/a.jpg,stim_03/b.jpg,2,1,j,5,49,349,16,j,1,0.649831925204,03,03,60.023437218,PLT_learning_3,A,2014_Feb_06_1246,P02,
stim_fb/ques.jpg,stim_fb/posf.jpg,stim_fb/negf.jpg,stim_03/e.jpg,stim_03/f.jpg,2,3,j,5,50,350,59,j,1,0.583172240914,03,03,60.023437218,PLT_learning_3,A,2014_Feb_06_1246,P02,
stim_fb/ques.jpg,stim_fb/negf.jpg,stim_fb/posf.jpg,stim_03/a.jpg,stim_03/b.jpg,2,1,j,5,51,351,14,j,1,0.716517203189,03,03,60.023437218,PLT_learning_3,A,2014_Feb_06_1246,P02,
stim_fb/ques.jpg,stim_fb/negf.jpg,stim_fb/posf.jpg,stim_03/f.jpg,stim_03/e.jpg,1,3,f,5,52,352,42,f,1,0.633088047879,03,03,60.023437218,PLT_learning_3,A,2014_Feb_06_1246,P02,
stim_fb/ques.jpg,stim_fb/posf.jpg,stim_fb/negf.jpg,stim_03/f.jpg,stim_03/e.jpg,1,3,f,5,53,353,46,f,1,0.583157158378,03,03,60.023437218,PLT_learning_3,A,2014_Feb_06_1246,P02,
stim_fb/ques.jpg,stim_fb/negf.jpg,stim_fb/posf.jpg,stim_03/a.jpg,stim_03/b.jpg,2,1,j,5,54,354,17,j,1,0.566525836175,03,03,60.023437218,PLT_learning_3,A,2014_Feb_06_1246,P02,
stim_fb/ques.jpg,stim_fb/negf.jpg,stim_fb/posf.jpg,stim_03/e.jpg,stim_03/f.jpg,2,3,j,5,55,355,51,j,1,0.699812323921,03,03,60.023437218,PLT_learning_3,A,2014_Feb_06_1246,P02,
stim_fb/ques.jpg,stim_fb/negf.jpg,stim_fb/posf.jpg,stim_03/a.jpg,stim_03/b.jpg,2,1,j,5,56,356,15,f,0,0.683131967684,03,03,60.023437218,PLT_learning_3,A,2014_Feb_06_1246,P02,
stim_fb/ques.jpg,stim_fb/negf.jpg,stim_fb/posf.jpg,stim_03/e.jpg,stim_03/f.jpg,2,3,j,5,57,357,55,j,1,0.649818220095,03,03,60.023437218,PLT_learning_3,A,2014_Feb_06_1246,P02,
stim_fb/ques.jpg,stim_fb/negf.jpg,stim_fb/posf.jpg,stim_03/f.jpg,stim_03/e.jpg,1,3,f,5,58,358,44,f,1,0.93314046834,03,03,60.023437218,PLT_learning_3,A,2014_Feb_06_1246,P02,
stim_fb/ques.jpg,stim_fb/negf.jpg,stim_fb/posf.jpg,stim_03/f.jpg,stim_03/e.jpg,1,3,f,5,59,359,45,f,1,0.616471997685,03,03,60.023437218,PLT_learning_3,A,2014_Feb_06_1246,P02,
