Fb3,Fb2,Fb1,Symbol2,Symbol1,PosCond,Pair,Correct,trials.thisRepN,trials.thisTrialN,trials.thisN,trials.thisIndex,Response.keys,Response.corr,Response.rt,Version,Session Number,frameRate,expName,StimCondition,date,Participant,
stim_fb/ques.jpg,stim_fb/negf.jpg,stim_fb/posf.jpg,stim_03/e.jpg,stim_03/f.jpg,2,3,j,0,0,0,50,f,0,0.733144644026,03,02,60.0227532366,PLT_learning_3,A,2014_Feb_11_1733,P03,
stim_fb/ques.jpg,stim_fb/negf.jpg,stim_fb/posf.jpg,stim_03/f.jpg,stim_03/e.jpg,1,3,f,0,1,1,44,j,0,1.58276179878,03,02,60.0227532366,PLT_learning_3,A,2014_Feb_11_1733,P03,
stim_fb/ques.jpg,stim_fb/posf.jpg,stim_fb/negf.jpg,stim_03/c.jpg,stim_03/d.jpg,2,2,j,0,2,2,38,f,0,0.766501581193,03,02,60.0227532366,PLT_learning_3,A,2014_Feb_11_1733,P03,
stim_fb/ques.jpg,stim_fb/negf.jpg,stim_fb/posf.jpg,stim_03/b.jpg,stim_03/a.jpg,1,1,f,0,3,3,7,j,0,1.14967800844,03,02,60.0227532366,PLT_learning_3,A,2014_Feb_11_1733,P03,
stim_fb/ques.jpg,stim_fb/negf.jpg,stim_fb/posf.jpg,stim_03/b.jpg,stim_03/a.jpg,1,1,f,0,4,4,1,f,1,1.46622654566,03,02,60.0227532366,PLT_learning_3,A,2014_Feb_11_1733,P03,
stim_fb/ques.jpg,stim_fb/posf.jpg,stim_fb/negf.jpg,stim_03/f.jpg,stim_03/e.jpg,1,3,f,0,5,5,47,j,0,1.43290957812,03,02,60.0227532366,PLT_learning_3,A,2014_Feb_11_1733,P03,
stim_fb/ques.jpg,stim_fb/negf.jpg,stim_fb/posf.jpg,stim_03/a.jpg,stim_03/b.jpg,2,1,j,0,6,6,10,j,1,1.08303682228,03,02,60.0227532366,PLT_learning_3,A,2014_Feb_11_1733,P03,
stim_fb/ques.jpg,stim_fb/posf.jpg,stim_fb/negf.jpg,stim_03/b.jpg,stim_03/a.jpg,1,1,f,0,7,7,9,f,1,0.899799839099,03,02,60.0227532366,PLT_learning_3,A,2014_Feb_11_1733,P03,
stim_fb/ques.jpg,stim_fb/negf.jpg,stim_fb/posf.jpg,stim_03/f.jpg,stim_03/e.jpg,1,3,f,0,8,8,42,j,0,0.749592111337,03,02,60.0227532366,PLT_learning_3,A,2014_Feb_11_1733,P03,
stim_fb/ques.jpg,stim_fb/posf.jpg,stim_fb/negf.jpg,stim_03/c.jpg,stim_03/d.jpg,2,2,j,0,9,9,39,f,0,0.466545782363,03,02,60.0227532366,PLT_learning_3,A,2014_Feb_11_1733,P03,
stim_fb/ques.jpg,stim_fb/negf.jpg,stim_fb/posf.jpg,stim_03/d.jpg,stim_03/c.jpg,1,2,f,0,10,10,22,j,0,0.916406141308,03,02,60.0227532366,PLT_learning_3,A,2014_Feb_11_1733,P03,
stim_fb/ques.jpg,stim_fb/negf.jpg,stim_fb/posf.jpg,stim_03/b.jpg,stim_03/a.jpg,1,1,f,0,11,11,4,f,1,0.549873546815,03,02,60.0227532366,PLT_learning_3,A,2014_Feb_11_1733,P03,
stim_fb/ques.jpg,stim_fb/negf.jpg,stim_fb/posf.jpg,stim_03/e.jpg,stim_03/f.jpg,2,3,j,0,12,12,53,j,1,0.583176297921,03,02,60.0227532366,PLT_learning_3,A,2014_Feb_11_1733,P03,
stim_fb/ques.jpg,stim_fb/negf.jpg,stim_fb/posf.jpg,stim_03/e.jpg,stim_03/f.jpg,2,3,j,0,13,13,52,f,0,0.683146773334,03,02,60.0227532366,PLT_learning_3,A,2014_Feb_11_1733,P03,
stim_fb/ques.jpg,stim_fb/negf.jpg,stim_fb/posf.jpg,stim_03/a.jpg,stim_03/b.jpg,2,1,j,0,14,14,16,j,1,0.483220038946,03,02,60.0227532366,PLT_learning_3,A,2014_Feb_11_1733,P03,
stim_fb/ques.jpg,stim_fb/negf.jpg,stim_fb/posf.jpg,stim_03/a.jpg,stim_03/b.jpg,2,1,j,0,15,15,13,f,0,0.583201347359,03,02,60.0227532366,PLT_learning_3,A,2014_Feb_11_1733,P03,
stim_fb/ques.jpg,stim_fb/negf.jpg,stim_fb/posf.jpg,stim_03/d.jpg,stim_03/c.jpg,1,2,f,0,16,16,21,j,0,0.599837718513,03,02,60.0227532366,PLT_learning_3,A,2014_Feb_11_1733,P03,
stim_fb/ques.jpg,stim_fb/negf.jpg,stim_fb/posf.jpg,stim_03/b.jpg,stim_03/a.jpg,1,1,f,0,17,17,2,f,1,0.633168559636,03,02,60.0227532366,PLT_learning_3,A,2014_Feb_11_1733,P03,
stim_fb/ques.jpg,stim_fb/negf.jpg,stim_fb/posf.jpg,stim_03/c.jpg,stim_03/d.jpg,2,2,j,0,18,18,31,j,1,0.499892298554,03,02,60.0227532366,PLT_learning_3,A,2014_Feb_11_1733,P03,
stim_fb/ques.jpg,stim_fb/negf.jpg,stim_fb/posf.jpg,stim_03/c.jpg,stim_03/d.jpg,2,2,j,0,19,19,36,f,0,0.599843113963,03,02,60.0227532366,PLT_learning_3,A,2014_Feb_11_1733,P03,
stim_fb/ques.jpg,stim_fb/negf.jpg,stim_fb/posf.jpg,stim_03/d.jpg,stim_03/c.jpg,1,2,f,0,20,20,20,j,0,0.616434426809,03,02,60.0227532366,PLT_learning_3,A,2014_Feb_11_1733,P03,
stim_fb/ques.jpg,stim_fb/negf.jpg,stim_fb/posf.jpg,stim_03/d.jpg,stim_03/c.jpg,1,2,f,0,21,21,26,j,0,0.983073053585,03,02,60.0227532366,PLT_learning_3,A,2014_Feb_11_1733,P03,
stim_fb/ques.jpg,stim_fb/negf.jpg,stim_fb/posf.jpg,stim_03/c.jpg,stim_03/d.jpg,2,2,j,0,22,22,35,None,0,,03,02,60.0227532366,PLT_learning_3,A,2014_Feb_11_1733,P03,
stim_fb/ques.jpg,stim_fb/negf.jpg,stim_fb/posf.jpg,stim_03/a.jpg,stim_03/b.jpg,2,1,j,0,23,23,15,f,0,0.982927436637,03,02,60.0227532366,PLT_learning_3,A,2014_Feb_11_1733,P03,
stim_fb/ques.jpg,stim_fb/negf.jpg,stim_fb/posf.jpg,stim_03/c.jpg,stim_03/d.jpg,2,2,j,0,24,24,33,f,0,1.68283956662,03,02,60.0227532366,PLT_learning_3,A,2014_Feb_11_1733,P03,
stim_fb/ques.jpg,stim_fb/negf.jpg,stim_fb/posf.jpg,stim_03/c.jpg,stim_03/d.jpg,2,2,j,0,25,25,34,j,1,1.13300523154,03,02,60.0227532366,PLT_learning_3,A,2014_Feb_11_1733,P03,
stim_fb/ques.jpg,stim_fb/posf.jpg,stim_fb/negf.jpg,stim_03/f.jpg,stim_03/e.jpg,1,3,f,0,26,26,48,f,1,1.18300139698,03,02,60.0227532366,PLT_learning_3,A,2014_Feb_11_1733,P03,
stim_fb/ques.jpg,stim_fb/negf.jpg,stim_fb/posf.jpg,stim_03/c.jpg,stim_03/d.jpg,2,2,j,0,27,27,30,j,1,1.29957213555,03,02,60.0227532366,PLT_learning_3,A,2014_Feb_11_1733,P03,
stim_fb/ques.jpg,stim_fb/negf.jpg,stim_fb/posf.jpg,stim_03/d.jpg,stim_03/c.jpg,1,2,f,0,28,28,25,f,1,1.09964600567,03,02,60.0227532366,PLT_learning_3,A,2014_Feb_11_1733,P03,
stim_fb/ques.jpg,stim_fb/negf.jpg,stim_fb/posf.jpg,stim_03/b.jpg,stim_03/a.jpg,1,1,f,0,29,29,3,j,0,0.616496396267,03,02,60.0227532366,PLT_learning_3,A,2014_Feb_11_1733,P03,
stim_fb/ques.jpg,stim_fb/negf.jpg,stim_fb/posf.jpg,stim_03/a.jpg,stim_03/b.jpg,2,1,j,0,30,30,14,f,0,0.533195744392,03,02,60.0227532366,PLT_learning_3,A,2014_Feb_11_1733,P03,
stim_fb/ques.jpg,stim_fb/posf.jpg,stim_fb/negf.jpg,stim_03/e.jpg,stim_03/f.jpg,2,3,j,0,31,31,57,j,1,0.683160571725,03,02,60.0227532366,PLT_learning_3,A,2014_Feb_11_1733,P03,
stim_fb/ques.jpg,stim_fb/posf.jpg,stim_fb/negf.jpg,stim_03/b.jpg,stim_03/a.jpg,1,1,f,0,32,32,8,f,1,0.516549809401,03,02,60.0227532366,PLT_learning_3,A,2014_Feb_11_1733,P03,
stim_fb/ques.jpg,stim_fb/posf.jpg,stim_fb/negf.jpg,stim_03/a.jpg,stim_03/b.jpg,2,1,j,0,33,33,18,j,1,0.566538356854,03,02,60.0227532366,PLT_learning_3,A,2014_Feb_11_1733,P03,
stim_fb/ques.jpg,stim_fb/negf.jpg,stim_fb/posf.jpg,stim_03/b.jpg,stim_03/a.jpg,1,1,f,0,34,34,6,f,1,0.616544041022,03,02,60.0227532366,PLT_learning_3,A,2014_Feb_11_1733,P03,
stim_fb/ques.jpg,stim_fb/negf.jpg,stim_fb/posf.jpg,stim_03/d.jpg,stim_03/c.jpg,1,2,f,0,35,35,23,j,0,0.616484949738,03,02,60.0227532366,PLT_learning_3,A,2014_Feb_11_1733,P03,
stim_fb/ques.jpg,stim_fb/negf.jpg,stim_fb/posf.jpg,stim_03/a.jpg,stim_03/b.jpg,2,1,j,0,36,36,12,f,0,0.58320934429,03,02,60.0227532366,PLT_learning_3,A,2014_Feb_11_1733,P03,
stim_fb/ques.jpg,stim_fb/negf.jpg,stim_fb/posf.jpg,stim_03/c.jpg,stim_03/d.jpg,2,2,j,0,37,37,32,j,1,0.599827038895,03,02,60.0227532366,PLT_learning_3,A,2014_Feb_11_1733,P03,
stim_fb/ques.jpg,stim_fb/negf.jpg,stim_fb/posf.jpg,stim_03/a.jpg,stim_03/b.jpg,2,1,j,0,38,38,11,f,0,0.466583487343,03,02,60.0227532366,PLT_learning_3,A,2014_Feb_11_1733,P03,
stim_fb/ques.jpg,stim_fb/posf.jpg,stim_fb/negf.jpg,stim_03/e.jpg,stim_03/f.jpg,2,3,j,0,39,39,56,j,1,0.416577938511,03,02,60.0227532366,PLT_learning_3,A,2014_Feb_11_1733,P03,
stim_fb/ques.jpg,stim_fb/posf.jpg,stim_fb/negf.jpg,stim_03/a.jpg,stim_03/b.jpg,2,1,j,0,40,40,19,f,0,0.533198102268,03,02,60.0227532366,PLT_learning_3,A,2014_Feb_11_1733,P03,
stim_fb/ques.jpg,stim_fb/negf.jpg,stim_fb/posf.jpg,stim_03/e.jpg,stim_03/f.jpg,2,3,j,0,41,41,51,j,1,0.516561836377,03,02,60.0227532366,PLT_learning_3,A,2014_Feb_11_1733,P03,
stim_fb/ques.jpg,stim_fb/negf.jpg,stim_fb/posf.jpg,stim_03/f.jpg,stim_03/e.jpg,1,3,f,0,42,42,43,f,1,0.683157994301,03,02,60.0227532366,PLT_learning_3,A,2014_Feb_11_1733,P03,
stim_fb/ques.jpg,stim_fb/negf.jpg,stim_fb/posf.jpg,stim_03/b.jpg,stim_03/a.jpg,1,1,f,0,43,43,0,j,0,0.566544762822,03,02,60.0227532366,PLT_learning_3,A,2014_Feb_11_1733,P03,
stim_fb/ques.jpg,stim_fb/posf.jpg,stim_fb/negf.jpg,stim_03/e.jpg,stim_03/f.jpg,2,3,j,0,44,44,58,f,0,0.983043868842,03,02,60.0227532366,PLT_learning_3,A,2014_Feb_11_1733,P03,
stim_fb/ques.jpg,stim_fb/negf.jpg,stim_fb/posf.jpg,stim_03/e.jpg,stim_03/f.jpg,2,3,j,0,45,45,55,j,1,0.349951492095,03,02,60.0227532366,PLT_learning_3,A,2014_Feb_11_1733,P03,
stim_fb/ques.jpg,stim_fb/negf.jpg,stim_fb/posf.jpg,stim_03/d.jpg,stim_03/c.jpg,1,2,f,0,46,46,24,f,1,0.733147431973,03,02,60.0227532366,PLT_learning_3,A,2014_Feb_11_1733,P03,
stim_fb/ques.jpg,stim_fb/posf.jpg,stim_fb/negf.jpg,stim_03/f.jpg,stim_03/e.jpg,1,3,f,0,47,47,46,j,0,0.49988448508,03,02,60.0227532366,PLT_learning_3,A,2014_Feb_11_1733,P03,
stim_fb/ques.jpg,stim_fb/posf.jpg,stim_fb/negf.jpg,stim_03/d.jpg,stim_03/c.jpg,1,2,f,0,48,48,28,f,1,0.383250020677,03,02,60.0227532366,PLT_learning_3,A,2014_Feb_11_1733,P03,
stim_fb/ques.jpg,stim_fb/posf.jpg,stim_fb/negf.jpg,stim_03/d.jpg,stim_03/c.jpg,1,2,f,0,49,49,27,j,0,0.399938012497,03,02,60.0227532366,PLT_learning_3,A,2014_Feb_11_1733,P03,
stim_fb/ques.jpg,stim_fb/negf.jpg,stim_fb/posf.jpg,stim_03/b.jpg,stim_03/a.jpg,1,1,f,0,50,50,5,f,1,0.566524023126,03,02,60.0227532366,PLT_learning_3,A,2014_Feb_11_1733,P03,
stim_fb/ques.jpg,stim_fb/posf.jpg,stim_fb/negf.jpg,stim_03/c.jpg,stim_03/d.jpg,2,2,j,0,51,51,37,j,1,0.399946262058,03,02,60.0227532366,PLT_learning_3,A,2014_Feb_11_1733,P03,
stim_fb/ques.jpg,stim_fb/negf.jpg,stim_fb/posf.jpg,stim_03/f.jpg,stim_03/e.jpg,1,3,f,0,52,52,41,f,1,0.366526540402,03,02,60.0227532366,PLT_learning_3,A,2014_Feb_11_1733,P03,
stim_fb/ques.jpg,stim_fb/negf.jpg,stim_fb/posf.jpg,stim_03/f.jpg,stim_03/e.jpg,1,3,f,0,53,53,45,j,0,0.683163356667,03,02,60.0227532366,PLT_learning_3,A,2014_Feb_11_1733,P03,
stim_fb/ques.jpg,stim_fb/posf.jpg,stim_fb/negf.jpg,stim_03/f.jpg,stim_03/e.jpg,1,3,f,0,54,54,49,f,1,0.416580744504,03,02,60.0227532366,PLT_learning_3,A,2014_Feb_11_1733,P03,
stim_fb/ques.jpg,stim_fb/negf.jpg,stim_fb/posf.jpg,stim_03/f.jpg,stim_03/e.jpg,1,3,f,0,55,55,40,j,0,0.449896466944,03,02,60.0227532366,PLT_learning_3,A,2014_Feb_11_1733,P03,
stim_fb/ques.jpg,stim_fb/negf.jpg,stim_fb/posf.jpg,stim_03/a.jpg,stim_03/b.jpg,2,1,j,0,56,56,17,f,0,0.566528690762,03,02,60.0227532366,PLT_learning_3,A,2014_Feb_11_1733,P03,
stim_fb/ques.jpg,stim_fb/negf.jpg,stim_fb/posf.jpg,stim_03/e.jpg,stim_03/f.jpg,2,3,j,0,57,57,54,j,1,0.43323826738,03,02,60.0227532366,PLT_learning_3,A,2014_Feb_11_1733,P03,
stim_fb/ques.jpg,stim_fb/posf.jpg,stim_fb/negf.jpg,stim_03/e.jpg,stim_03/f.jpg,2,3,j,0,58,58,59,f,0,0.583213638996,03,02,60.0227532366,PLT_learning_3,A,2014_Feb_11_1733,P03,
stim_fb/ques.jpg,stim_fb/posf.jpg,stim_fb/negf.jpg,stim_03/d.jpg,stim_03/c.jpg,1,2,f,0,59,59,29,j,0,0.766457695807,03,02,60.0227532366,PLT_learning_3,A,2014_Feb_11_1733,P03,
stim_fb/ques.jpg,stim_fb/negf.jpg,stim_fb/posf.jpg,stim_03/a.jpg,stim_03/b.jpg,2,1,j,1,0,60,10,j,1,1.04970579169,03,02,60.0227532366,PLT_learning_3,A,2014_Feb_11_1733,P03,
stim_fb/ques.jpg,stim_fb/posf.jpg,stim_fb/negf.jpg,stim_03/e.jpg,stim_03/f.jpg,2,3,j,1,1,61,59,j,1,0.883102881933,03,02,60.0227532366,PLT_learning_3,A,2014_Feb_11_1733,P03,
stim_fb/ques.jpg,stim_fb/negf.jpg,stim_fb/posf.jpg,stim_03/d.jpg,stim_03/c.jpg,1,2,f,1,2,62,25,f,1,0.616511707431,03,02,60.0227532366,PLT_learning_3,A,2014_Feb_11_1733,P03,
stim_fb/ques.jpg,stim_fb/negf.jpg,stim_fb/posf.jpg,stim_03/f.jpg,stim_03/e.jpg,1,3,f,1,3,63,45,j,0,0.416588260239,03,02,60.0227532366,PLT_learning_3,A,2014_Feb_11_1733,P03,
stim_fb/ques.jpg,stim_fb/negf.jpg,stim_fb/posf.jpg,stim_03/c.jpg,stim_03/d.jpg,2,2,j,1,4,64,30,j,1,0.56651813445,03,02,60.0227532366,PLT_learning_3,A,2014_Feb_11_1733,P03,
stim_fb/ques.jpg,stim_fb/negf.jpg,stim_fb/posf.jpg,stim_03/d.jpg,stim_03/c.jpg,1,2,f,1,5,65,20,j,0,0.83306789573,03,02,60.0227532366,PLT_learning_3,A,2014_Feb_11_1733,P03,
stim_fb/ques.jpg,stim_fb/posf.jpg,stim_fb/negf.jpg,stim_03/a.jpg,stim_03/b.jpg,2,1,j,1,6,66,19,j,1,1.54954838234,03,02,60.0227532366,PLT_learning_3,A,2014_Feb_11_1733,P03,
stim_fb/ques.jpg,stim_fb/negf.jpg,stim_fb/posf.jpg,stim_03/a.jpg,stim_03/b.jpg,2,1,j,1,7,67,17,f,0,1.21630512853,03,02,60.0227532366,PLT_learning_3,A,2014_Feb_11_1733,P03,
stim_fb/ques.jpg,stim_fb/posf.jpg,stim_fb/negf.jpg,stim_03/d.jpg,stim_03/c.jpg,1,2,f,1,8,68,27,j,0,1.58288285051,03,02,60.0227532366,PLT_learning_3,A,2014_Feb_11_1733,P03,
stim_fb/ques.jpg,stim_fb/posf.jpg,stim_fb/negf.jpg,stim_03/f.jpg,stim_03/e.jpg,1,3,f,1,9,69,47,j,0,1.61619676544,03,02,60.0227532366,PLT_learning_3,A,2014_Feb_11_1733,P03,
stim_fb/ques.jpg,stim_fb/negf.jpg,stim_fb/posf.jpg,stim_03/f.jpg,stim_03/e.jpg,1,3,f,1,10,70,42,j,0,0.7998405215,03,02,60.0227532366,PLT_learning_3,A,2014_Feb_11_1733,P03,
stim_fb/ques.jpg,stim_fb/negf.jpg,stim_fb/posf.jpg,stim_03/c.jpg,stim_03/d.jpg,2,2,j,1,11,71,35,f,0,0.816452835694,03,02,60.0227532366,PLT_learning_3,A,2014_Feb_11_1733,P03,
stim_fb/ques.jpg,stim_fb/negf.jpg,stim_fb/posf.jpg,stim_03/f.jpg,stim_03/e.jpg,1,3,f,1,12,72,40,j,0,0.299975741536,03,02,60.0227532366,PLT_learning_3,A,2014_Feb_11_1733,P03,
stim_fb/ques.jpg,stim_fb/negf.jpg,stim_fb/posf.jpg,stim_03/c.jpg,stim_03/d.jpg,2,2,j,1,13,73,32,f,0,0.416578840761,03,02,60.0227532366,PLT_learning_3,A,2014_Feb_11_1733,P03,
stim_fb/ques.jpg,stim_fb/negf.jpg,stim_fb/posf.jpg,stim_03/d.jpg,stim_03/c.jpg,1,2,f,1,14,74,24,j,0,0.683153062007,03,02,60.0227532366,PLT_learning_3,A,2014_Feb_11_1733,P03,
stim_fb/ques.jpg,stim_fb/posf.jpg,stim_fb/negf.jpg,stim_03/c.jpg,stim_03/d.jpg,2,2,j,1,15,75,39,f,0,0.86643480876,03,02,60.0227532366,PLT_learning_3,A,2014_Feb_11_1733,P03,
stim_fb/ques.jpg,stim_fb/negf.jpg,stim_fb/posf.jpg,stim_03/c.jpg,stim_03/d.jpg,2,2,j,1,16,76,34,j,1,0.76647947008,03,02,60.0227532366,PLT_learning_3,A,2014_Feb_11_1733,P03,
stim_fb/ques.jpg,stim_fb/negf.jpg,stim_fb/posf.jpg,stim_03/f.jpg,stim_03/e.jpg,1,3,f,1,17,77,43,f,1,0.699880382854,03,02,60.0227532366,PLT_learning_3,A,2014_Feb_11_1733,P03,
stim_fb/ques.jpg,stim_fb/posf.jpg,stim_fb/negf.jpg,stim_03/c.jpg,stim_03/d.jpg,2,2,j,1,18,78,37,j,1,0.699828356177,03,02,60.0227532366,PLT_learning_3,A,2014_Feb_11_1733,P03,
stim_fb/ques.jpg,stim_fb/negf.jpg,stim_fb/posf.jpg,stim_03/a.jpg,stim_03/b.jpg,2,1,j,1,19,79,13,f,0,0.516557505582,03,02,60.0227532366,PLT_learning_3,A,2014_Feb_11_1733,P03,
stim_fb/ques.jpg,stim_fb/negf.jpg,stim_fb/posf.jpg,stim_03/c.jpg,stim_03/d.jpg,2,2,j,1,20,80,36,j,1,0.866427040399,03,02,60.0227532366,PLT_learning_3,A,2014_Feb_11_1733,P03,
stim_fb/ques.jpg,stim_fb/negf.jpg,stim_fb/posf.jpg,stim_03/a.jpg,stim_03/b.jpg,2,1,j,1,21,81,15,f,0,0.649863369448,03,02,60.0227532366,PLT_learning_3,A,2014_Feb_11_1733,P03,
stim_fb/ques.jpg,stim_fb/negf.jpg,stim_fb/posf.jpg,stim_03/c.jpg,stim_03/d.jpg,2,2,j,1,22,82,31,j,1,0.41658055804,03,02,60.0227532366,PLT_learning_3,A,2014_Feb_11_1733,P03,
stim_fb/ques.jpg,stim_fb/negf.jpg,stim_fb/posf.jpg,stim_03/f.jpg,stim_03/e.jpg,1,3,f,1,23,83,41,f,1,0.499897651898,03,02,60.0227532366,PLT_learning_3,A,2014_Feb_11_1733,P03,
stim_fb/ques.jpg,stim_fb/posf.jpg,stim_fb/negf.jpg,stim_03/f.jpg,stim_03/e.jpg,1,3,f,1,24,84,48,j,0,0.633187539943,03,02,60.0227532366,PLT_learning_3,A,2014_Feb_11_1733,P03,
stim_fb/ques.jpg,stim_fb/negf.jpg,stim_fb/posf.jpg,stim_03/b.jpg,stim_03/a.jpg,1,1,f,1,25,85,5,f,1,0.38325080864,03,02,60.0227532366,PLT_learning_3,A,2014_Feb_11_1733,P03,
stim_fb/ques.jpg,stim_fb/negf.jpg,stim_fb/posf.jpg,stim_03/e.jpg,stim_03/f.jpg,2,3,j,1,26,86,51,j,1,0.449889218877,03,02,60.0227532366,PLT_learning_3,A,2014_Feb_11_1733,P03,
stim_fb/ques.jpg,stim_fb/negf.jpg,stim_fb/posf.jpg,stim_03/b.jpg,stim_03/a.jpg,1,1,f,1,27,87,6,f,1,0.416588115879,03,02,60.0227532366,PLT_learning_3,A,2014_Feb_11_1733,P03,
stim_fb/ques.jpg,stim_fb/negf.jpg,stim_fb/posf.jpg,stim_03/a.jpg,stim_03/b.jpg,2,1,j,1,28,88,14,j,1,0.283310835257,03,02,60.0227532366,PLT_learning_3,A,2014_Feb_11_1733,P03,
stim_fb/ques.jpg,stim_fb/negf.jpg,stim_fb/posf.jpg,stim_03/e.jpg,stim_03/f.jpg,2,3,j,1,29,89,54,f,0,0.516488976775,03,02,60.0227532366,PLT_learning_3,A,2014_Feb_11_1733,P03,
stim_fb/ques.jpg,stim_fb/negf.jpg,stim_fb/posf.jpg,stim_03/a.jpg,stim_03/b.jpg,2,1,j,1,30,90,16,j,1,0.64970186991,03,02,60.0227532366,PLT_learning_3,A,2014_Feb_11_1733,P03,
stim_fb/ques.jpg,stim_fb/negf.jpg,stim_fb/posf.jpg,stim_03/b.jpg,stim_03/a.jpg,1,1,f,1,31,91,2,f,1,0.366640894428,03,02,60.0227532366,PLT_learning_3,A,2014_Feb_11_1733,P03,
stim_fb/ques.jpg,stim_fb/negf.jpg,stim_fb/posf.jpg,stim_03/f.jpg,stim_03/e.jpg,1,3,f,1,32,92,44,j,0,0.449920635183,03,02,60.0227532366,PLT_learning_3,A,2014_Feb_11_1733,P03,
stim_fb/ques.jpg,stim_fb/posf.jpg,stim_fb/negf.jpg,stim_03/b.jpg,stim_03/a.jpg,1,1,f,1,33,93,8,f,1,0.333232745617,03,02,60.0227532366,PLT_learning_3,A,2014_Feb_11_1733,P03,
stim_fb/ques.jpg,stim_fb/negf.jpg,stim_fb/posf.jpg,stim_03/b.jpg,stim_03/a.jpg,1,1,f,1,34,94,1,j,0,1.06635722739,03,02,60.0227532366,PLT_learning_3,A,2014_Feb_11_1733,P03,
stim_fb/ques.jpg,stim_fb/posf.jpg,stim_fb/negf.jpg,stim_03/f.jpg,stim_03/e.jpg,1,3,f,1,35,95,46,f,1,0.633188267759,03,02,60.0227532366,PLT_learning_3,A,2014_Feb_11_1733,P03,
stim_fb/ques.jpg,stim_fb/negf.jpg,stim_fb/posf.jpg,stim_03/a.jpg,stim_03/b.jpg,2,1,j,1,36,96,12,j,1,0.616501331568,03,02,60.0227532366,PLT_learning_3,A,2014_Feb_11_1733,P03,
stim_fb/ques.jpg,stim_fb/posf.jpg,stim_fb/negf.jpg,stim_03/d.jpg,stim_03/c.jpg,1,2,f,1,37,97,28,f,1,0.48319465267,03,02,60.0227532366,PLT_learning_3,A,2014_Feb_11_1733,P03,
stim_fb/ques.jpg,stim_fb/negf.jpg,stim_fb/posf.jpg,stim_03/e.jpg,stim_03/f.jpg,2,3,j,1,38,98,55,j,1,0.63318107082,03,02,60.0227532366,PLT_learning_3,A,2014_Feb_11_1733,P03,
stim_fb/ques.jpg,stim_fb/posf.jpg,stim_fb/negf.jpg,stim_03/e.jpg,stim_03/f.jpg,2,3,j,1,39,99,56,f,0,0.866442047804,03,02,60.0227532366,PLT_learning_3,A,2014_Feb_11_1733,P03,
stim_fb/ques.jpg,stim_fb/negf.jpg,stim_fb/posf.jpg,stim_03/a.jpg,stim_03/b.jpg,2,1,j,1,40,100,11,j,1,0.599839198201,03,02,60.0227532366,PLT_learning_3,A,2014_Feb_11_1733,P03,
stim_fb/ques.jpg,stim_fb/negf.jpg,stim_fb/posf.jpg,stim_03/b.jpg,stim_03/a.jpg,1,1,f,1,41,101,7,f,1,0.499909853308,03,02,60.0227532366,PLT_learning_3,A,2014_Feb_11_1733,P03,
stim_fb/ques.jpg,stim_fb/negf.jpg,stim_fb/posf.jpg,stim_03/e.jpg,stim_03/f.jpg,2,3,j,1,42,102,50,j,1,0.733125356952,03,02,60.0227532366,PLT_learning_3,A,2014_Feb_11_1733,P03,
stim_fb/ques.jpg,stim_fb/posf.jpg,stim_fb/negf.jpg,stim_03/e.jpg,stim_03/f.jpg,2,3,j,1,43,103,58,f,0,0.433238369636,03,02,60.0227532366,PLT_learning_3,A,2014_Feb_11_1733,P03,
stim_fb/ques.jpg,stim_fb/negf.jpg,stim_fb/posf.jpg,stim_03/e.jpg,stim_03/f.jpg,2,3,j,1,44,104,53,j,1,0.516527587011,03,02,60.0227532366,PLT_learning_3,A,2014_Feb_11_1733,P03,
stim_fb/ques.jpg,stim_fb/negf.jpg,stim_fb/posf.jpg,stim_03/d.jpg,stim_03/c.jpg,1,2,f,1,45,105,22,j,0,0.599860897288,03,02,60.0227532366,PLT_learning_3,A,2014_Feb_11_1733,P03,
stim_fb/ques.jpg,stim_fb/posf.jpg,stim_fb/negf.jpg,stim_03/f.jpg,stim_03/e.jpg,1,3,f,1,46,106,49,f,1,0.216651180066,03,02,60.0227532366,PLT_learning_3,A,2014_Feb_11_1733,P03,
stim_fb/ques.jpg,stim_fb/negf.jpg,stim_fb/posf.jpg,stim_03/b.jpg,stim_03/a.jpg,1,1,f,1,47,107,3,j,0,0.333265217554,03,02,60.0227532366,PLT_learning_3,A,2014_Feb_11_1733,P03,
stim_fb/ques.jpg,stim_fb/negf.jpg,stim_fb/posf.jpg,stim_03/b.jpg,stim_03/a.jpg,1,1,f,1,48,108,4,f,1,0.333280321202,03,02,60.0227532366,PLT_learning_3,A,2014_Feb_11_1733,P03,
stim_fb/ques.jpg,stim_fb/posf.jpg,stim_fb/negf.jpg,stim_03/e.jpg,stim_03/f.jpg,2,3,j,1,49,109,57,j,1,0.549871664123,03,02,60.0227532366,PLT_learning_3,A,2014_Feb_11_1733,P03,
stim_fb/ques.jpg,stim_fb/negf.jpg,stim_fb/posf.jpg,stim_03/d.jpg,stim_03/c.jpg,1,2,f,1,50,110,26,f,1,0.816455677777,03,02,60.0227532366,PLT_learning_3,A,2014_Feb_11_1733,P03,
stim_fb/ques.jpg,stim_fb/posf.jpg,stim_fb/negf.jpg,stim_03/b.jpg,stim_03/a.jpg,1,1,f,1,51,111,9,j,0,0.449910737514,03,02,60.0227532366,PLT_learning_3,A,2014_Feb_11_1733,P03,
stim_fb/ques.jpg,stim_fb/negf.jpg,stim_fb/posf.jpg,stim_03/d.jpg,stim_03/c.jpg,1,2,f,1,52,112,21,f,1,0.966458682266,03,02,60.0227532366,PLT_learning_3,A,2014_Feb_11_1733,P03,
stim_fb/ques.jpg,stim_fb/posf.jpg,stim_fb/negf.jpg,stim_03/d.jpg,stim_03/c.jpg,1,2,f,1,53,113,29,j,0,0.666445858302,03,02,60.0227532366,PLT_learning_3,A,2014_Feb_11_1733,P03,
stim_fb/ques.jpg,stim_fb/negf.jpg,stim_fb/posf.jpg,stim_03/b.jpg,stim_03/a.jpg,1,1,f,1,54,114,0,f,1,1.01639354892,03,02,60.0227532366,PLT_learning_3,A,2014_Feb_11_1733,P03,
stim_fb/ques.jpg,stim_fb/negf.jpg,stim_fb/posf.jpg,stim_03/d.jpg,stim_03/c.jpg,1,2,f,1,55,115,23,j,0,0.516521806603,03,02,60.0227532366,PLT_learning_3,A,2014_Feb_11_1733,P03,
stim_fb/ques.jpg,stim_fb/negf.jpg,stim_fb/posf.jpg,stim_03/c.jpg,stim_03/d.jpg,2,2,j,1,56,116,33,f,0,0.649837685432,03,02,60.0227532366,PLT_learning_3,A,2014_Feb_11_1733,P03,
stim_fb/ques.jpg,stim_fb/posf.jpg,stim_fb/negf.jpg,stim_03/a.jpg,stim_03/b.jpg,2,1,j,1,57,117,18,j,1,0.366597084232,03,02,60.0227532366,PLT_learning_3,A,2014_Feb_11_1733,P03,
stim_fb/ques.jpg,stim_fb/posf.jpg,stim_fb/negf.jpg,stim_03/c.jpg,stim_03/d.jpg,2,2,j,1,58,118,38,f,0,0.699810795406,03,02,60.0227532366,PLT_learning_3,A,2014_Feb_11_1733,P03,
stim_fb/ques.jpg,stim_fb/negf.jpg,stim_fb/posf.jpg,stim_03/e.jpg,stim_03/f.jpg,2,3,j,1,59,119,52,j,1,0.483214793874,03,02,60.0227532366,PLT_learning_3,A,2014_Feb_11_1733,P03,
stim_fb/ques.jpg,stim_fb/negf.jpg,stim_fb/posf.jpg,stim_03/b.jpg,stim_03/a.jpg,1,1,f,2,0,120,1,j,0,0.599851685325,03,02,60.0227532366,PLT_learning_3,A,2014_Feb_11_1733,P03,
stim_fb/ques.jpg,stim_fb/negf.jpg,stim_fb/posf.jpg,stim_03/b.jpg,stim_03/a.jpg,1,1,f,2,1,121,0,f,1,0.449923919368,03,02,60.0227532366,PLT_learning_3,A,2014_Feb_11_1733,P03,
stim_fb/ques.jpg,stim_fb/negf.jpg,stim_fb/posf.jpg,stim_03/a.jpg,stim_03/b.jpg,2,1,j,2,2,122,16,j,1,0.516556449951,03,02,60.0227532366,PLT_learning_3,A,2014_Feb_11_1733,P03,
stim_fb/ques.jpg,stim_fb/posf.jpg,stim_fb/negf.jpg,stim_03/d.jpg,stim_03/c.jpg,1,2,f,2,3,123,28,f,1,0.433248507907,03,02,60.0227532366,PLT_learning_3,A,2014_Feb_11_1733,P03,
stim_fb/ques.jpg,stim_fb/negf.jpg,stim_fb/posf.jpg,stim_03/f.jpg,stim_03/e.jpg,1,3,f,2,4,124,41,j,0,0.349895540636,03,02,60.0227532366,PLT_learning_3,A,2014_Feb_11_1733,P03,
stim_fb/ques.jpg,stim_fb/posf.jpg,stim_fb/negf.jpg,stim_03/a.jpg,stim_03/b.jpg,2,1,j,2,5,125,18,f,0,0.333110647287,03,02,60.0227532366,PLT_learning_3,A,2014_Feb_11_1733,P03,
stim_fb/ques.jpg,stim_fb/negf.jpg,stim_fb/posf.jpg,stim_03/d.jpg,stim_03/c.jpg,1,2,f,2,6,126,26,j,0,0.48322156074,03,02,60.0227532366,PLT_learning_3,A,2014_Feb_11_1733,P03,
stim_fb/ques.jpg,stim_fb/negf.jpg,stim_fb/posf.jpg,stim_03/e.jpg,stim_03/f.jpg,2,3,j,2,7,127,51,f,0,0.816417984826,03,02,60.0227532366,PLT_learning_3,A,2014_Feb_11_1733,P03,
stim_fb/ques.jpg,stim_fb/posf.jpg,stim_fb/negf.jpg,stim_03/d.jpg,stim_03/c.jpg,1,2,f,2,8,128,29,j,0,0.483216279577,03,02,60.0227532366,PLT_learning_3,A,2014_Feb_11_1733,P03,
stim_fb/ques.jpg,stim_fb/negf.jpg,stim_fb/posf.jpg,stim_03/d.jpg,stim_03/c.jpg,1,2,f,2,9,129,20,f,1,0.499880015939,03,02,60.0227532366,PLT_learning_3,A,2014_Feb_11_1733,P03,
stim_fb/ques.jpg,stim_fb/negf.jpg,stim_fb/posf.jpg,stim_03/c.jpg,stim_03/d.jpg,2,2,j,2,10,130,33,j,1,0.566528940384,03,02,60.0227532366,PLT_learning_3,A,2014_Feb_11_1733,P03,
stim_fb/ques.jpg,stim_fb/negf.jpg,stim_fb/posf.jpg,stim_03/b.jpg,stim_03/a.jpg,1,1,f,2,11,131,5,f,1,0.51649938572,03,02,60.0227532366,PLT_learning_3,A,2014_Feb_11_1733,P03,
stim_fb/ques.jpg,stim_fb/posf.jpg,stim_fb/negf.jpg,stim_03/d.jpg,stim_03/c.jpg,1,2,f,2,12,132,27,j,0,0.516530287741,03,02,60.0227532366,PLT_learning_3,A,2014_Feb_11_1733,P03,
stim_fb/ques.jpg,stim_fb/negf.jpg,stim_fb/posf.jpg,stim_03/b.jpg,stim_03/a.jpg,1,1,f,2,13,133,2,f,1,0.583185612139,03,02,60.0227532366,PLT_learning_3,A,2014_Feb_11_1733,P03,
stim_fb/ques.jpg,stim_fb/posf.jpg,stim_fb/negf.jpg,stim_03/f.jpg,stim_03/e.jpg,1,3,f,2,14,134,47,j,0,0.51652749077,03,02,60.0227532366,PLT_learning_3,A,2014_Feb_11_1733,P03,
stim_fb/ques.jpg,stim_fb/negf.jpg,stim_fb/posf.jpg,stim_03/e.jpg,stim_03/f.jpg,2,3,j,2,15,135,54,f,0,0.416564281471,03,02,60.0227532366,PLT_learning_3,A,2014_Feb_11_1733,P03,
stim_fb/ques.jpg,stim_fb/negf.jpg,stim_fb/posf.jpg,stim_03/f.jpg,stim_03/e.jpg,1,3,f,2,16,136,43,j,0,0.583271903219,03,02,60.0227532366,PLT_learning_3,A,2014_Feb_11_1733,P03,
stim_fb/ques.jpg,stim_fb/posf.jpg,stim_fb/negf.jpg,stim_03/e.jpg,stim_03/f.jpg,2,3,j,2,17,137,57,f,0,0.299942806445,03,02,60.0227532366,PLT_learning_3,A,2014_Feb_11_1733,P03,
stim_fb/ques.jpg,stim_fb/negf.jpg,stim_fb/posf.jpg,stim_03/b.jpg,stim_03/a.jpg,1,1,f,2,18,138,3,j,0,0.333316907392,03,02,60.0227532366,PLT_learning_3,A,2014_Feb_11_1733,P03,
stim_fb/ques.jpg,stim_fb/posf.jpg,stim_fb/negf.jpg,stim_03/c.jpg,stim_03/d.jpg,2,2,j,2,19,139,37,f,0,0.466561261946,03,02,60.0227532366,PLT_learning_3,A,2014_Feb_11_1733,P03,
stim_fb/ques.jpg,stim_fb/negf.jpg,stim_fb/posf.jpg,stim_03/a.jpg,stim_03/b.jpg,2,1,j,2,20,140,12,j,1,0.499853149977,03,02,60.0227532366,PLT_learning_3,A,2014_Feb_11_1733,P03,
stim_fb/ques.jpg,stim_fb/negf.jpg,stim_fb/posf.jpg,stim_03/d.jpg,stim_03/c.jpg,1,2,f,2,21,141,23,f,1,0.599855931909,03,02,60.0227532366,PLT_learning_3,A,2014_Feb_11_1733,P03,
stim_fb/ques.jpg,stim_fb/negf.jpg,stim_fb/posf.jpg,stim_03/e.jpg,stim_03/f.jpg,2,3,j,2,22,142,50,j,1,0.649835517026,03,02,60.0227532366,PLT_learning_3,A,2014_Feb_11_1733,P03,
stim_fb/ques.jpg,stim_fb/posf.jpg,stim_fb/negf.jpg,stim_03/c.jpg,stim_03/d.jpg,2,2,j,2,23,143,38,f,0,0.249954304101,03,02,60.0227532366,PLT_learning_3,A,2014_Feb_11_1733,P03,
stim_fb/ques.jpg,stim_fb/negf.jpg,stim_fb/posf.jpg,stim_03/a.jpg,stim_03/b.jpg,2,1,j,2,24,144,17,j,1,0.516559225871,03,02,60.0227532366,PLT_learning_3,A,2014_Feb_11_1733,P03,
stim_fb/ques.jpg,stim_fb/negf.jpg,stim_fb/posf.jpg,stim_03/d.jpg,stim_03/c.jpg,1,2,f,2,25,145,24,f,1,0.483227753175,03,02,60.0227532366,PLT_learning_3,A,2014_Feb_11_1733,P03,
stim_fb/ques.jpg,stim_fb/negf.jpg,stim_fb/posf.jpg,stim_03/b.jpg,stim_03/a.jpg,1,1,f,2,26,146,7,j,0,0.433248237232,03,02,60.0227532366,PLT_learning_3,A,2014_Feb_11_1733,P03,
stim_fb/ques.jpg,stim_fb/posf.jpg,stim_fb/negf.jpg,stim_03/f.jpg,stim_03/e.jpg,1,3,f,2,27,147,49,f,1,0.466613568318,03,02,60.0227532366,PLT_learning_3,A,2014_Feb_11_1733,P03,
stim_fb/ques.jpg,stim_fb/negf.jpg,stim_fb/posf.jpg,stim_03/d.jpg,stim_03/c.jpg,1,2,f,2,28,148,25,j,0,0.499888936172,03,02,60.0227532366,PLT_learning_3,A,2014_Feb_11_1733,P03,
stim_fb/ques.jpg,stim_fb/negf.jpg,stim_fb/posf.jpg,stim_03/c.jpg,stim_03/d.jpg,2,2,j,2,29,149,32,f,0,0.599859225118,03,02,60.0227532366,PLT_learning_3,A,2014_Feb_11_1733,P03,
stim_fb/ques.jpg,stim_fb/negf.jpg,stim_fb/posf.jpg,stim_03/a.jpg,stim_03/b.jpg,2,1,j,2,30,150,14,j,1,0.483210751798,03,02,60.0227532366,PLT_learning_3,A,2014_Feb_11_1733,P03,
stim_fb/ques.jpg,stim_fb/negf.jpg,stim_fb/posf.jpg,stim_03/c.jpg,stim_03/d.jpg,2,2,j,2,31,151,34,f,0,0.599862325847,03,02,60.0227532366,PLT_learning_3,A,2014_Feb_11_1733,P03,
stim_fb/ques.jpg,stim_fb/negf.jpg,stim_fb/posf.jpg,stim_03/f.jpg,stim_03/e.jpg,1,3,f,2,32,152,42,j,0,0.26661032323,03,02,60.0227532366,PLT_learning_3,A,2014_Feb_11_1733,P03,
stim_fb/ques.jpg,stim_fb/posf.jpg,stim_fb/negf.jpg,stim_03/c.jpg,stim_03/d.jpg,2,2,j,2,33,153,39,f,0,0.316607375884,03,02,60.0227532366,PLT_learning_3,A,2014_Feb_11_1733,P03,
stim_fb/ques.jpg,stim_fb/negf.jpg,stim_fb/posf.jpg,stim_03/c.jpg,stim_03/d.jpg,2,2,j,2,34,154,36,j,1,0.499890641424,03,02,60.0227532366,PLT_learning_3,A,2014_Feb_11_1733,P03,
stim_fb/ques.jpg,stim_fb/posf.jpg,stim_fb/negf.jpg,stim_03/f.jpg,stim_03/e.jpg,1,3,f,2,35,155,46,f,1,0.416577430246,03,02,60.0227532366,PLT_learning_3,A,2014_Feb_11_1733,P03,
stim_fb/ques.jpg,stim_fb/negf.jpg,stim_fb/posf.jpg,stim_03/b.jpg,stim_03/a.jpg,1,1,f,2,36,156,6,j,0,0.299941690664,03,02,60.0227532366,PLT_learning_3,A,2014_Feb_11_1733,P03,
stim_fb/ques.jpg,stim_fb/posf.jpg,stim_fb/negf.jpg,stim_03/f.jpg,stim_03/e.jpg,1,3,f,2,37,157,48,f,1,0.583196718821,03,02,60.0227532366,PLT_learning_3,A,2014_Feb_11_1733,P03,
stim_fb/ques.jpg,stim_fb/negf.jpg,stim_fb/posf.jpg,stim_03/a.jpg,stim_03/b.jpg,2,1,j,2,38,158,11,j,1,0.716494558688,03,02,60.0227532366,PLT_learning_3,A,2014_Feb_11_1733,P03,
stim_fb/ques.jpg,stim_fb/posf.jpg,stim_fb/negf.jpg,stim_03/a.jpg,stim_03/b.jpg,2,1,j,2,39,159,19,f,0,0.633168682942,03,02,60.0227532366,PLT_learning_3,A,2014_Feb_11_1733,P03,
stim_fb/ques.jpg,stim_fb/negf.jpg,stim_fb/posf.jpg,stim_03/d.jpg,stim_03/c.jpg,1,2,f,2,40,160,21,f,1,1.13264507786,03,02,60.0227532366,PLT_learning_3,A,2014_Feb_11_1733,P03,
stim_fb/ques.jpg,stim_fb/negf.jpg,stim_fb/posf.jpg,stim_03/e.jpg,stim_03/f.jpg,2,3,j,2,41,161,53,j,1,1.44955826197,03,02,60.0227532366,PLT_learning_3,A,2014_Feb_11_1733,P03,
stim_fb/ques.jpg,stim_fb/negf.jpg,stim_fb/posf.jpg,stim_03/e.jpg,stim_03/f.jpg,2,3,j,2,42,162,55,j,1,0.849776964082,03,02,60.0227532366,PLT_learning_3,A,2014_Feb_11_1733,P03,
stim_fb/ques.jpg,stim_fb/negf.jpg,stim_fb/posf.jpg,stim_03/a.jpg,stim_03/b.jpg,2,1,j,2,43,163,13,f,0,1.44958459861,03,02,60.0227532366,PLT_learning_3,A,2014_Feb_11_1733,P03,
stim_fb/ques.jpg,stim_fb/negf.jpg,stim_fb/posf.jpg,stim_03/d.jpg,stim_03/c.jpg,1,2,f,2,44,164,22,j,0,0.799767457387,03,02,60.0227532366,PLT_learning_3,A,2014_Feb_11_1733,P03,
stim_fb/ques.jpg,stim_fb/negf.jpg,stim_fb/posf.jpg,stim_03/c.jpg,stim_03/d.jpg,2,2,j,2,45,165,30,f,0,1.48290437816,03,02,60.0227532366,PLT_learning_3,A,2014_Feb_11_1733,P03,
stim_fb/ques.jpg,stim_fb/posf.jpg,stim_fb/negf.jpg,stim_03/e.jpg,stim_03/f.jpg,2,3,j,2,46,166,58,j,1,0.466600103759,03,02,60.0227532366,PLT_learning_3,A,2014_Feb_11_1733,P03,
stim_fb/ques.jpg,stim_fb/negf.jpg,stim_fb/posf.jpg,stim_03/f.jpg,stim_03/e.jpg,1,3,f,2,47,167,40,f,1,0.649843673356,03,02,60.0227532366,PLT_learning_3,A,2014_Feb_11_1733,P03,
stim_fb/ques.jpg,stim_fb/negf.jpg,stim_fb/posf.jpg,stim_03/a.jpg,stim_03/b.jpg,2,1,j,2,48,168,15,j,1,0.51655604394,03,02,60.0227532366,PLT_learning_3,A,2014_Feb_11_1733,P03,
stim_fb/ques.jpg,stim_fb/posf.jpg,stim_fb/negf.jpg,stim_03/b.jpg,stim_03/a.jpg,1,1,f,2,49,169,8,f,1,0.666496811302,03,02,60.0227532366,PLT_learning_3,A,2014_Feb_11_1733,P03,
stim_fb/ques.jpg,stim_fb/posf.jpg,stim_fb/negf.jpg,stim_03/e.jpg,stim_03/f.jpg,2,3,j,2,50,170,56,j,1,0.649821026909,03,02,60.0227532366,PLT_learning_3,A,2014_Feb_11_1733,P03,
stim_fb/ques.jpg,stim_fb/negf.jpg,stim_fb/posf.jpg,stim_03/a.jpg,stim_03/b.jpg,2,1,j,2,51,171,10,f,0,0.549879167826,03,02,60.0227532366,PLT_learning_3,A,2014_Feb_11_1733,P03,
stim_fb/ques.jpg,stim_fb/negf.jpg,stim_fb/posf.jpg,stim_03/c.jpg,stim_03/d.jpg,2,2,j,2,52,172,35,j,1,0.633174953571,03,02,60.0227532366,PLT_learning_3,A,2014_Feb_11_1733,P03,
stim_fb/ques.jpg,stim_fb/negf.jpg,stim_fb/posf.jpg,stim_03/f.jpg,stim_03/e.jpg,1,3,f,2,53,173,45,f,1,1.23297970692,03,02,60.0227532366,PLT_learning_3,A,2014_Feb_11_1733,P03,
stim_fb/ques.jpg,stim_fb/negf.jpg,stim_fb/posf.jpg,stim_03/f.jpg,stim_03/e.jpg,1,3,f,2,54,174,44,j,0,1.16631932091,03,02,60.0227532366,PLT_learning_3,A,2014_Feb_11_1733,P03,
stim_fb/ques.jpg,stim_fb/negf.jpg,stim_fb/posf.jpg,stim_03/e.jpg,stim_03/f.jpg,2,3,j,2,55,175,52,f,0,0.699784558012,03,02,60.0227532366,PLT_learning_3,A,2014_Feb_11_1733,P03,
stim_fb/ques.jpg,stim_fb/negf.jpg,stim_fb/posf.jpg,stim_03/b.jpg,stim_03/a.jpg,1,1,f,2,56,176,4,j,0,0.333267019045,03,02,60.0227532366,PLT_learning_3,A,2014_Feb_11_1733,P03,
stim_fb/ques.jpg,stim_fb/negf.jpg,stim_fb/posf.jpg,stim_03/c.jpg,stim_03/d.jpg,2,2,j,2,57,177,31,f,0,0.449918403621,03,02,60.0227532366,PLT_learning_3,A,2014_Feb_11_1733,P03,
stim_fb/ques.jpg,stim_fb/posf.jpg,stim_fb/negf.jpg,stim_03/e.jpg,stim_03/f.jpg,2,3,j,2,58,178,59,j,1,1.0330399591,03,02,60.0227532366,PLT_learning_3,A,2014_Feb_11_1733,P03,
stim_fb/ques.jpg,stim_fb/posf.jpg,stim_fb/negf.jpg,stim_03/b.jpg,stim_03/a.jpg,1,1,f,2,59,179,9,f,1,0.533088764747,03,02,60.0227532366,PLT_learning_3,A,2014_Feb_11_1733,P03,
stim_fb/ques.jpg,stim_fb/posf.jpg,stim_fb/negf.jpg,stim_03/f.jpg,stim_03/e.jpg,1,3,f,3,0,180,47,j,0,1.2329896888,03,02,60.0227532366,PLT_learning_3,A,2014_Feb_11_1733,P03,
stim_fb/ques.jpg,stim_fb/posf.jpg,stim_fb/negf.jpg,stim_03/f.jpg,stim_03/e.jpg,1,3,f,3,1,181,49,j,0,0.849718606627,03,02,60.0227532366,PLT_learning_3,A,2014_Feb_11_1733,P03,
stim_fb/ques.jpg,stim_fb/posf.jpg,stim_fb/negf.jpg,stim_03/b.jpg,stim_03/a.jpg,1,1,f,3,2,182,9,f,1,1.24968623394,03,02,60.0227532366,PLT_learning_3,A,2014_Feb_11_1733,P03,
stim_fb/ques.jpg,stim_fb/posf.jpg,stim_fb/negf.jpg,stim_03/f.jpg,stim_03/e.jpg,1,3,f,3,3,183,46,f,1,1.36623881023,03,02,60.0227532366,PLT_learning_3,A,2014_Feb_11_1733,P03,
stim_fb/ques.jpg,stim_fb/negf.jpg,stim_fb/posf.jpg,stim_03/d.jpg,stim_03/c.jpg,1,2,f,3,4,184,20,j,0,0.799785003121,03,02,60.0227532366,PLT_learning_3,A,2014_Feb_11_1733,P03,
stim_fb/ques.jpg,stim_fb/posf.jpg,stim_fb/negf.jpg,stim_03/c.jpg,stim_03/d.jpg,2,2,j,3,5,185,39,f,0,0.599858449184,03,02,60.0227532366,PLT_learning_3,A,2014_Feb_11_1733,P03,
stim_fb/ques.jpg,stim_fb/negf.jpg,stim_fb/posf.jpg,stim_03/e.jpg,stim_03/f.jpg,2,3,j,3,6,186,52,j,1,0.716530669695,03,02,60.0227532366,PLT_learning_3,A,2014_Feb_11_1733,P03,
stim_fb/ques.jpg,stim_fb/negf.jpg,stim_fb/posf.jpg,stim_03/d.jpg,stim_03/c.jpg,1,2,f,3,7,187,25,f,1,0.416578600161,03,02,60.0227532366,PLT_learning_3,A,2014_Feb_11_1733,P03,
stim_fb/ques.jpg,stim_fb/negf.jpg,stim_fb/posf.jpg,stim_03/a.jpg,stim_03/b.jpg,2,1,j,3,8,188,13,j,1,0.44991235254,03,02,60.0227532366,PLT_learning_3,A,2014_Feb_11_1733,P03,
stim_fb/ques.jpg,stim_fb/negf.jpg,stim_fb/posf.jpg,stim_03/a.jpg,stim_03/b.jpg,2,1,j,3,9,189,16,f,0,0.349918054751,03,02,60.0227532366,PLT_learning_3,A,2014_Feb_11_1733,P03,
stim_fb/ques.jpg,stim_fb/posf.jpg,stim_fb/negf.jpg,stim_03/c.jpg,stim_03/d.jpg,2,2,j,3,10,190,37,j,1,0.766424381771,03,02,60.0227532366,PLT_learning_3,A,2014_Feb_11_1733,P03,
stim_fb/ques.jpg,stim_fb/negf.jpg,stim_fb/posf.jpg,stim_03/e.jpg,stim_03/f.jpg,2,3,j,3,11,191,54,f,0,0.466564326583,03,02,60.0227532366,PLT_learning_3,A,2014_Feb_11_1733,P03,
stim_fb/ques.jpg,stim_fb/posf.jpg,stim_fb/negf.jpg,stim_03/f.jpg,stim_03/e.jpg,1,3,f,3,12,192,48,j,0,0.316615045,03,02,60.0227532366,PLT_learning_3,A,2014_Feb_11_1733,P03,
stim_fb/ques.jpg,stim_fb/negf.jpg,stim_fb/posf.jpg,stim_03/e.jpg,stim_03/f.jpg,2,3,j,3,13,193,53,f,0,0.383259521357,03,02,60.0227532366,PLT_learning_3,A,2014_Feb_11_1733,P03,
stim_fb/ques.jpg,stim_fb/negf.jpg,stim_fb/posf.jpg,stim_03/b.jpg,stim_03/a.jpg,1,1,f,3,14,194,4,j,0,0.333259795039,03,02,60.0227532366,PLT_learning_3,A,2014_Feb_11_1733,P03,
stim_fb/ques.jpg,stim_fb/negf.jpg,stim_fb/posf.jpg,stim_03/c.jpg,stim_03/d.jpg,2,2,j,3,15,195,33,f,0,0.599855519884,03,02,60.0227532366,PLT_learning_3,A,2014_Feb_11_1733,P03,
stim_fb/ques.jpg,stim_fb/negf.jpg,stim_fb/posf.jpg,stim_03/a.jpg,stim_03/b.jpg,2,1,j,3,16,196,12,j,1,0.766500296992,03,02,60.0227532366,PLT_learning_3,A,2014_Feb_11_1733,P03,
stim_fb/ques.jpg,stim_fb/posf.jpg,stim_fb/negf.jpg,stim_03/b.jpg,stim_03/a.jpg,1,1,f,3,17,197,8,f,1,0.866463431101,03,02,60.0227532366,PLT_learning_3,A,2014_Feb_11_1733,P03,
stim_fb/ques.jpg,stim_fb/negf.jpg,stim_fb/posf.jpg,stim_03/a.jpg,stim_03/b.jpg,2,1,j,3,18,198,10,j,1,0.69984539665,03,02,60.0227532366,PLT_learning_3,A,2014_Feb_11_1733,P03,
stim_fb/ques.jpg,stim_fb/negf.jpg,stim_fb/posf.jpg,stim_03/f.jpg,stim_03/e.jpg,1,3,f,3,19,199,40,f,1,0.683165001768,03,02,60.0227532366,PLT_learning_3,A,2014_Feb_11_1733,P03,
stim_fb/ques.jpg,stim_fb/negf.jpg,stim_fb/posf.jpg,stim_03/b.jpg,stim_03/a.jpg,1,1,f,3,20,200,0,j,0,0.766460378494,03,02,60.0227532366,PLT_learning_3,A,2014_Feb_11_1733,P03,
stim_fb/ques.jpg,stim_fb/posf.jpg,stim_fb/negf.jpg,stim_03/e.jpg,stim_03/f.jpg,2,3,j,3,21,201,56,f,0,0.799780073834,03,02,60.0227532366,PLT_learning_3,A,2014_Feb_11_1733,P03,
stim_fb/ques.jpg,stim_fb/negf.jpg,stim_fb/posf.jpg,stim_03/c.jpg,stim_03/d.jpg,2,2,j,3,22,202,31,j,1,0.699779138504,03,02,60.0227532366,PLT_learning_3,A,2014_Feb_11_1733,P03,
stim_fb/ques.jpg,stim_fb/negf.jpg,stim_fb/posf.jpg,stim_03/b.jpg,stim_03/a.jpg,1,1,f,3,23,203,5,f,1,0.599844542521,03,02,60.0227532366,PLT_learning_3,A,2014_Feb_11_1733,P03,
stim_fb/ques.jpg,stim_fb/posf.jpg,stim_fb/negf.jpg,stim_03/e.jpg,stim_03/f.jpg,2,3,j,3,24,204,57,j,1,0.549869399478,03,02,60.0227532366,PLT_learning_3,A,2014_Feb_11_1733,P03,
stim_fb/ques.jpg,stim_fb/negf.jpg,stim_fb/posf.jpg,stim_03/c.jpg,stim_03/d.jpg,2,2,j,3,25,205,34,f,0,0.733134024555,03,02,60.0227532366,PLT_learning_3,A,2014_Feb_11_1733,P03,
stim_fb/ques.jpg,stim_fb/negf.jpg,stim_fb/posf.jpg,stim_03/e.jpg,stim_03/f.jpg,2,3,j,3,26,206,55,j,1,0.849776756566,03,02,60.0227532366,PLT_learning_3,A,2014_Feb_11_1733,P03,
stim_fb/ques.jpg,stim_fb/negf.jpg,stim_fb/posf.jpg,stim_03/f.jpg,stim_03/e.jpg,1,3,f,3,27,207,41,f,1,0.766453984557,03,02,60.0227532366,PLT_learning_3,A,2014_Feb_11_1733,P03,
stim_fb/ques.jpg,stim_fb/posf.jpg,stim_fb/negf.jpg,stim_03/d.jpg,stim_03/c.jpg,1,2,f,3,28,208,28,j,0,0.616504444328,03,02,60.0227532366,PLT_learning_3,A,2014_Feb_11_1733,P03,
stim_fb/ques.jpg,stim_fb/negf.jpg,stim_fb/posf.jpg,stim_03/c.jpg,stim_03/d.jpg,2,2,j,3,29,209,35,f,0,0.399896572206,03,02,60.0227532366,PLT_learning_3,A,2014_Feb_11_1733,P03,
stim_fb/ques.jpg,stim_fb/negf.jpg,stim_fb/posf.jpg,stim_03/f.jpg,stim_03/e.jpg,1,3,f,3,30,210,42,j,0,0.616548904143,03,02,60.0227532366,PLT_learning_3,A,2014_Feb_11_1733,P03,
stim_fb/ques.jpg,stim_fb/posf.jpg,stim_fb/negf.jpg,stim_03/a.jpg,stim_03/b.jpg,2,1,j,3,31,211,19,f,0,0.516549884587,03,02,60.0227532366,PLT_learning_3,A,2014_Feb_11_1733,P03,
stim_fb/ques.jpg,stim_fb/posf.jpg,stim_fb/negf.jpg,stim_03/c.jpg,stim_03/d.jpg,2,2,j,3,32,212,38,j,1,0.733152992836,03,02,60.0227532366,PLT_learning_3,A,2014_Feb_11_1733,P03,
stim_fb/ques.jpg,stim_fb/negf.jpg,stim_fb/posf.jpg,stim_03/e.jpg,stim_03/f.jpg,2,3,j,3,33,213,50,j,1,0.749785036202,03,02,60.0227532366,PLT_learning_3,A,2014_Feb_11_1733,P03,
stim_fb/ques.jpg,stim_fb/negf.jpg,stim_fb/posf.jpg,stim_03/d.jpg,stim_03/c.jpg,1,2,f,3,34,214,22,f,1,0.633169176172,03,02,60.0227532366,PLT_learning_3,A,2014_Feb_11_1733,P03,
stim_fb/ques.jpg,stim_fb/negf.jpg,stim_fb/posf.jpg,stim_03/b.jpg,stim_03/a.jpg,1,1,f,3,35,215,3,j,0,0.383249659777,03,02,60.0227532366,PLT_learning_3,A,2014_Feb_11_1733,P03,
stim_fb/ques.jpg,stim_fb/negf.jpg,stim_fb/posf.jpg,stim_03/b.jpg,stim_03/a.jpg,1,1,f,3,36,216,6,f,1,0.399927257691,03,02,60.0227532366,PLT_learning_3,A,2014_Feb_11_1733,P03,
stim_fb/ques.jpg,stim_fb/negf.jpg,stim_fb/posf.jpg,stim_03/f.jpg,stim_03/e.jpg,1,3,f,3,37,217,45,j,0,0.483255488303,03,02,60.0227532366,PLT_learning_3,A,2014_Feb_11_1733,P03,
stim_fb/ques.jpg,stim_fb/negf.jpg,stim_fb/posf.jpg,stim_03/c.jpg,stim_03/d.jpg,2,2,j,3,38,218,36,f,0,0.416571448335,03,02,60.0227532366,PLT_learning_3,A,2014_Feb_11_1733,P03,
stim_fb/ques.jpg,stim_fb/negf.jpg,stim_fb/posf.jpg,stim_03/c.jpg,stim_03/d.jpg,2,2,j,3,39,219,32,j,1,0.583174791167,03,02,60.0227532366,PLT_learning_3,A,2014_Feb_11_1733,P03,
stim_fb/ques.jpg,stim_fb/posf.jpg,stim_fb/negf.jpg,stim_03/a.jpg,stim_03/b.jpg,2,1,j,3,40,220,18,f,0,0.64985579958,03,02,60.0227532366,PLT_learning_3,A,2014_Feb_11_1733,P03,
stim_fb/ques.jpg,stim_fb/posf.jpg,stim_fb/negf.jpg,stim_03/e.jpg,stim_03/f.jpg,2,3,j,3,41,221,58,j,1,0.516558293546,03,02,60.0227532366,PLT_learning_3,A,2014_Feb_11_1733,P03,
stim_fb/ques.jpg,stim_fb/negf.jpg,stim_fb/posf.jpg,stim_03/a.jpg,stim_03/b.jpg,2,1,j,3,42,222,11,f,0,0.48319089631,03,02,60.0227532366,PLT_learning_3,A,2014_Feb_11_1733,P03,
stim_fb/ques.jpg,stim_fb/negf.jpg,stim_fb/posf.jpg,stim_03/d.jpg,stim_03/c.jpg,1,2,f,3,43,223,26,j,0,0.666459686769,03,02,60.0227532366,PLT_learning_3,A,2014_Feb_11_1733,P03,
stim_fb/ques.jpg,stim_fb/negf.jpg,stim_fb/posf.jpg,stim_03/e.jpg,stim_03/f.jpg,2,3,j,3,44,224,51,f,0,0.533161913068,03,02,60.0227532366,PLT_learning_3,A,2014_Feb_11_1733,P03,
stim_fb/ques.jpg,stim_fb/negf.jpg,stim_fb/posf.jpg,stim_03/b.jpg,stim_03/a.jpg,1,1,f,3,45,225,2,j,0,0.716509271359,03,02,60.0227532366,PLT_learning_3,A,2014_Feb_11_1733,P03,
stim_fb/ques.jpg,stim_fb/posf.jpg,stim_fb/negf.jpg,stim_03/d.jpg,stim_03/c.jpg,1,2,f,3,46,226,29,f,1,0.783143690649,03,02,60.0227532366,PLT_learning_3,A,2014_Feb_11_1733,P03,
stim_fb/ques.jpg,stim_fb/negf.jpg,stim_fb/posf.jpg,stim_03/b.jpg,stim_03/a.jpg,1,1,f,3,47,227,7,j,0,0.783135194471,03,02,60.0227532366,PLT_learning_3,A,2014_Feb_11_1733,P03,
stim_fb/ques.jpg,stim_fb/negf.jpg,stim_fb/posf.jpg,stim_03/d.jpg,stim_03/c.jpg,1,2,f,3,48,228,23,f,1,0.549886782805,03,02,60.0227532366,PLT_learning_3,A,2014_Feb_11_1733,P03,
stim_fb/ques.jpg,stim_fb/negf.jpg,stim_fb/posf.jpg,stim_03/d.jpg,stim_03/c.jpg,1,2,f,3,49,229,21,j,0,0.549879769324,03,02,60.0227532366,PLT_learning_3,A,2014_Feb_11_1733,P03,
stim_fb/ques.jpg,stim_fb/posf.jpg,stim_fb/negf.jpg,stim_03/d.jpg,stim_03/c.jpg,1,2,f,3,50,230,27,f,1,0.76645752438,03,02,60.0227532366,PLT_learning_3,A,2014_Feb_11_1733,P03,
stim_fb/ques.jpg,stim_fb/posf.jpg,stim_fb/negf.jpg,stim_03/e.jpg,stim_03/f.jpg,2,3,j,3,51,231,59,j,1,0.583182736973,03,02,60.0227532366,PLT_learning_3,A,2014_Feb_11_1733,P03,
stim_fb/ques.jpg,stim_fb/negf.jpg,stim_fb/posf.jpg,stim_03/b.jpg,stim_03/a.jpg,1,1,f,3,52,232,1,j,0,0.599860930368,03,02,60.0227532366,PLT_learning_3,A,2014_Feb_11_1733,P03,
stim_fb/ques.jpg,stim_fb/negf.jpg,stim_fb/posf.jpg,stim_03/a.jpg,stim_03/b.jpg,2,1,j,3,53,233,14,j,1,0.699805339809,03,02,60.0227532366,PLT_learning_3,A,2014_Feb_11_1733,P03,
stim_fb/ques.jpg,stim_fb/negf.jpg,stim_fb/posf.jpg,stim_03/f.jpg,stim_03/e.jpg,1,3,f,3,54,234,44,j,0,0.816439933533,03,02,60.0227532366,PLT_learning_3,A,2014_Feb_11_1733,P03,
stim_fb/ques.jpg,stim_fb/negf.jpg,stim_fb/posf.jpg,stim_03/a.jpg,stim_03/b.jpg,2,1,j,3,55,235,17,j,1,0.466560976232,03,02,60.0227532366,PLT_learning_3,A,2014_Feb_11_1733,P03,
stim_fb/ques.jpg,stim_fb/negf.jpg,stim_fb/posf.jpg,stim_03/a.jpg,stim_03/b.jpg,2,1,j,3,56,236,15,j,1,0.899752107129,03,02,60.0227532366,PLT_learning_3,A,2014_Feb_11_1733,P03,
stim_fb/ques.jpg,stim_fb/negf.jpg,stim_fb/posf.jpg,stim_03/c.jpg,stim_03/d.jpg,2,2,j,3,57,237,30,None,0,,03,02,60.0227532366,PLT_learning_3,A,2014_Feb_11_1733,P03,
stim_fb/ques.jpg,stim_fb/negf.jpg,stim_fb/posf.jpg,stim_03/f.jpg,stim_03/e.jpg,1,3,f,3,58,238,43,j,0,0.449909609702,03,02,60.0227532366,PLT_learning_3,A,2014_Feb_11_1733,P03,
stim_fb/ques.jpg,stim_fb/negf.jpg,stim_fb/posf.jpg,stim_03/d.jpg,stim_03/c.jpg,1,2,f,3,59,239,24,j,0,0.716556822881,03,02,60.0227532366,PLT_learning_3,A,2014_Feb_11_1733,P03,
stim_fb/ques.jpg,stim_fb/negf.jpg,stim_fb/posf.jpg,stim_03/c.jpg,stim_03/d.jpg,2,2,j,4,0,240,33,j,1,1.03305594996,03,02,60.0227532366,PLT_learning_3,A,2014_Feb_11_1733,P03,
stim_fb/ques.jpg,stim_fb/negf.jpg,stim_fb/posf.jpg,stim_03/f.jpg,stim_03/e.jpg,1,3,f,4,1,241,45,j,0,0.633171958107,03,02,60.0227532366,PLT_learning_3,A,2014_Feb_11_1733,P03,
stim_fb/ques.jpg,stim_fb/negf.jpg,stim_fb/posf.jpg,stim_03/e.jpg,stim_03/f.jpg,2,3,j,4,2,242,51,f,0,1.16634813573,03,02,60.0227532366,PLT_learning_3,A,2014_Feb_11_1733,P03,
stim_fb/ques.jpg,stim_fb/posf.jpg,stim_fb/negf.jpg,stim_03/c.jpg,stim_03/d.jpg,2,2,j,4,3,243,38,j,1,0.316564997256,03,02,60.0227532366,PLT_learning_3,A,2014_Feb_11_1733,P03,
stim_fb/ques.jpg,stim_fb/negf.jpg,stim_fb/posf.jpg,stim_03/a.jpg,stim_03/b.jpg,2,1,j,4,4,244,17,f,0,0.966355230412,03,02,60.0227532366,PLT_learning_3,A,2014_Feb_11_1733,P03,
stim_fb/ques.jpg,stim_fb/posf.jpg,stim_fb/negf.jpg,stim_03/a.jpg,stim_03/b.jpg,2,1,j,4,5,245,19,j,1,0.649838034302,03,02,60.0227532366,PLT_learning_3,A,2014_Feb_11_1733,P03,
stim_fb/ques.jpg,stim_fb/posf.jpg,stim_fb/negf.jpg,stim_03/e.jpg,stim_03/f.jpg,2,3,j,4,6,246,59,j,1,0.333251909384,03,02,60.0227532366,PLT_learning_3,A,2014_Feb_11_1733,P03,
stim_fb/ques.jpg,stim_fb/negf.jpg,stim_fb/posf.jpg,stim_03/b.jpg,stim_03/a.jpg,1,1,f,4,7,247,2,f,1,0.53320807212,03,02,60.0227532366,PLT_learning_3,A,2014_Feb_11_1733,P03,
stim_fb/ques.jpg,stim_fb/negf.jpg,stim_fb/posf.jpg,stim_03/d.jpg,stim_03/c.jpg,1,2,f,4,8,248,21,j,0,0.699942168856,03,02,60.0227532366,PLT_learning_3,A,2014_Feb_11_1733,P03,
stim_fb/ques.jpg,stim_fb/negf.jpg,stim_fb/posf.jpg,stim_03/a.jpg,stim_03/b.jpg,2,1,j,4,9,249,10,j,1,0.516509936017,03,02,60.0227532366,PLT_learning_3,A,2014_Feb_11_1733,P03,
stim_fb/ques.jpg,stim_fb/negf.jpg,stim_fb/posf.jpg,stim_03/e.jpg,stim_03/f.jpg,2,3,j,4,10,250,54,j,1,0.783106758596,03,02,60.0227532366,PLT_learning_3,A,2014_Feb_11_1733,P03,
stim_fb/ques.jpg,stim_fb/negf.jpg,stim_fb/posf.jpg,stim_03/b.jpg,stim_03/a.jpg,1,1,f,4,11,251,5,j,0,0.766464688235,03,02,60.0227532366,PLT_learning_3,A,2014_Feb_11_1733,P03,
stim_fb/ques.jpg,stim_fb/posf.jpg,stim_fb/negf.jpg,stim_03/c.jpg,stim_03/d.jpg,2,2,j,4,12,252,37,j,1,1.14965607777,03,02,60.0227532366,PLT_learning_3,A,2014_Feb_11_1733,P03,
stim_fb/ques.jpg,stim_fb/negf.jpg,stim_fb/posf.jpg,stim_03/f.jpg,stim_03/e.jpg,1,3,f,4,13,253,44,f,1,0.733157783776,03,02,60.0227532366,PLT_learning_3,A,2014_Feb_11_1733,P03,
stim_fb/ques.jpg,stim_fb/posf.jpg,stim_fb/negf.jpg,stim_03/b.jpg,stim_03/a.jpg,1,1,f,4,14,254,8,j,0,0.449889886542,03,02,60.0227532366,PLT_learning_3,A,2014_Feb_11_1733,P03,
stim_fb/ques.jpg,stim_fb/negf.jpg,stim_fb/posf.jpg,stim_03/b.jpg,stim_03/a.jpg,1,1,f,4,15,255,6,j,0,0.466597387989,03,02,60.0227532366,PLT_learning_3,A,2014_Feb_11_1733,P03,
stim_fb/ques.jpg,stim_fb/negf.jpg,stim_fb/posf.jpg,stim_03/d.jpg,stim_03/c.jpg,1,2,f,4,16,256,26,j,0,0.466564488988,03,02,60.0227532366,PLT_learning_3,A,2014_Feb_11_1733,P03,
stim_fb/ques.jpg,stim_fb/negf.jpg,stim_fb/posf.jpg,stim_03/d.jpg,stim_03/c.jpg,1,2,f,4,17,257,24,None,0,,03,02,60.0227532366,PLT_learning_3,A,2014_Feb_11_1733,P03,
stim_fb/ques.jpg,stim_fb/posf.jpg,stim_fb/negf.jpg,stim_03/e.jpg,stim_03/f.jpg,2,3,j,4,18,258,58,j,1,1.16632382313,03,02,60.0227532366,PLT_learning_3,A,2014_Feb_11_1733,P03,
stim_fb/ques.jpg,stim_fb/negf.jpg,stim_fb/posf.jpg,stim_03/c.jpg,stim_03/d.jpg,2,2,j,4,19,259,31,f,0,0.416593024112,03,02,60.0227532366,PLT_learning_3,A,2014_Feb_11_1733,P03,
stim_fb/ques.jpg,stim_fb/negf.jpg,stim_fb/posf.jpg,stim_03/d.jpg,stim_03/c.jpg,1,2,f,4,20,260,20,j,0,0.533223416365,03,02,60.0227532366,PLT_learning_3,A,2014_Feb_11_1733,P03,
stim_fb/ques.jpg,stim_fb/negf.jpg,stim_fb/posf.jpg,stim_03/b.jpg,stim_03/a.jpg,1,1,f,4,21,261,1,j,0,0.533215428455,03,02,60.0227532366,PLT_learning_3,A,2014_Feb_11_1733,P03,
stim_fb/ques.jpg,stim_fb/negf.jpg,stim_fb/posf.jpg,stim_03/b.jpg,stim_03/a.jpg,1,1,f,4,22,262,3,j,0,1.04969294366,03,02,60.0227532366,PLT_learning_3,A,2014_Feb_11_1733,P03,
stim_fb/ques.jpg,stim_fb/posf.jpg,stim_fb/negf.jpg,stim_03/d.jpg,stim_03/c.jpg,1,2,f,4,23,263,28,f,1,1.54951266833,03,02,60.0227532366,PLT_learning_3,A,2014_Feb_11_1733,P03,
stim_fb/ques.jpg,stim_fb/negf.jpg,stim_fb/posf.jpg,stim_03/e.jpg,stim_03/f.jpg,2,3,j,4,24,264,52,None,0,,03,02,60.0227532366,PLT_learning_3,A,2014_Feb_11_1733,P03,
stim_fb/ques.jpg,stim_fb/negf.jpg,stim_fb/posf.jpg,stim_03/d.jpg,stim_03/c.jpg,1,2,f,4,25,265,22,j,0,0.533221885551,03,02,60.0227532366,PLT_learning_3,A,2014_Feb_11_1733,P03,
stim_fb/ques.jpg,stim_fb/negf.jpg,stim_fb/posf.jpg,stim_03/a.jpg,stim_03/b.jpg,2,1,j,4,26,266,11,f,0,0.883094960189,03,02,60.0227532366,PLT_learning_3,A,2014_Feb_11_1733,P03,
stim_fb/ques.jpg,stim_fb/posf.jpg,stim_fb/negf.jpg,stim_03/e.jpg,stim_03/f.jpg,2,3,j,4,27,267,57,j,1,0.749810064586,03,02,60.0227532366,PLT_learning_3,A,2014_Feb_11_1733,P03,
stim_fb/ques.jpg,stim_fb/negf.jpg,stim_fb/posf.jpg,stim_03/c.jpg,stim_03/d.jpg,2,2,j,4,28,268,35,j,1,0.599793225614,03,02,60.0227532366,PLT_learning_3,A,2014_Feb_11_1733,P03,
stim_fb/ques.jpg,stim_fb/posf.jpg,stim_fb/negf.jpg,stim_03/a.jpg,stim_03/b.jpg,2,1,j,4,29,269,18,None,0,,03,02,60.0227532366,PLT_learning_3,A,2014_Feb_11_1733,P03,
stim_fb/ques.jpg,stim_fb/posf.jpg,stim_fb/negf.jpg,stim_03/d.jpg,stim_03/c.jpg,1,2,f,4,30,270,29,j,0,0.616514032225,03,02,60.0227532366,PLT_learning_3,A,2014_Feb_11_1733,P03,
stim_fb/ques.jpg,stim_fb/negf.jpg,stim_fb/posf.jpg,stim_03/c.jpg,stim_03/d.jpg,2,2,j,4,31,271,36,j,1,1.51623258171,03,02,60.0227532366,PLT_learning_3,A,2014_Feb_11_1733,P03,
stim_fb/ques.jpg,stim_fb/negf.jpg,stim_fb/posf.jpg,stim_03/a.jpg,stim_03/b.jpg,2,1,j,4,32,272,14,j,1,0.966409449553,03,02,60.0227532366,PLT_learning_3,A,2014_Feb_11_1733,P03,
stim_fb/ques.jpg,stim_fb/negf.jpg,stim_fb/posf.jpg,stim_03/c.jpg,stim_03/d.jpg,2,2,j,4,33,273,34,None,0,,03,02,60.0227532366,PLT_learning_3,A,2014_Feb_11_1733,P03,
stim_fb/ques.jpg,stim_fb/posf.jpg,stim_fb/negf.jpg,stim_03/e.jpg,stim_03/f.jpg,2,3,j,4,34,274,56,j,1,1.3496156871,03,02,60.0227532366,PLT_learning_3,A,2014_Feb_11_1733,P03,
stim_fb/ques.jpg,stim_fb/posf.jpg,stim_fb/negf.jpg,stim_03/d.jpg,stim_03/c.jpg,1,2,f,4,35,275,27,j,0,0.383241130517,03,02,60.0227532366,PLT_learning_3,A,2014_Feb_11_1733,P03,
stim_fb/ques.jpg,stim_fb/negf.jpg,stim_fb/posf.jpg,stim_03/f.jpg,stim_03/e.jpg,1,3,f,4,36,276,40,j,0,1.43290619168,03,02,60.0227532366,PLT_learning_3,A,2014_Feb_11_1733,P03,
stim_fb/ques.jpg,stim_fb/negf.jpg,stim_fb/posf.jpg,stim_03/c.jpg,stim_03/d.jpg,2,2,j,4,37,277,30,j,1,0.449908087909,03,02,60.0227532366,PLT_learning_3,A,2014_Feb_11_1733,P03,
stim_fb/ques.jpg,stim_fb/posf.jpg,stim_fb/negf.jpg,stim_03/f.jpg,stim_03/e.jpg,1,3,f,4,38,278,46,j,0,0.433203906738,03,02,60.0227532366,PLT_learning_3,A,2014_Feb_11_1733,P03,
stim_fb/ques.jpg,stim_fb/negf.jpg,stim_fb/posf.jpg,stim_03/c.jpg,stim_03/d.jpg,2,2,j,4,39,279,32,j,1,0.416570305486,03,02,60.0227532366,PLT_learning_3,A,2014_Feb_11_1733,P03,
stim_fb/ques.jpg,stim_fb/posf.jpg,stim_fb/negf.jpg,stim_03/c.jpg,stim_03/d.jpg,2,2,j,4,40,280,39,j,1,1.43290704882,03,02,60.0227532366,PLT_learning_3,A,2014_Feb_11_1733,P03,
stim_fb/ques.jpg,stim_fb/negf.jpg,stim_fb/posf.jpg,stim_03/a.jpg,stim_03/b.jpg,2,1,j,4,41,281,16,j,1,0.633200760898,03,02,60.0227532366,PLT_learning_3,A,2014_Feb_11_1733,P03,
stim_fb/ques.jpg,stim_fb/negf.jpg,stim_fb/posf.jpg,stim_03/a.jpg,stim_03/b.jpg,2,1,j,4,42,282,15,j,1,0.466568606253,03,02,60.0227532366,PLT_learning_3,A,2014_Feb_11_1733,P03,
stim_fb/ques.jpg,stim_fb/negf.jpg,stim_fb/posf.jpg,stim_03/e.jpg,stim_03/f.jpg,2,3,j,4,43,283,50,j,1,1.1163622078,03,02,60.0227532366,PLT_learning_3,A,2014_Feb_11_1733,P03,
stim_fb/ques.jpg,stim_fb/posf.jpg,stim_fb/negf.jpg,stim_03/f.jpg,stim_03/e.jpg,1,3,f,4,44,284,48,j,0,0.333256679274,03,02,60.0227532366,PLT_learning_3,A,2014_Feb_11_1733,P03,
stim_fb/ques.jpg,stim_fb/posf.jpg,stim_fb/negf.jpg,stim_03/f.jpg,stim_03/e.jpg,1,3,f,4,45,285,49,j,0,0.433236225292,03,02,60.0227532366,PLT_learning_3,A,2014_Feb_11_1733,P03,
stim_fb/ques.jpg,stim_fb/negf.jpg,stim_fb/posf.jpg,stim_03/f.jpg,stim_03/e.jpg,1,3,f,4,46,286,41,j,0,0.399897510546,03,02,60.0227532366,PLT_learning_3,A,2014_Feb_11_1733,P03,
stim_fb/ques.jpg,stim_fb/posf.jpg,stim_fb/negf.jpg,stim_03/f.jpg,stim_03/e.jpg,1,3,f,4,47,287,47,j,0,0.166647634229,03,02,60.0227532366,PLT_learning_3,A,2014_Feb_11_1733,P03,
stim_fb/ques.jpg,stim_fb/negf.jpg,stim_fb/posf.jpg,stim_03/d.jpg,stim_03/c.jpg,1,2,f,4,48,288,25,j,0,0.199983004641,03,02,60.0227532366,PLT_learning_3,A,2014_Feb_11_1733,P03,
stim_fb/ques.jpg,stim_fb/negf.jpg,stim_fb/posf.jpg,stim_03/a.jpg,stim_03/b.jpg,2,1,j,4,49,289,13,j,1,0.466559499553,03,02,60.0227532366,PLT_learning_3,A,2014_Feb_11_1733,P03,
stim_fb/ques.jpg,stim_fb/negf.jpg,stim_fb/posf.jpg,stim_03/b.jpg,stim_03/a.jpg,1,1,f,4,50,290,4,j,0,0.449847706408,03,02,60.0227532366,PLT_learning_3,A,2014_Feb_11_1733,P03,
stim_fb/ques.jpg,stim_fb/negf.jpg,stim_fb/posf.jpg,stim_03/e.jpg,stim_03/f.jpg,2,3,j,4,51,291,55,j,1,0.566533325313,03,02,60.0227532366,PLT_learning_3,A,2014_Feb_11_1733,P03,
stim_fb/ques.jpg,stim_fb/negf.jpg,stim_fb/posf.jpg,stim_03/b.jpg,stim_03/a.jpg,1,1,f,4,52,292,0,j,0,0.366649838723,03,02,60.0227532366,PLT_learning_3,A,2014_Feb_11_1733,P03,
stim_fb/ques.jpg,stim_fb/negf.jpg,stim_fb/posf.jpg,stim_03/e.jpg,stim_03/f.jpg,2,3,j,4,53,293,53,j,1,0.316612693137,03,02,60.0227532366,PLT_learning_3,A,2014_Feb_11_1733,P03,
stim_fb/ques.jpg,stim_fb/negf.jpg,stim_fb/posf.jpg,stim_03/a.jpg,stim_03/b.jpg,2,1,j,4,54,294,12,j,1,0.399922271261,03,02,60.0227532366,PLT_learning_3,A,2014_Feb_11_1733,P03,
stim_fb/ques.jpg,stim_fb/negf.jpg,stim_fb/posf.jpg,stim_03/f.jpg,stim_03/e.jpg,1,3,f,4,55,295,43,j,0,0.666462155925,03,02,60.0227532366,PLT_learning_3,A,2014_Feb_11_1733,P03,
stim_fb/ques.jpg,stim_fb/posf.jpg,stim_fb/negf.jpg,stim_03/b.jpg,stim_03/a.jpg,1,1,f,4,56,296,9,j,0,0.766467524305,03,02,60.0227532366,PLT_learning_3,A,2014_Feb_11_1733,P03,
stim_fb/ques.jpg,stim_fb/negf.jpg,stim_fb/posf.jpg,stim_03/f.jpg,stim_03/e.jpg,1,3,f,4,57,297,42,j,0,0.383275208456,03,02,60.0227532366,PLT_learning_3,A,2014_Feb_11_1733,P03,
stim_fb/ques.jpg,stim_fb/negf.jpg,stim_fb/posf.jpg,stim_03/d.jpg,stim_03/c.jpg,1,2,f,4,58,298,23,j,0,0.616526796039,03,02,60.0227532366,PLT_learning_3,A,2014_Feb_11_1733,P03,
stim_fb/ques.jpg,stim_fb/negf.jpg,stim_fb/posf.jpg,stim_03/b.jpg,stim_03/a.jpg,1,1,f,4,59,299,7,f,1,0.316676572356,03,02,60.0227532366,PLT_learning_3,A,2014_Feb_11_1733,P03,
stim_fb/ques.jpg,stim_fb/negf.jpg,stim_fb/posf.jpg,stim_03/c.jpg,stim_03/d.jpg,2,2,j,5,0,300,36,j,1,1.5828697679,03,02,60.0227532366,PLT_learning_3,A,2014_Feb_11_1733,P03,
stim_fb/ques.jpg,stim_fb/negf.jpg,stim_fb/posf.jpg,stim_03/c.jpg,stim_03/d.jpg,2,2,j,5,1,301,32,f,0,0.649815366802,03,02,60.0227532366,PLT_learning_3,A,2014_Feb_11_1733,P03,
stim_fb/ques.jpg,stim_fb/posf.jpg,stim_fb/negf.jpg,stim_03/a.jpg,stim_03/b.jpg,2,1,j,5,2,302,18,j,1,0.299961606304,03,02,60.0227532366,PLT_learning_3,A,2014_Feb_11_1733,P03,
stim_fb/ques.jpg,stim_fb/negf.jpg,stim_fb/posf.jpg,stim_03/d.jpg,stim_03/c.jpg,1,2,f,5,3,303,24,f,1,0.649852813136,03,02,60.0227532366,PLT_learning_3,A,2014_Feb_11_1733,P03,
stim_fb/ques.jpg,stim_fb/posf.jpg,stim_fb/negf.jpg,stim_03/c.jpg,stim_03/d.jpg,2,2,j,5,4,304,39,j,1,0.300005497704,03,02,60.0227532366,PLT_learning_3,A,2014_Feb_11_1733,P03,
stim_fb/ques.jpg,stim_fb/negf.jpg,stim_fb/posf.jpg,stim_03/d.jpg,stim_03/c.jpg,1,2,f,5,5,305,23,f,1,0.349938126781,03,02,60.0227532366,PLT_learning_3,A,2014_Feb_11_1733,P03,
stim_fb/ques.jpg,stim_fb/negf.jpg,stim_fb/posf.jpg,stim_03/a.jpg,stim_03/b.jpg,2,1,j,5,6,306,11,j,1,0.44987217239,03,02,60.0227532366,PLT_learning_3,A,2014_Feb_11_1733,P03,
stim_fb/ques.jpg,stim_fb/negf.jpg,stim_fb/posf.jpg,stim_03/a.jpg,stim_03/b.jpg,2,1,j,5,7,307,15,f,0,0.283281073074,03,02,60.0227532366,PLT_learning_3,A,2014_Feb_11_1733,P03,
stim_fb/ques.jpg,stim_fb/negf.jpg,stim_fb/posf.jpg,stim_03/d.jpg,stim_03/c.jpg,1,2,f,5,8,308,21,j,0,0.283264336358,03,02,60.0227532366,PLT_learning_3,A,2014_Feb_11_1733,P03,
stim_fb/ques.jpg,stim_fb/negf.jpg,stim_fb/posf.jpg,stim_03/b.jpg,stim_03/a.jpg,1,1,f,5,9,309,4,f,1,0.249979958044,03,02,60.0227532366,PLT_learning_3,A,2014_Feb_11_1733,P03,
stim_fb/ques.jpg,stim_fb/negf.jpg,stim_fb/posf.jpg,stim_03/e.jpg,stim_03/f.jpg,2,3,j,5,10,310,51,j,1,0.483215515673,03,02,60.0227532366,PLT_learning_3,A,2014_Feb_11_1733,P03,
stim_fb/ques.jpg,stim_fb/negf.jpg,stim_fb/posf.jpg,stim_03/d.jpg,stim_03/c.jpg,1,2,f,5,11,311,22,f,1,0.43324151247,03,02,60.0227532366,PLT_learning_3,A,2014_Feb_11_1733,P03,
stim_fb/ques.jpg,stim_fb/negf.jpg,stim_fb/posf.jpg,stim_03/a.jpg,stim_03/b.jpg,2,1,j,5,12,312,16,j,1,0.399915176577,03,02,60.0227532366,PLT_learning_3,A,2014_Feb_11_1733,P03,
stim_fb/ques.jpg,stim_fb/posf.jpg,stim_fb/negf.jpg,stim_03/d.jpg,stim_03/c.jpg,1,2,f,5,13,313,28,j,0,0.933057934903,03,02,60.0227532366,PLT_learning_3,A,2014_Feb_11_1733,P03,
stim_fb/ques.jpg,stim_fb/posf.jpg,stim_fb/negf.jpg,stim_03/f.jpg,stim_03/e.jpg,1,3,f,5,14,314,46,f,1,0.449887925653,03,02,60.0227532366,PLT_learning_3,A,2014_Feb_11_1733,P03,
stim_fb/ques.jpg,stim_fb/negf.jpg,stim_fb/posf.jpg,stim_03/b.jpg,stim_03/a.jpg,1,1,f,5,15,315,2,j,0,0.299950532702,03,02,60.0227532366,PLT_learning_3,A,2014_Feb_11_1733,P03,
stim_fb/ques.jpg,stim_fb/negf.jpg,stim_fb/posf.jpg,stim_03/c.jpg,stim_03/d.jpg,2,2,j,5,16,316,31,f,0,0.399787947459,03,02,60.0227532366,PLT_learning_3,A,2014_Feb_11_1733,P03,
stim_fb/ques.jpg,stim_fb/negf.jpg,stim_fb/posf.jpg,stim_03/e.jpg,stim_03/f.jpg,2,3,j,5,17,317,50,j,1,0.3332668807,03,02,60.0227532366,PLT_learning_3,A,2014_Feb_11_1733,P03,
stim_fb/ques.jpg,stim_fb/posf.jpg,stim_fb/negf.jpg,stim_03/c.jpg,stim_03/d.jpg,2,2,j,5,18,318,37,f,0,0.499908454824,03,02,60.0227532366,PLT_learning_3,A,2014_Feb_11_1733,P03,
stim_fb/ques.jpg,stim_fb/posf.jpg,stim_fb/negf.jpg,stim_03/c.jpg,stim_03/d.jpg,2,2,j,5,19,319,38,j,1,1.01639754288,03,02,60.0227532366,PLT_learning_3,A,2014_Feb_11_1733,P03,
stim_fb/ques.jpg,stim_fb/posf.jpg,stim_fb/negf.jpg,stim_03/f.jpg,stim_03/e.jpg,1,3,f,5,20,320,49,f,1,0.983066458146,03,02,60.0227532366,PLT_learning_3,A,2014_Feb_11_1733,P03,
stim_fb/ques.jpg,stim_fb/posf.jpg,stim_fb/negf.jpg,stim_03/e.jpg,stim_03/f.jpg,2,3,j,5,21,321,58,j,1,0.466562082991,03,02,60.0227532366,PLT_learning_3,A,2014_Feb_11_1733,P03,
stim_fb/ques.jpg,stim_fb/negf.jpg,stim_fb/posf.jpg,stim_03/e.jpg,stim_03/f.jpg,2,3,j,5,22,322,55,f,0,0.316606097698,03,02,60.0227532366,PLT_learning_3,A,2014_Feb_11_1733,P03,
stim_fb/ques.jpg,stim_fb/negf.jpg,stim_fb/posf.jpg,stim_03/f.jpg,stim_03/e.jpg,1,3,f,5,23,323,45,j,0,0.349941720739,03,02,60.0227532366,PLT_learning_3,A,2014_Feb_11_1733,P03,
stim_fb/ques.jpg,stim_fb/negf.jpg,stim_fb/posf.jpg,stim_03/c.jpg,stim_03/d.jpg,2,2,j,5,24,324,33,f,0,0.366593382005,03,02,60.0227532366,PLT_learning_3,A,2014_Feb_11_1733,P03,
stim_fb/ques.jpg,stim_fb/negf.jpg,stim_fb/posf.jpg,stim_03/a.jpg,stim_03/b.jpg,2,1,j,5,25,325,14,j,1,0.966402643589,03,02,60.0227532366,PLT_learning_3,A,2014_Feb_11_1733,P03,
stim_fb/ques.jpg,stim_fb/posf.jpg,stim_fb/negf.jpg,stim_03/d.jpg,stim_03/c.jpg,1,2,f,5,26,326,27,j,0,0.566546892129,03,02,60.0227532366,PLT_learning_3,A,2014_Feb_11_1733,P03,
stim_fb/ques.jpg,stim_fb/negf.jpg,stim_fb/posf.jpg,stim_03/b.jpg,stim_03/a.jpg,1,1,f,5,27,327,6,j,0,0.716468164901,03,02,60.0227532366,PLT_learning_3,A,2014_Feb_11_1733,P03,
stim_fb/ques.jpg,stim_fb/negf.jpg,stim_fb/posf.jpg,stim_03/f.jpg,stim_03/e.jpg,1,3,f,5,28,328,40,f,1,0.599888036932,03,02,60.0227532366,PLT_learning_3,A,2014_Feb_11_1733,P03,
stim_fb/ques.jpg,stim_fb/posf.jpg,stim_fb/negf.jpg,stim_03/f.jpg,stim_03/e.jpg,1,3,f,5,29,329,47,j,0,0.449900635334,03,02,60.0227532366,PLT_learning_3,A,2014_Feb_11_1733,P03,
stim_fb/ques.jpg,stim_fb/negf.jpg,stim_fb/posf.jpg,stim_03/b.jpg,stim_03/a.jpg,1,1,f,5,30,330,3,j,0,0.483227539644,03,02,60.0227532366,PLT_learning_3,A,2014_Feb_11_1733,P03,
stim_fb/ques.jpg,stim_fb/posf.jpg,stim_fb/negf.jpg,stim_03/e.jpg,stim_03/f.jpg,2,3,j,5,31,331,59,f,0,0.449897709039,03,02,60.0227532366,PLT_learning_3,A,2014_Feb_11_1733,P03,
stim_fb/ques.jpg,stim_fb/posf.jpg,stim_fb/negf.jpg,stim_03/b.jpg,stim_03/a.jpg,1,1,f,5,32,332,8,j,0,0.399909606695,03,02,60.0227532366,PLT_learning_3,A,2014_Feb_11_1733,P03,
stim_fb/ques.jpg,stim_fb/negf.jpg,stim_fb/posf.jpg,stim_03/c.jpg,stim_03/d.jpg,2,2,j,5,33,333,35,f,0,0.233289746693,03,02,60.0227532366,PLT_learning_3,A,2014_Feb_11_1733,P03,
stim_fb/ques.jpg,stim_fb/posf.jpg,stim_fb/negf.jpg,stim_03/f.jpg,stim_03/e.jpg,1,3,f,5,34,334,48,j,0,0.416557815353,03,02,60.0227532366,PLT_learning_3,A,2014_Feb_11_1733,P03,
stim_fb/ques.jpg,stim_fb/posf.jpg,stim_fb/negf.jpg,stim_03/e.jpg,stim_03/f.jpg,2,3,j,5,35,335,57,f,0,0.316621499087,03,02,60.0227532366,PLT_learning_3,A,2014_Feb_11_1733,P03,
stim_fb/ques.jpg,stim_fb/posf.jpg,stim_fb/negf.jpg,stim_03/a.jpg,stim_03/b.jpg,2,1,j,5,36,336,19,j,1,0.4499088067,03,02,60.0227532366,PLT_learning_3,A,2014_Feb_11_1733,P03,
stim_fb/ques.jpg,stim_fb/posf.jpg,stim_fb/negf.jpg,stim_03/b.jpg,stim_03/a.jpg,1,1,f,5,37,337,9,f,1,0.283271067134,03,02,60.0227532366,PLT_learning_3,A,2014_Feb_11_1733,P03,
stim_fb/ques.jpg,stim_fb/negf.jpg,stim_fb/posf.jpg,stim_03/f.jpg,stim_03/e.jpg,1,3,f,5,38,338,43,j,0,0.366593063211,03,02,60.0227532366,PLT_learning_3,A,2014_Feb_11_1733,P03,
stim_fb/ques.jpg,stim_fb/negf.jpg,stim_fb/posf.jpg,stim_03/a.jpg,stim_03/b.jpg,2,1,j,5,39,339,10,j,1,0.483182571559,03,02,60.0227532366,PLT_learning_3,A,2014_Feb_11_1733,P03,
stim_fb/ques.jpg,stim_fb/negf.jpg,stim_fb/posf.jpg,stim_03/b.jpg,stim_03/a.jpg,1,1,f,5,40,340,1,j,0,0.566459945414,03,02,60.0227532366,PLT_learning_3,A,2014_Feb_11_1733,P03,
stim_fb/ques.jpg,stim_fb/negf.jpg,stim_fb/posf.jpg,stim_03/b.jpg,stim_03/a.jpg,1,1,f,5,41,341,0,f,1,0.499897206788,03,02,60.0227532366,PLT_learning_3,A,2014_Feb_11_1733,P03,
stim_fb/ques.jpg,stim_fb/negf.jpg,stim_fb/posf.jpg,stim_03/c.jpg,stim_03/d.jpg,2,2,j,5,42,342,30,j,1,0.333251644724,03,02,60.0227532366,PLT_learning_3,A,2014_Feb_11_1733,P03,
stim_fb/ques.jpg,stim_fb/negf.jpg,stim_fb/posf.jpg,stim_03/e.jpg,stim_03/f.jpg,2,3,j,5,43,343,54,j,1,0.699865492739,03,02,60.0227532366,PLT_learning_3,A,2014_Feb_11_1733,P03,
stim_fb/ques.jpg,stim_fb/negf.jpg,stim_fb/posf.jpg,stim_03/d.jpg,stim_03/c.jpg,1,2,f,5,44,344,25,j,0,0.483220508117,03,02,60.0227532366,PLT_learning_3,A,2014_Feb_11_1733,P03,
stim_fb/ques.jpg,stim_fb/negf.jpg,stim_fb/posf.jpg,stim_03/f.jpg,stim_03/e.jpg,1,3,f,5,45,345,41,f,1,0.449908163097,03,02,60.0227532366,PLT_learning_3,A,2014_Feb_11_1733,P03,
stim_fb/ques.jpg,stim_fb/negf.jpg,stim_fb/posf.jpg,stim_03/d.jpg,stim_03/c.jpg,1,2,f,5,46,346,26,j,0,0.349918069789,03,02,60.0227532366,PLT_learning_3,A,2014_Feb_11_1733,P03,
stim_fb/ques.jpg,stim_fb/negf.jpg,stim_fb/posf.jpg,stim_03/b.jpg,stim_03/a.jpg,1,1,f,5,47,347,7,f,1,0.599870133306,03,02,60.0227532366,PLT_learning_3,A,2014_Feb_11_1733,P03,
stim_fb/ques.jpg,stim_fb/negf.jpg,stim_fb/posf.jpg,stim_03/c.jpg,stim_03/d.jpg,2,2,j,5,48,348,34,j,1,0.38328876625,03,02,60.0227532366,PLT_learning_3,A,2014_Feb_11_1733,P03,
stim_fb/ques.jpg,stim_fb/posf.jpg,stim_fb/negf.jpg,stim_03/e.jpg,stim_03/f.jpg,2,3,j,5,49,349,56,j,1,0.516558434898,03,02,60.0227532366,PLT_learning_3,A,2014_Feb_11_1733,P03,
stim_fb/ques.jpg,stim_fb/negf.jpg,stim_fb/posf.jpg,stim_03/a.jpg,stim_03/b.jpg,2,1,j,5,50,350,17,f,0,0.533207849565,03,02,60.0227532366,PLT_learning_3,A,2014_Feb_11_1733,P03,
stim_fb/ques.jpg,stim_fb/negf.jpg,stim_fb/posf.jpg,stim_03/e.jpg,stim_03/f.jpg,2,3,j,5,51,351,53,j,1,0.383211882618,03,02,60.0227532366,PLT_learning_3,A,2014_Feb_11_1733,P03,
stim_fb/ques.jpg,stim_fb/negf.jpg,stim_fb/posf.jpg,stim_03/f.jpg,stim_03/e.jpg,1,3,f,5,52,352,44,j,0,0.599814596882,03,02,60.0227532366,PLT_learning_3,A,2014_Feb_11_1733,P03,
stim_fb/ques.jpg,stim_fb/negf.jpg,stim_fb/posf.jpg,stim_03/a.jpg,stim_03/b.jpg,2,1,j,5,53,353,13,f,0,0.799774058842,03,02,60.0227532366,PLT_learning_3,A,2014_Feb_11_1733,P03,
stim_fb/ques.jpg,stim_fb/negf.jpg,stim_fb/posf.jpg,stim_03/f.jpg,stim_03/e.jpg,1,3,f,5,54,354,42,j,0,0.466554771769,03,02,60.0227532366,PLT_learning_3,A,2014_Feb_11_1733,P03,
stim_fb/ques.jpg,stim_fb/posf.jpg,stim_fb/negf.jpg,stim_03/d.jpg,stim_03/c.jpg,1,2,f,5,55,355,29,f,1,0.299989530906,03,02,60.0227532366,PLT_learning_3,A,2014_Feb_11_1733,P03,
stim_fb/ques.jpg,stim_fb/negf.jpg,stim_fb/posf.jpg,stim_03/e.jpg,stim_03/f.jpg,2,3,j,5,56,356,52,j,1,0.433243846288,03,02,60.0227532366,PLT_learning_3,A,2014_Feb_11_1733,P03,
stim_fb/ques.jpg,stim_fb/negf.jpg,stim_fb/posf.jpg,stim_03/b.jpg,stim_03/a.jpg,1,1,f,5,57,357,5,f,1,0.299970529546,03,02,60.0227532366,PLT_learning_3,A,2014_Feb_11_1733,P03,
stim_fb/ques.jpg,stim_fb/negf.jpg,stim_fb/posf.jpg,stim_03/d.jpg,stim_03/c.jpg,1,2,f,5,58,358,20,j,0,0.366547361298,03,02,60.0227532366,PLT_learning_3,A,2014_Feb_11_1733,P03,
stim_fb/ques.jpg,stim_fb/negf.jpg,stim_fb/posf.jpg,stim_03/a.jpg,stim_03/b.jpg,2,1,j,5,59,359,12,f,0,0.31662585394,03,02,60.0227532366,PLT_learning_3,A,2014_Feb_11_1733,P03,
