Fb3,Fb2,Fb1,Symbol2,Symbol1,PosCond,Pair,Correct,trials.thisRepN,trials.thisTrialN,trials.thisN,trials.thisIndex,Response.keys,Response.corr,Response.rt,Version,Session Number,frameRate,expName,StimCondition,date,Participant,
stim_fb/ques.jpg,stim_fb/posf.jpg,stim_fb/negf.jpg,stim_02/e.jpg,stim_02/f.jpg,2,3,j,0,0,0,58,j,1,0.716477232502,02,03,60.0250861453,PLT_learning_02,A,2014_Feb_11_1535,P04,
stim_fb/ques.jpg,stim_fb/negf.jpg,stim_fb/posf.jpg,stim_02/c.jpg,stim_02/d.jpg,2,2,j,0,1,1,32,j,1,0.999711683371,02,03,60.0250861453,PLT_learning_02,A,2014_Feb_11_1535,P04,
stim_fb/ques.jpg,stim_fb/negf.jpg,stim_fb/posf.jpg,stim_02/e.jpg,stim_02/f.jpg,2,3,j,0,2,2,51,f,0,0.916410475109,02,03,60.0250861453,PLT_learning_02,A,2014_Feb_11_1535,P04,
stim_fb/ques.jpg,stim_fb/negf.jpg,stim_fb/posf.jpg,stim_02/e.jpg,stim_02/f.jpg,2,3,j,0,3,3,55,j,1,0.716436111007,02,03,60.0250861453,PLT_learning_02,A,2014_Feb_11_1535,P04,
stim_fb/ques.jpg,stim_fb/negf.jpg,stim_fb/posf.jpg,stim_02/a.jpg,stim_02/b.jpg,2,1,j,0,4,4,14,f,0,1.01636938068,02,03,60.0250861453,PLT_learning_02,A,2014_Feb_11_1535,P04,
stim_fb/ques.jpg,stim_fb/negf.jpg,stim_fb/posf.jpg,stim_02/f.jpg,stim_02/e.jpg,1,3,f,0,5,5,40,f,1,0.883084740716,02,03,60.0250861453,PLT_learning_02,A,2014_Feb_11_1535,P04,
stim_fb/ques.jpg,stim_fb/posf.jpg,stim_fb/negf.jpg,stim_02/c.jpg,stim_02/d.jpg,2,2,j,0,6,6,37,f,0,0.81645097706,02,03,60.0250861453,PLT_learning_02,A,2014_Feb_11_1535,P04,
stim_fb/ques.jpg,stim_fb/posf.jpg,stim_fb/negf.jpg,stim_02/f.jpg,stim_02/e.jpg,1,3,f,0,7,7,48,f,1,0.933093868467,02,03,60.0250861453,PLT_learning_02,A,2014_Feb_11_1535,P04,
stim_fb/ques.jpg,stim_fb/negf.jpg,stim_fb/posf.jpg,stim_02/c.jpg,stim_02/d.jpg,2,2,j,0,8,8,31,f,0,1.16632588026,02,03,60.0250861453,PLT_learning_02,A,2014_Feb_11_1535,P04,
stim_fb/ques.jpg,stim_fb/negf.jpg,stim_fb/posf.jpg,stim_02/c.jpg,stim_02/d.jpg,2,2,j,0,9,9,30,f,0,0.866427293028,02,03,60.0250861453,PLT_learning_02,A,2014_Feb_11_1535,P04,
stim_fb/ques.jpg,stim_fb/posf.jpg,stim_fb/negf.jpg,stim_02/a.jpg,stim_02/b.jpg,2,1,j,0,10,10,19,j,1,1.16633180803,02,03,60.0250861453,PLT_learning_02,A,2014_Feb_11_1535,P04,
stim_fb/ques.jpg,stim_fb/posf.jpg,stim_fb/negf.jpg,stim_02/e.jpg,stim_02/f.jpg,2,3,j,0,11,11,59,j,1,0.849745078609,02,03,60.0250861453,PLT_learning_02,A,2014_Feb_11_1535,P04,
stim_fb/ques.jpg,stim_fb/negf.jpg,stim_fb/posf.jpg,stim_02/a.jpg,stim_02/b.jpg,2,1,j,0,12,12,13,j,1,1.09967666409,02,03,60.0250861453,PLT_learning_02,A,2014_Feb_11_1535,P04,
stim_fb/ques.jpg,stim_fb/posf.jpg,stim_fb/negf.jpg,stim_02/e.jpg,stim_02/f.jpg,2,3,j,0,13,13,56,j,1,0.766473415989,02,03,60.0250861453,PLT_learning_02,A,2014_Feb_11_1535,P04,
stim_fb/ques.jpg,stim_fb/negf.jpg,stim_fb/posf.jpg,stim_02/f.jpg,stim_02/e.jpg,1,3,f,0,14,14,41,f,1,0.783135383944,02,03,60.0250861453,PLT_learning_02,A,2014_Feb_11_1535,P04,
stim_fb/ques.jpg,stim_fb/negf.jpg,stim_fb/posf.jpg,stim_02/b.jpg,stim_02/a.jpg,1,1,f,0,15,15,3,f,1,0.983034058391,02,03,60.0250861453,PLT_learning_02,A,2014_Feb_11_1535,P04,
stim_fb/ques.jpg,stim_fb/negf.jpg,stim_fb/posf.jpg,stim_02/d.jpg,stim_02/c.jpg,1,2,f,0,16,16,26,j,0,1.0830196585,02,03,60.0250861453,PLT_learning_02,A,2014_Feb_11_1535,P04,
stim_fb/ques.jpg,stim_fb/negf.jpg,stim_fb/posf.jpg,stim_02/e.jpg,stim_02/f.jpg,2,3,j,0,17,17,53,j,1,0.766432483966,02,03,60.0250861453,PLT_learning_02,A,2014_Feb_11_1535,P04,
stim_fb/ques.jpg,stim_fb/negf.jpg,stim_fb/posf.jpg,stim_02/a.jpg,stim_02/b.jpg,2,1,j,0,18,18,10,j,1,0.899747448515,02,03,60.0250861453,PLT_learning_02,A,2014_Feb_11_1535,P04,
stim_fb/ques.jpg,stim_fb/negf.jpg,stim_fb/posf.jpg,stim_02/a.jpg,stim_02/b.jpg,2,1,j,0,19,19,12,j,1,0.683163449899,02,03,60.0250861453,PLT_learning_02,A,2014_Feb_11_1535,P04,
stim_fb/ques.jpg,stim_fb/posf.jpg,stim_fb/negf.jpg,stim_02/f.jpg,stim_02/e.jpg,1,3,f,0,20,20,47,f,1,0.73307585958,02,03,60.0250861453,PLT_learning_02,A,2014_Feb_11_1535,P04,
stim_fb/ques.jpg,stim_fb/posf.jpg,stim_fb/negf.jpg,stim_02/d.jpg,stim_02/c.jpg,1,2,f,0,21,21,27,j,0,1.06640106465,02,03,60.0250861453,PLT_learning_02,A,2014_Feb_11_1535,P04,
stim_fb/ques.jpg,stim_fb/negf.jpg,stim_fb/posf.jpg,stim_02/c.jpg,stim_02/d.jpg,2,2,j,0,22,22,35,f,0,1.09968458583,02,03,60.0250861453,PLT_learning_02,A,2014_Feb_11_1535,P04,
stim_fb/ques.jpg,stim_fb/posf.jpg,stim_fb/negf.jpg,stim_02/f.jpg,stim_02/e.jpg,1,3,f,0,23,23,46,f,1,0.783144535755,02,03,60.0250861453,PLT_learning_02,A,2014_Feb_11_1535,P04,
stim_fb/ques.jpg,stim_fb/negf.jpg,stim_fb/posf.jpg,stim_02/c.jpg,stim_02/d.jpg,2,2,j,0,24,24,36,f,0,0.916396827092,02,03,60.0250861453,PLT_learning_02,A,2014_Feb_11_1535,P04,
stim_fb/ques.jpg,stim_fb/negf.jpg,stim_fb/posf.jpg,stim_02/f.jpg,stim_02/e.jpg,1,3,f,0,25,25,42,f,1,0.916381203149,02,03,60.0250861453,PLT_learning_02,A,2014_Feb_11_1535,P04,
stim_fb/ques.jpg,stim_fb/negf.jpg,stim_fb/posf.jpg,stim_02/b.jpg,stim_02/a.jpg,1,1,f,0,26,26,1,f,1,1.14964558763,02,03,60.0250861453,PLT_learning_02,A,2014_Feb_11_1535,P04,
stim_fb/ques.jpg,stim_fb/negf.jpg,stim_fb/posf.jpg,stim_02/b.jpg,stim_02/a.jpg,1,1,f,0,27,27,7,f,1,0.983056187547,02,03,60.0250861453,PLT_learning_02,A,2014_Feb_11_1535,P04,
stim_fb/ques.jpg,stim_fb/posf.jpg,stim_fb/negf.jpg,stim_02/c.jpg,stim_02/d.jpg,2,2,j,0,28,28,39,f,0,1.38293450425,02,03,60.0250861453,PLT_learning_02,A,2014_Feb_11_1535,P04,
stim_fb/ques.jpg,stim_fb/negf.jpg,stim_fb/posf.jpg,stim_02/f.jpg,stim_02/e.jpg,1,3,f,0,29,29,43,j,0,1.03305831986,02,03,60.0250861453,PLT_learning_02,A,2014_Feb_11_1535,P04,
stim_fb/ques.jpg,stim_fb/negf.jpg,stim_fb/posf.jpg,stim_02/a.jpg,stim_02/b.jpg,2,1,j,0,30,30,16,j,1,1.01637342877,02,03,60.0250861453,PLT_learning_02,A,2014_Feb_11_1535,P04,
stim_fb/ques.jpg,stim_fb/negf.jpg,stim_fb/posf.jpg,stim_02/d.jpg,stim_02/c.jpg,1,2,f,0,31,31,22,j,0,1.39959033391,02,03,60.0250861453,PLT_learning_02,A,2014_Feb_11_1535,P04,
stim_fb/ques.jpg,stim_fb/negf.jpg,stim_fb/posf.jpg,stim_02/b.jpg,stim_02/a.jpg,1,1,f,0,32,32,6,f,1,1.58284145232,02,03,60.0250861453,PLT_learning_02,A,2014_Feb_11_1535,P04,
stim_fb/ques.jpg,stim_fb/negf.jpg,stim_fb/posf.jpg,stim_02/a.jpg,stim_02/b.jpg,2,1,j,0,33,33,11,j,1,0.966375630258,02,03,60.0250861453,PLT_learning_02,A,2014_Feb_11_1535,P04,
stim_fb/ques.jpg,stim_fb/negf.jpg,stim_fb/posf.jpg,stim_02/c.jpg,stim_02/d.jpg,2,2,j,0,34,34,34,f,0,1.31631444576,02,03,60.0250861453,PLT_learning_02,A,2014_Feb_11_1535,P04,
stim_fb/ques.jpg,stim_fb/negf.jpg,stim_fb/posf.jpg,stim_02/e.jpg,stim_02/f.jpg,2,3,j,0,35,35,52,j,1,1.06640766009,02,03,60.0250861453,PLT_learning_02,A,2014_Feb_11_1535,P04,
stim_fb/ques.jpg,stim_fb/negf.jpg,stim_fb/posf.jpg,stim_02/a.jpg,stim_02/b.jpg,2,1,j,0,36,36,15,j,1,1.03302110811,02,03,60.0250861453,PLT_learning_02,A,2014_Feb_11_1535,P04,
stim_fb/ques.jpg,stim_fb/negf.jpg,stim_fb/posf.jpg,stim_02/e.jpg,stim_02/f.jpg,2,3,j,0,37,37,50,j,1,1.21630261126,02,03,60.0250861453,PLT_learning_02,A,2014_Feb_11_1535,P04,
stim_fb/ques.jpg,stim_fb/negf.jpg,stim_fb/posf.jpg,stim_02/a.jpg,stim_02/b.jpg,2,1,j,0,38,38,17,j,1,0.733139618499,02,03,60.0250861453,PLT_learning_02,A,2014_Feb_11_1535,P04,
stim_fb/ques.jpg,stim_fb/negf.jpg,stim_fb/posf.jpg,stim_02/f.jpg,stim_02/e.jpg,1,3,f,0,39,39,44,f,1,1.09967528665,02,03,60.0250861453,PLT_learning_02,A,2014_Feb_11_1535,P04,
stim_fb/ques.jpg,stim_fb/posf.jpg,stim_fb/negf.jpg,stim_02/d.jpg,stim_02/c.jpg,1,2,f,0,40,40,29,j,0,1.33294642296,02,03,60.0250861453,PLT_learning_02,A,2014_Feb_11_1535,P04,
stim_fb/ques.jpg,stim_fb/negf.jpg,stim_fb/posf.jpg,stim_02/d.jpg,stim_02/c.jpg,1,2,f,0,41,41,20,f,1,0.783135940331,02,03,60.0250861453,PLT_learning_02,A,2014_Feb_11_1535,P04,
stim_fb/ques.jpg,stim_fb/negf.jpg,stim_fb/posf.jpg,stim_02/b.jpg,stim_02/a.jpg,1,1,f,0,42,42,0,f,1,1.01639870377,02,03,60.0250861453,PLT_learning_02,A,2014_Feb_11_1535,P04,
stim_fb/ques.jpg,stim_fb/posf.jpg,stim_fb/negf.jpg,stim_02/f.jpg,stim_02/e.jpg,1,3,f,0,43,43,49,j,0,1.08302355922,02,03,60.0250861453,PLT_learning_02,A,2014_Feb_11_1535,P04,
stim_fb/ques.jpg,stim_fb/negf.jpg,stim_fb/posf.jpg,stim_02/d.jpg,stim_02/c.jpg,1,2,f,0,44,44,23,j,0,1.06638121217,02,03,60.0250861453,PLT_learning_02,A,2014_Feb_11_1535,P04,
stim_fb/ques.jpg,stim_fb/posf.jpg,stim_fb/negf.jpg,stim_02/c.jpg,stim_02/d.jpg,2,2,j,0,45,45,38,f,0,1.18296166194,02,03,60.0250861453,PLT_learning_02,A,2014_Feb_11_1535,P04,
stim_fb/ques.jpg,stim_fb/posf.jpg,stim_fb/negf.jpg,stim_02/b.jpg,stim_02/a.jpg,1,1,f,0,46,46,9,f,1,1.11635304095,02,03,60.0250861453,PLT_learning_02,A,2014_Feb_11_1535,P04,
stim_fb/ques.jpg,stim_fb/posf.jpg,stim_fb/negf.jpg,stim_02/d.jpg,stim_02/c.jpg,1,2,f,0,47,47,28,j,0,1.28295427854,02,03,60.0250861453,PLT_learning_02,A,2014_Feb_11_1535,P04,
stim_fb/ques.jpg,stim_fb/negf.jpg,stim_fb/posf.jpg,stim_02/e.jpg,stim_02/f.jpg,2,3,j,0,48,48,54,j,1,1.04976368298,02,03,60.0250861453,PLT_learning_02,A,2014_Feb_11_1535,P04,
stim_fb/ques.jpg,stim_fb/posf.jpg,stim_fb/negf.jpg,stim_02/a.jpg,stim_02/b.jpg,2,1,j,0,49,49,18,j,1,0.849755457478,02,03,60.0250861453,PLT_learning_02,A,2014_Feb_11_1535,P04,
stim_fb/ques.jpg,stim_fb/negf.jpg,stim_fb/posf.jpg,stim_02/b.jpg,stim_02/a.jpg,1,1,f,0,50,50,5,f,1,0.983065113796,02,03,60.0250861453,PLT_learning_02,A,2014_Feb_11_1535,P04,
stim_fb/ques.jpg,stim_fb/negf.jpg,stim_fb/posf.jpg,stim_02/d.jpg,stim_02/c.jpg,1,2,f,0,51,51,24,j,0,0.883098845873,02,03,60.0250861453,PLT_learning_02,A,2014_Feb_11_1535,P04,
stim_fb/ques.jpg,stim_fb/posf.jpg,stim_fb/negf.jpg,stim_02/e.jpg,stim_02/f.jpg,2,3,j,0,52,52,57,f,0,0.983061471718,02,03,60.0250861453,PLT_learning_02,A,2014_Feb_11_1535,P04,
stim_fb/ques.jpg,stim_fb/negf.jpg,stim_fb/posf.jpg,stim_02/d.jpg,stim_02/c.jpg,1,2,f,0,53,53,25,j,0,1.03306059353,02,03,60.0250861453,PLT_learning_02,A,2014_Feb_11_1535,P04,
stim_fb/ques.jpg,stim_fb/negf.jpg,stim_fb/posf.jpg,stim_02/c.jpg,stim_02/d.jpg,2,2,j,0,54,54,33,f,0,1.09970629695,02,03,60.0250861453,PLT_learning_02,A,2014_Feb_11_1535,P04,
stim_fb/ques.jpg,stim_fb/negf.jpg,stim_fb/posf.jpg,stim_02/d.jpg,stim_02/c.jpg,1,2,f,0,55,55,21,j,0,1.34959070984,02,03,60.0250861453,PLT_learning_02,A,2014_Feb_11_1535,P04,
stim_fb/ques.jpg,stim_fb/negf.jpg,stim_fb/posf.jpg,stim_02/b.jpg,stim_02/a.jpg,1,1,f,0,56,56,4,f,1,1.08303611853,02,03,60.0250861453,PLT_learning_02,A,2014_Feb_11_1535,P04,
stim_fb/ques.jpg,stim_fb/negf.jpg,stim_fb/posf.jpg,stim_02/b.jpg,stim_02/a.jpg,1,1,f,0,57,57,2,f,1,0.816427738137,02,03,60.0250861453,PLT_learning_02,A,2014_Feb_11_1535,P04,
stim_fb/ques.jpg,stim_fb/posf.jpg,stim_fb/negf.jpg,stim_02/b.jpg,stim_02/a.jpg,1,1,f,0,58,58,8,f,1,1.43287944602,02,03,60.0250861453,PLT_learning_02,A,2014_Feb_11_1535,P04,
stim_fb/ques.jpg,stim_fb/negf.jpg,stim_fb/posf.jpg,stim_02/f.jpg,stim_02/e.jpg,1,3,f,0,59,59,45,j,0,1.08304667183,02,03,60.0250861453,PLT_learning_02,A,2014_Feb_11_1535,P04,
stim_fb/ques.jpg,stim_fb/negf.jpg,stim_fb/posf.jpg,stim_02/e.jpg,stim_02/f.jpg,2,3,j,1,0,60,51,j,1,0.683139729776,02,03,60.0250861453,PLT_learning_02,A,2014_Feb_11_1535,P04,
stim_fb/ques.jpg,stim_fb/negf.jpg,stim_fb/posf.jpg,stim_02/d.jpg,stim_02/c.jpg,1,2,f,1,1,61,23,j,0,0.916442892911,02,03,60.0250861453,PLT_learning_02,A,2014_Feb_11_1535,P04,
stim_fb/ques.jpg,stim_fb/posf.jpg,stim_fb/negf.jpg,stim_02/b.jpg,stim_02/a.jpg,1,1,f,1,2,62,8,f,1,0.649855826648,02,03,60.0250861453,PLT_learning_02,A,2014_Feb_11_1535,P04,
stim_fb/ques.jpg,stim_fb/negf.jpg,stim_fb/posf.jpg,stim_02/e.jpg,stim_02/f.jpg,2,3,j,1,3,63,55,j,1,0.949731830588,02,03,60.0250861453,PLT_learning_02,A,2014_Feb_11_1535,P04,
stim_fb/ques.jpg,stim_fb/negf.jpg,stim_fb/posf.jpg,stim_02/c.jpg,stim_02/d.jpg,2,2,j,1,4,64,32,j,1,1.54952846069,02,03,60.0250861453,PLT_learning_02,A,2014_Feb_11_1535,P04,
stim_fb/ques.jpg,stim_fb/negf.jpg,stim_fb/posf.jpg,stim_02/b.jpg,stim_02/a.jpg,1,1,f,1,5,65,0,f,1,1.36627047616,02,03,60.0250861453,PLT_learning_02,A,2014_Feb_11_1535,P04,
stim_fb/ques.jpg,stim_fb/negf.jpg,stim_fb/posf.jpg,stim_02/e.jpg,stim_02/f.jpg,2,3,j,1,6,66,52,j,1,1.03304748987,02,03,60.0250861453,PLT_learning_02,A,2014_Feb_11_1535,P04,
stim_fb/ques.jpg,stim_fb/negf.jpg,stim_fb/posf.jpg,stim_02/a.jpg,stim_02/b.jpg,2,1,j,1,7,67,10,j,1,1.04971733446,02,03,60.0250861453,PLT_learning_02,A,2014_Feb_11_1535,P04,
stim_fb/ques.jpg,stim_fb/negf.jpg,stim_fb/posf.jpg,stim_02/a.jpg,stim_02/b.jpg,2,1,j,1,8,68,15,j,1,0.716483286591,02,03,60.0250861453,PLT_learning_02,A,2014_Feb_11_1535,P04,
stim_fb/ques.jpg,stim_fb/negf.jpg,stim_fb/posf.jpg,stim_02/f.jpg,stim_02/e.jpg,1,3,f,1,9,69,44,f,1,0.916439332035,02,03,60.0250861453,PLT_learning_02,A,2014_Feb_11_1535,P04,
stim_fb/ques.jpg,stim_fb/posf.jpg,stim_fb/negf.jpg,stim_02/f.jpg,stim_02/e.jpg,1,3,f,1,10,70,48,f,1,0.933095420335,02,03,60.0250861453,PLT_learning_02,A,2014_Feb_11_1535,P04,
stim_fb/ques.jpg,stim_fb/negf.jpg,stim_fb/posf.jpg,stim_02/d.jpg,stim_02/c.jpg,1,2,f,1,11,71,26,j,0,1.41624407636,02,03,60.0250861453,PLT_learning_02,A,2014_Feb_11_1535,P04,
stim_fb/ques.jpg,stim_fb/negf.jpg,stim_fb/posf.jpg,stim_02/f.jpg,stim_02/e.jpg,1,3,f,1,12,72,45,f,1,0.966381073827,02,03,60.0250861453,PLT_learning_02,A,2014_Feb_11_1535,P04,
stim_fb/ques.jpg,stim_fb/posf.jpg,stim_fb/negf.jpg,stim_02/e.jpg,stim_02/f.jpg,2,3,j,1,13,73,56,j,1,0.983061228111,02,03,60.0250861453,PLT_learning_02,A,2014_Feb_11_1535,P04,
stim_fb/ques.jpg,stim_fb/negf.jpg,stim_fb/posf.jpg,stim_02/c.jpg,stim_02/d.jpg,2,2,j,1,14,74,30,None,0,,02,03,60.0250861453,PLT_learning_02,A,2014_Feb_11_1535,P04,
stim_fb/ques.jpg,stim_fb/negf.jpg,stim_fb/posf.jpg,stim_02/d.jpg,stim_02/c.jpg,1,2,f,1,15,75,25,j,0,1.13302332764,02,03,60.0250861453,PLT_learning_02,A,2014_Feb_11_1535,P04,
stim_fb/ques.jpg,stim_fb/posf.jpg,stim_fb/negf.jpg,stim_02/a.jpg,stim_02/b.jpg,2,1,j,1,16,76,18,j,1,0.966404415004,02,03,60.0250861453,PLT_learning_02,A,2014_Feb_11_1535,P04,
stim_fb/ques.jpg,stim_fb/posf.jpg,stim_fb/negf.jpg,stim_02/e.jpg,stim_02/f.jpg,2,3,j,1,17,77,59,j,1,0.866411278111,02,03,60.0250861453,PLT_learning_02,A,2014_Feb_11_1535,P04,
stim_fb/ques.jpg,stim_fb/negf.jpg,stim_fb/posf.jpg,stim_02/c.jpg,stim_02/d.jpg,2,2,j,1,18,78,33,f,0,0.933095435373,02,03,60.0250861453,PLT_learning_02,A,2014_Feb_11_1535,P04,
stim_fb/ques.jpg,stim_fb/negf.jpg,stim_fb/posf.jpg,stim_02/d.jpg,stim_02/c.jpg,1,2,f,1,19,79,22,j,0,1.53289509402,02,03,60.0250861453,PLT_learning_02,A,2014_Feb_11_1535,P04,
stim_fb/ques.jpg,stim_fb/negf.jpg,stim_fb/posf.jpg,stim_02/b.jpg,stim_02/a.jpg,1,1,f,1,20,80,4,f,1,0.666491692544,02,03,60.0250861453,PLT_learning_02,A,2014_Feb_11_1535,P04,
stim_fb/ques.jpg,stim_fb/posf.jpg,stim_fb/negf.jpg,stim_02/e.jpg,stim_02/f.jpg,2,3,j,1,21,81,58,j,1,1.16632646672,02,03,60.0250861453,PLT_learning_02,A,2014_Feb_11_1535,P04,
stim_fb/ques.jpg,stim_fb/negf.jpg,stim_fb/posf.jpg,stim_02/d.jpg,stim_02/c.jpg,1,2,f,1,22,82,21,f,1,1.01637369945,02,03,60.0250861453,PLT_learning_02,A,2014_Feb_11_1535,P04,
stim_fb/ques.jpg,stim_fb/posf.jpg,stim_fb/negf.jpg,stim_02/e.jpg,stim_02/f.jpg,2,3,j,1,23,83,57,f,0,0.916436577169,02,03,60.0250861453,PLT_learning_02,A,2014_Feb_11_1535,P04,
stim_fb/ques.jpg,stim_fb/negf.jpg,stim_fb/posf.jpg,stim_02/e.jpg,stim_02/f.jpg,2,3,j,1,24,84,53,f,0,0.849776543033,02,03,60.0250861453,PLT_learning_02,A,2014_Feb_11_1535,P04,
stim_fb/ques.jpg,stim_fb/posf.jpg,stim_fb/negf.jpg,stim_02/c.jpg,stim_02/d.jpg,2,2,j,1,25,85,39,j,1,0.916430766686,02,03,60.0250861453,PLT_learning_02,A,2014_Feb_11_1535,P04,
stim_fb/ques.jpg,stim_fb/negf.jpg,stim_fb/posf.jpg,stim_02/a.jpg,stim_02/b.jpg,2,1,j,1,26,86,17,j,1,0.999755018383,02,03,60.0250861453,PLT_learning_02,A,2014_Feb_11_1535,P04,
stim_fb/ques.jpg,stim_fb/negf.jpg,stim_fb/posf.jpg,stim_02/c.jpg,stim_02/d.jpg,2,2,j,1,27,87,35,j,1,1.3329472019,02,03,60.0250861453,PLT_learning_02,A,2014_Feb_11_1535,P04,
stim_fb/ques.jpg,stim_fb/negf.jpg,stim_fb/posf.jpg,stim_02/b.jpg,stim_02/a.jpg,1,1,f,1,28,88,7,f,1,0.849703602229,02,03,60.0250861453,PLT_learning_02,A,2014_Feb_11_1535,P04,
stim_fb/ques.jpg,stim_fb/posf.jpg,stim_fb/negf.jpg,stim_02/f.jpg,stim_02/e.jpg,1,3,f,1,29,89,49,f,1,0.74985407027,02,03,60.0250861453,PLT_learning_02,A,2014_Feb_11_1535,P04,
stim_fb/ques.jpg,stim_fb/negf.jpg,stim_fb/posf.jpg,stim_02/c.jpg,stim_02/d.jpg,2,2,j,1,30,90,34,j,1,0.749801598484,02,03,60.0250861453,PLT_learning_02,A,2014_Feb_11_1535,P04,
stim_fb/ques.jpg,stim_fb/posf.jpg,stim_fb/negf.jpg,stim_02/f.jpg,stim_02/e.jpg,1,3,f,1,31,91,46,f,1,0.866438462869,02,03,60.0250861453,PLT_learning_02,A,2014_Feb_11_1535,P04,
stim_fb/ques.jpg,stim_fb/posf.jpg,stim_fb/negf.jpg,stim_02/d.jpg,stim_02/c.jpg,1,2,f,1,32,92,29,f,1,0.899751126683,02,03,60.0250861453,PLT_learning_02,A,2014_Feb_11_1535,P04,
stim_fb/ques.jpg,stim_fb/negf.jpg,stim_fb/posf.jpg,stim_02/c.jpg,stim_02/d.jpg,2,2,j,1,33,93,31,j,1,0.633181323449,02,03,60.0250861453,PLT_learning_02,A,2014_Feb_11_1535,P04,
stim_fb/ques.jpg,stim_fb/posf.jpg,stim_fb/negf.jpg,stim_02/c.jpg,stim_02/d.jpg,2,2,j,1,34,94,37,j,1,0.616534660642,02,03,60.0250861453,PLT_learning_02,A,2014_Feb_11_1535,P04,
stim_fb/ques.jpg,stim_fb/negf.jpg,stim_fb/posf.jpg,stim_02/c.jpg,stim_02/d.jpg,2,2,j,1,35,95,36,j,1,0.666495906046,02,03,60.0250861453,PLT_learning_02,A,2014_Feb_11_1535,P04,
stim_fb/ques.jpg,stim_fb/posf.jpg,stim_fb/negf.jpg,stim_02/a.jpg,stim_02/b.jpg,2,1,j,1,36,96,19,f,0,1.28294173427,02,03,60.0250861453,PLT_learning_02,A,2014_Feb_11_1535,P04,
stim_fb/ques.jpg,stim_fb/negf.jpg,stim_fb/posf.jpg,stim_02/f.jpg,stim_02/e.jpg,1,3,f,1,37,97,43,f,1,0.899784897858,02,03,60.0250861453,PLT_learning_02,A,2014_Feb_11_1535,P04,
stim_fb/ques.jpg,stim_fb/negf.jpg,stim_fb/posf.jpg,stim_02/a.jpg,stim_02/b.jpg,2,1,j,1,38,98,13,j,1,0.783104668386,02,03,60.0250861453,PLT_learning_02,A,2014_Feb_11_1535,P04,
stim_fb/ques.jpg,stim_fb/negf.jpg,stim_fb/posf.jpg,stim_02/d.jpg,stim_02/c.jpg,1,2,f,1,39,99,20,f,1,0.999724931391,02,03,60.0250861453,PLT_learning_02,A,2014_Feb_11_1535,P04,
stim_fb/ques.jpg,stim_fb/negf.jpg,stim_fb/posf.jpg,stim_02/b.jpg,stim_02/a.jpg,1,1,f,1,40,100,2,f,1,1.18296144841,02,03,60.0250861453,PLT_learning_02,A,2014_Feb_11_1535,P04,
stim_fb/ques.jpg,stim_fb/negf.jpg,stim_fb/posf.jpg,stim_02/e.jpg,stim_02/f.jpg,2,3,j,1,41,101,54,j,1,0.783125666725,02,03,60.0250861453,PLT_learning_02,A,2014_Feb_11_1535,P04,
stim_fb/ques.jpg,stim_fb/negf.jpg,stim_fb/posf.jpg,stim_02/a.jpg,stim_02/b.jpg,2,1,j,1,42,102,14,f,0,0.849743607943,02,03,60.0250861453,PLT_learning_02,A,2014_Feb_11_1535,P04,
stim_fb/ques.jpg,stim_fb/negf.jpg,stim_fb/posf.jpg,stim_02/f.jpg,stim_02/e.jpg,1,3,f,1,43,103,40,f,1,0.783158917602,02,03,60.0250861453,PLT_learning_02,A,2014_Feb_11_1535,P04,
stim_fb/ques.jpg,stim_fb/negf.jpg,stim_fb/posf.jpg,stim_02/f.jpg,stim_02/e.jpg,1,3,f,1,44,104,42,f,1,0.933078557304,02,03,60.0250861453,PLT_learning_02,A,2014_Feb_11_1535,P04,
stim_fb/ques.jpg,stim_fb/negf.jpg,stim_fb/posf.jpg,stim_02/a.jpg,stim_02/b.jpg,2,1,j,1,45,105,12,j,1,1.0163687461,02,03,60.0250861453,PLT_learning_02,A,2014_Feb_11_1535,P04,
stim_fb/ques.jpg,stim_fb/negf.jpg,stim_fb/posf.jpg,stim_02/b.jpg,stim_02/a.jpg,1,1,f,1,46,106,3,f,1,0.749777953549,02,03,60.0250861453,PLT_learning_02,A,2014_Feb_11_1535,P04,
stim_fb/ques.jpg,stim_fb/negf.jpg,stim_fb/posf.jpg,stim_02/e.jpg,stim_02/f.jpg,2,3,j,1,47,107,50,j,1,0.633167510019,02,03,60.0250861453,PLT_learning_02,A,2014_Feb_11_1535,P04,
stim_fb/ques.jpg,stim_fb/posf.jpg,stim_fb/negf.jpg,stim_02/d.jpg,stim_02/c.jpg,1,2,f,1,48,108,27,f,1,1.03303306291,02,03,60.0250861453,PLT_learning_02,A,2014_Feb_11_1535,P04,
stim_fb/ques.jpg,stim_fb/negf.jpg,stim_fb/posf.jpg,stim_02/b.jpg,stim_02/a.jpg,1,1,f,1,49,109,1,f,1,1.14966245667,02,03,60.0250861453,PLT_learning_02,A,2014_Feb_11_1535,P04,
stim_fb/ques.jpg,stim_fb/negf.jpg,stim_fb/posf.jpg,stim_02/f.jpg,stim_02/e.jpg,1,3,f,1,50,110,41,f,1,0.749803808994,02,03,60.0250861453,PLT_learning_02,A,2014_Feb_11_1535,P04,
stim_fb/ques.jpg,stim_fb/negf.jpg,stim_fb/posf.jpg,stim_02/b.jpg,stim_02/a.jpg,1,1,f,1,51,111,5,f,1,0.949728014075,02,03,60.0250861453,PLT_learning_02,A,2014_Feb_11_1535,P04,
stim_fb/ques.jpg,stim_fb/negf.jpg,stim_fb/posf.jpg,stim_02/a.jpg,stim_02/b.jpg,2,1,j,1,52,112,16,j,1,0.699840563605,02,03,60.0250861453,PLT_learning_02,A,2014_Feb_11_1535,P04,
stim_fb/ques.jpg,stim_fb/negf.jpg,stim_fb/posf.jpg,stim_02/a.jpg,stim_02/b.jpg,2,1,j,1,53,113,11,j,1,0.749809396922,02,03,60.0250861453,PLT_learning_02,A,2014_Feb_11_1535,P04,
stim_fb/ques.jpg,stim_fb/posf.jpg,stim_fb/negf.jpg,stim_02/d.jpg,stim_02/c.jpg,1,2,f,1,54,114,28,f,1,0.649941801941,02,03,60.0250861453,PLT_learning_02,A,2014_Feb_11_1535,P04,
stim_fb/ques.jpg,stim_fb/posf.jpg,stim_fb/negf.jpg,stim_02/b.jpg,stim_02/a.jpg,1,1,f,1,55,115,9,f,1,0.916415431463,02,03,60.0250861453,PLT_learning_02,A,2014_Feb_11_1535,P04,
stim_fb/ques.jpg,stim_fb/negf.jpg,stim_fb/posf.jpg,stim_02/b.jpg,stim_02/a.jpg,1,1,f,1,56,116,6,f,1,0.716482444493,02,03,60.0250861453,PLT_learning_02,A,2014_Feb_11_1535,P04,
stim_fb/ques.jpg,stim_fb/posf.jpg,stim_fb/negf.jpg,stim_02/c.jpg,stim_02/d.jpg,2,2,j,1,57,117,38,f,0,0.999715448756,02,03,60.0250861453,PLT_learning_02,A,2014_Feb_11_1535,P04,
stim_fb/ques.jpg,stim_fb/negf.jpg,stim_fb/posf.jpg,stim_02/d.jpg,stim_02/c.jpg,1,2,f,1,58,118,24,f,1,1.39958502568,02,03,60.0250861453,PLT_learning_02,A,2014_Feb_11_1535,P04,
stim_fb/ques.jpg,stim_fb/posf.jpg,stim_fb/negf.jpg,stim_02/f.jpg,stim_02/e.jpg,1,3,f,1,59,119,47,f,1,0.649826954684,02,03,60.0250861453,PLT_learning_02,A,2014_Feb_11_1535,P04,
stim_fb/ques.jpg,stim_fb/posf.jpg,stim_fb/negf.jpg,stim_02/b.jpg,stim_02/a.jpg,1,1,f,2,0,120,8,f,1,0.783140328268,02,03,60.0250861453,PLT_learning_02,A,2014_Feb_11_1535,P04,
stim_fb/ques.jpg,stim_fb/posf.jpg,stim_fb/negf.jpg,stim_02/b.jpg,stim_02/a.jpg,1,1,f,2,1,121,9,f,1,1.18300471124,02,03,60.0250861453,PLT_learning_02,A,2014_Feb_11_1535,P04,
stim_fb/ques.jpg,stim_fb/negf.jpg,stim_fb/posf.jpg,stim_02/d.jpg,stim_02/c.jpg,1,2,f,2,2,122,26,j,0,1.19965519357,02,03,60.0250861453,PLT_learning_02,A,2014_Feb_11_1535,P04,
stim_fb/ques.jpg,stim_fb/posf.jpg,stim_fb/negf.jpg,stim_02/d.jpg,stim_02/c.jpg,1,2,f,2,3,123,28,f,1,1.0996444147,02,03,60.0250861453,PLT_learning_02,A,2014_Feb_11_1535,P04,
stim_fb/ques.jpg,stim_fb/negf.jpg,stim_fb/posf.jpg,stim_02/e.jpg,stim_02/f.jpg,2,3,j,2,4,124,55,j,1,0.433231413298,02,03,60.0250861453,PLT_learning_02,A,2014_Feb_11_1535,P04,
stim_fb/ques.jpg,stim_fb/negf.jpg,stim_fb/posf.jpg,stim_02/e.jpg,stim_02/f.jpg,2,3,j,2,5,125,52,j,1,0.766427888512,02,03,60.0250861453,PLT_learning_02,A,2014_Feb_11_1535,P04,
stim_fb/ques.jpg,stim_fb/posf.jpg,stim_fb/negf.jpg,stim_02/a.jpg,stim_02/b.jpg,2,1,j,2,6,126,19,j,1,1.33293120202,02,03,60.0250861453,PLT_learning_02,A,2014_Feb_11_1535,P04,
stim_fb/ques.jpg,stim_fb/negf.jpg,stim_fb/posf.jpg,stim_02/d.jpg,stim_02/c.jpg,1,2,f,2,7,127,21,f,1,0.966410294659,02,03,60.0250861453,PLT_learning_02,A,2014_Feb_11_1535,P04,
stim_fb/ques.jpg,stim_fb/posf.jpg,stim_fb/negf.jpg,stim_02/c.jpg,stim_02/d.jpg,2,2,j,2,8,128,37,j,1,1.09968313321,02,03,60.0250861453,PLT_learning_02,A,2014_Feb_11_1535,P04,
stim_fb/ques.jpg,stim_fb/posf.jpg,stim_fb/negf.jpg,stim_02/c.jpg,stim_02/d.jpg,2,2,j,2,9,129,38,f,0,0.983005066127,02,03,60.0250861453,PLT_learning_02,A,2014_Feb_11_1535,P04,
stim_fb/ques.jpg,stim_fb/posf.jpg,stim_fb/negf.jpg,stim_02/e.jpg,stim_02/f.jpg,2,3,j,2,10,130,58,j,1,1.01654675679,02,03,60.0250861453,PLT_learning_02,A,2014_Feb_11_1535,P04,
stim_fb/ques.jpg,stim_fb/negf.jpg,stim_fb/posf.jpg,stim_02/a.jpg,stim_02/b.jpg,2,1,j,2,11,131,13,j,1,0.833125699807,02,03,60.0250861453,PLT_learning_02,A,2014_Feb_11_1535,P04,
stim_fb/ques.jpg,stim_fb/negf.jpg,stim_fb/posf.jpg,stim_02/b.jpg,stim_02/a.jpg,1,1,f,2,12,132,0,f,1,0.833117678815,02,03,60.0250861453,PLT_learning_02,A,2014_Feb_11_1535,P04,
stim_fb/ques.jpg,stim_fb/negf.jpg,stim_fb/posf.jpg,stim_02/a.jpg,stim_02/b.jpg,2,1,j,2,13,133,15,j,1,0.733094202299,02,03,60.0250861453,PLT_learning_02,A,2014_Feb_11_1535,P04,
stim_fb/ques.jpg,stim_fb/negf.jpg,stim_fb/posf.jpg,stim_02/b.jpg,stim_02/a.jpg,1,1,f,2,14,134,1,f,1,0.866466125819,02,03,60.0250861453,PLT_learning_02,A,2014_Feb_11_1535,P04,
stim_fb/ques.jpg,stim_fb/negf.jpg,stim_fb/posf.jpg,stim_02/a.jpg,stim_02/b.jpg,2,1,j,2,15,135,17,j,1,0.599863763431,02,03,60.0250861453,PLT_learning_02,A,2014_Feb_11_1535,P04,
stim_fb/ques.jpg,stim_fb/negf.jpg,stim_fb/posf.jpg,stim_02/e.jpg,stim_02/f.jpg,2,3,j,2,16,136,53,j,1,0.71646485064,02,03,60.0250861453,PLT_learning_02,A,2014_Feb_11_1535,P04,
stim_fb/ques.jpg,stim_fb/negf.jpg,stim_fb/posf.jpg,stim_02/d.jpg,stim_02/c.jpg,1,2,f,2,17,137,22,j,0,0.416543078623,02,03,60.0250861453,PLT_learning_02,A,2014_Feb_11_1535,P04,
stim_fb/ques.jpg,stim_fb/negf.jpg,stim_fb/posf.jpg,stim_02/f.jpg,stim_02/e.jpg,1,3,f,2,18,138,40,j,0,0.0333628468961,02,03,60.0250861453,PLT_learning_02,A,2014_Feb_11_1535,P04,
stim_fb/ques.jpg,stim_fb/negf.jpg,stim_fb/posf.jpg,stim_02/c.jpg,stim_02/d.jpg,2,2,j,2,19,139,34,j,1,0.233306017248,02,03,60.0250861453,PLT_learning_02,A,2014_Feb_11_1535,P04,
stim_fb/ques.jpg,stim_fb/posf.jpg,stim_fb/negf.jpg,stim_02/a.jpg,stim_02/b.jpg,2,1,j,2,20,140,18,f,0,1.08301434425,02,03,60.0250861453,PLT_learning_02,A,2014_Feb_11_1535,P04,
stim_fb/ques.jpg,stim_fb/negf.jpg,stim_fb/posf.jpg,stim_02/c.jpg,stim_02/d.jpg,2,2,j,2,21,141,31,j,1,0.899701506004,02,03,60.0250861453,PLT_learning_02,A,2014_Feb_11_1535,P04,
stim_fb/ques.jpg,stim_fb/negf.jpg,stim_fb/posf.jpg,stim_02/a.jpg,stim_02/b.jpg,2,1,j,2,22,142,10,j,1,0.849695319584,02,03,60.0250861453,PLT_learning_02,A,2014_Feb_11_1535,P04,
stim_fb/ques.jpg,stim_fb/posf.jpg,stim_fb/negf.jpg,stim_02/f.jpg,stim_02/e.jpg,1,3,f,2,23,143,47,f,1,0.649826560703,02,03,60.0250861453,PLT_learning_02,A,2014_Feb_11_1535,P04,
stim_fb/ques.jpg,stim_fb/negf.jpg,stim_fb/posf.jpg,stim_02/b.jpg,stim_02/a.jpg,1,1,f,2,24,144,7,f,1,1.41625454545,02,03,60.0250861453,PLT_learning_02,A,2014_Feb_11_1535,P04,
stim_fb/ques.jpg,stim_fb/negf.jpg,stim_fb/posf.jpg,stim_02/c.jpg,stim_02/d.jpg,2,2,j,2,25,145,35,j,1,0.48317220472,02,03,60.0250861453,PLT_learning_02,A,2014_Feb_11_1535,P04,
stim_fb/ques.jpg,stim_fb/negf.jpg,stim_fb/posf.jpg,stim_02/f.jpg,stim_02/e.jpg,1,3,f,2,26,146,44,j,0,0.766471476154,02,03,60.0250861453,PLT_learning_02,A,2014_Feb_11_1535,P04,
stim_fb/ques.jpg,stim_fb/posf.jpg,stim_fb/negf.jpg,stim_02/f.jpg,stim_02/e.jpg,1,3,f,2,27,147,46,f,1,0.666471376907,02,03,60.0250861453,PLT_learning_02,A,2014_Feb_11_1535,P04,
stim_fb/ques.jpg,stim_fb/posf.jpg,stim_fb/negf.jpg,stim_02/f.jpg,stim_02/e.jpg,1,3,f,2,28,148,48,f,1,0.749837841821,02,03,60.0250861453,PLT_learning_02,A,2014_Feb_11_1535,P04,
stim_fb/ques.jpg,stim_fb/posf.jpg,stim_fb/negf.jpg,stim_02/c.jpg,stim_02/d.jpg,2,2,j,2,29,149,39,j,1,0.666494561695,02,03,60.0250861453,PLT_learning_02,A,2014_Feb_11_1535,P04,
stim_fb/ques.jpg,stim_fb/negf.jpg,stim_fb/posf.jpg,stim_02/b.jpg,stim_02/a.jpg,1,1,f,2,30,150,3,f,1,0.616519337449,02,03,60.0250861453,PLT_learning_02,A,2014_Feb_11_1535,P04,
stim_fb/ques.jpg,stim_fb/posf.jpg,stim_fb/negf.jpg,stim_02/f.jpg,stim_02/e.jpg,1,3,f,2,31,151,49,f,1,0.833116505891,02,03,60.0250861453,PLT_learning_02,A,2014_Feb_11_1535,P04,
stim_fb/ques.jpg,stim_fb/negf.jpg,stim_fb/posf.jpg,stim_02/d.jpg,stim_02/c.jpg,1,2,f,2,32,152,20,f,1,0.666512423215,02,03,60.0250861453,PLT_learning_02,A,2014_Feb_11_1535,P04,
stim_fb/ques.jpg,stim_fb/negf.jpg,stim_fb/posf.jpg,stim_02/b.jpg,stim_02/a.jpg,1,1,f,2,33,153,4,f,1,0.749831017812,02,03,60.0250861453,PLT_learning_02,A,2014_Feb_11_1535,P04,
stim_fb/ques.jpg,stim_fb/negf.jpg,stim_fb/posf.jpg,stim_02/f.jpg,stim_02/e.jpg,1,3,f,2,34,154,41,f,1,0.89974962895,02,03,60.0250861453,PLT_learning_02,A,2014_Feb_11_1535,P04,
stim_fb/ques.jpg,stim_fb/negf.jpg,stim_fb/posf.jpg,stim_02/f.jpg,stim_02/e.jpg,1,3,f,2,35,155,45,f,1,1.33293575236,02,03,60.0250861453,PLT_learning_02,A,2014_Feb_11_1535,P04,
stim_fb/ques.jpg,stim_fb/negf.jpg,stim_fb/posf.jpg,stim_02/b.jpg,stim_02/a.jpg,1,1,f,2,36,156,6,f,1,1.23300865708,02,03,60.0250861453,PLT_learning_02,A,2014_Feb_11_1535,P04,
stim_fb/ques.jpg,stim_fb/negf.jpg,stim_fb/posf.jpg,stim_02/e.jpg,stim_02/f.jpg,2,3,j,2,37,157,51,f,0,0.683158995797,02,03,60.0250861453,PLT_learning_02,A,2014_Feb_11_1535,P04,
stim_fb/ques.jpg,stim_fb/negf.jpg,stim_fb/posf.jpg,stim_02/a.jpg,stim_02/b.jpg,2,1,j,2,38,158,11,j,1,0.899722438177,02,03,60.0250861453,PLT_learning_02,A,2014_Feb_11_1535,P04,
stim_fb/ques.jpg,stim_fb/posf.jpg,stim_fb/negf.jpg,stim_02/d.jpg,stim_02/c.jpg,1,2,f,2,39,159,27,j,0,1.4829003421,02,03,60.0250861453,PLT_learning_02,A,2014_Feb_11_1535,P04,
stim_fb/ques.jpg,stim_fb/negf.jpg,stim_fb/posf.jpg,stim_02/e.jpg,stim_02/f.jpg,2,3,j,2,40,160,54,j,1,0.933070097217,02,03,60.0250861453,PLT_learning_02,A,2014_Feb_11_1535,P04,
stim_fb/ques.jpg,stim_fb/negf.jpg,stim_fb/posf.jpg,stim_02/a.jpg,stim_02/b.jpg,2,1,j,2,41,161,16,j,1,0.749806819498,02,03,60.0250861453,PLT_learning_02,A,2014_Feb_11_1535,P04,
stim_fb/ques.jpg,stim_fb/negf.jpg,stim_fb/posf.jpg,stim_02/e.jpg,stim_02/f.jpg,2,3,j,2,42,162,50,j,1,0.816445695897,02,03,60.0250861453,PLT_learning_02,A,2014_Feb_11_1535,P04,
stim_fb/ques.jpg,stim_fb/negf.jpg,stim_fb/posf.jpg,stim_02/a.jpg,stim_02/b.jpg,2,1,j,2,43,163,14,j,1,0.616480203908,02,03,60.0250861453,PLT_learning_02,A,2014_Feb_11_1535,P04,
stim_fb/ques.jpg,stim_fb/negf.jpg,stim_fb/posf.jpg,stim_02/d.jpg,stim_02/c.jpg,1,2,f,2,44,164,23,j,0,1.03304283426,02,03,60.0250861453,PLT_learning_02,A,2014_Feb_11_1535,P04,
stim_fb/ques.jpg,stim_fb/negf.jpg,stim_fb/posf.jpg,stim_02/b.jpg,stim_02/a.jpg,1,1,f,2,45,165,5,f,1,0.933068413019,02,03,60.0250861453,PLT_learning_02,A,2014_Feb_11_1535,P04,
stim_fb/ques.jpg,stim_fb/posf.jpg,stim_fb/negf.jpg,stim_02/d.jpg,stim_02/c.jpg,1,2,f,2,46,166,29,j,0,0.866448895873,02,03,60.0250861453,PLT_learning_02,A,2014_Feb_11_1535,P04,
stim_fb/ques.jpg,stim_fb/negf.jpg,stim_fb/posf.jpg,stim_02/f.jpg,stim_02/e.jpg,1,3,f,2,47,167,42,f,1,1.23298127683,02,03,60.0250861453,PLT_learning_02,A,2014_Feb_11_1535,P04,
stim_fb/ques.jpg,stim_fb/posf.jpg,stim_fb/negf.jpg,stim_02/e.jpg,stim_02/f.jpg,2,3,j,2,48,168,59,j,1,0.54988349862,02,03,60.0250861453,PLT_learning_02,A,2014_Feb_11_1535,P04,
stim_fb/ques.jpg,stim_fb/posf.jpg,stim_fb/negf.jpg,stim_02/e.jpg,stim_02/f.jpg,2,3,j,2,49,169,57,j,1,0.516576266344,02,03,60.0250861453,PLT_learning_02,A,2014_Feb_11_1535,P04,
stim_fb/ques.jpg,stim_fb/negf.jpg,stim_fb/posf.jpg,stim_02/f.jpg,stim_02/e.jpg,1,3,f,2,50,170,43,f,1,0.566576242284,02,03,60.0250861453,PLT_learning_02,A,2014_Feb_11_1535,P04,
stim_fb/ques.jpg,stim_fb/negf.jpg,stim_fb/posf.jpg,stim_02/c.jpg,stim_02/d.jpg,2,2,j,2,51,171,36,f,0,0.833108746551,02,03,60.0250861453,PLT_learning_02,A,2014_Feb_11_1535,P04,
stim_fb/ques.jpg,stim_fb/negf.jpg,stim_fb/posf.jpg,stim_02/b.jpg,stim_02/a.jpg,1,1,f,2,52,172,2,f,1,0.833101534575,02,03,60.0250861453,PLT_learning_02,A,2014_Feb_11_1535,P04,
stim_fb/ques.jpg,stim_fb/posf.jpg,stim_fb/negf.jpg,stim_02/e.jpg,stim_02/f.jpg,2,3,j,2,53,173,56,j,1,0.499867056639,02,03,60.0250861453,PLT_learning_02,A,2014_Feb_11_1535,P04,
stim_fb/ques.jpg,stim_fb/negf.jpg,stim_fb/posf.jpg,stim_02/c.jpg,stim_02/d.jpg,2,2,j,2,54,174,30,j,1,1.08307890918,02,03,60.0250861453,PLT_learning_02,A,2014_Feb_11_1535,P04,
stim_fb/ques.jpg,stim_fb/negf.jpg,stim_fb/posf.jpg,stim_02/c.jpg,stim_02/d.jpg,2,2,j,2,55,175,32,j,1,0.716512663815,02,03,60.0250861453,PLT_learning_02,A,2014_Feb_11_1535,P04,
stim_fb/ques.jpg,stim_fb/negf.jpg,stim_fb/posf.jpg,stim_02/c.jpg,stim_02/d.jpg,2,2,j,2,56,176,33,f,0,0.949747920692,02,03,60.0250861453,PLT_learning_02,A,2014_Feb_11_1535,P04,
stim_fb/ques.jpg,stim_fb/negf.jpg,stim_fb/posf.jpg,stim_02/d.jpg,stim_02/c.jpg,1,2,f,2,57,177,24,f,1,1.51620189021,02,03,60.0250861453,PLT_learning_02,A,2014_Feb_11_1535,P04,
stim_fb/ques.jpg,stim_fb/negf.jpg,stim_fb/posf.jpg,stim_02/d.jpg,stim_02/c.jpg,1,2,f,2,58,178,25,j,0,1.18300352027,02,03,60.0250861453,PLT_learning_02,A,2014_Feb_11_1535,P04,
stim_fb/ques.jpg,stim_fb/negf.jpg,stim_fb/posf.jpg,stim_02/a.jpg,stim_02/b.jpg,2,1,j,2,59,179,12,j,1,0.716475650559,02,03,60.0250861453,PLT_learning_02,A,2014_Feb_11_1535,P04,
stim_fb/ques.jpg,stim_fb/negf.jpg,stim_fb/posf.jpg,stim_02/c.jpg,stim_02/d.jpg,2,2,j,3,0,180,35,j,1,0.766461467207,02,03,60.0250861453,PLT_learning_02,A,2014_Feb_11_1535,P04,
stim_fb/ques.jpg,stim_fb/negf.jpg,stim_fb/posf.jpg,stim_02/d.jpg,stim_02/c.jpg,1,2,f,3,1,181,24,f,1,0.666505142067,02,03,60.0250861453,PLT_learning_02,A,2014_Feb_11_1535,P04,
stim_fb/ques.jpg,stim_fb/posf.jpg,stim_fb/negf.jpg,stim_02/e.jpg,stim_02/f.jpg,2,3,j,3,2,182,56,j,1,0.633175864843,02,03,60.0250861453,PLT_learning_02,A,2014_Feb_11_1535,P04,
stim_fb/ques.jpg,stim_fb/negf.jpg,stim_fb/posf.jpg,stim_02/b.jpg,stim_02/a.jpg,1,1,f,3,3,183,7,f,1,0.566520630672,02,03,60.0250861453,PLT_learning_02,A,2014_Feb_11_1535,P04,
stim_fb/ques.jpg,stim_fb/posf.jpg,stim_fb/negf.jpg,stim_02/d.jpg,stim_02/c.jpg,1,2,f,3,4,184,29,f,1,0.733140421501,02,03,60.0250861453,PLT_learning_02,A,2014_Feb_11_1535,P04,
stim_fb/ques.jpg,stim_fb/negf.jpg,stim_fb/posf.jpg,stim_02/a.jpg,stim_02/b.jpg,2,1,j,3,5,185,10,j,1,0.616515677325,02,03,60.0250861453,PLT_learning_02,A,2014_Feb_11_1535,P04,
stim_fb/ques.jpg,stim_fb/negf.jpg,stim_fb/posf.jpg,stim_02/e.jpg,stim_02/f.jpg,2,3,j,3,6,186,55,j,1,0.649817375809,02,03,60.0250861453,PLT_learning_02,A,2014_Feb_11_1535,P04,
stim_fb/ques.jpg,stim_fb/negf.jpg,stim_fb/posf.jpg,stim_02/a.jpg,stim_02/b.jpg,2,1,j,3,7,187,17,j,1,0.516558064977,02,03,60.0250861453,PLT_learning_02,A,2014_Feb_11_1535,P04,
stim_fb/ques.jpg,stim_fb/posf.jpg,stim_fb/negf.jpg,stim_02/a.jpg,stim_02/b.jpg,2,1,j,3,8,188,18,j,1,0.399971085932,02,03,60.0250861453,PLT_learning_02,A,2014_Feb_11_1535,P04,
stim_fb/ques.jpg,stim_fb/negf.jpg,stim_fb/posf.jpg,stim_02/f.jpg,stim_02/e.jpg,1,3,f,3,9,189,43,f,1,0.583165122067,02,03,60.0250861453,PLT_learning_02,A,2014_Feb_11_1535,P04,
stim_fb/ques.jpg,stim_fb/posf.jpg,stim_fb/negf.jpg,stim_02/d.jpg,stim_02/c.jpg,1,2,f,3,10,190,27,f,1,0.883096572206,02,03,60.0250861453,PLT_learning_02,A,2014_Feb_11_1535,P04,
stim_fb/ques.jpg,stim_fb/negf.jpg,stim_fb/posf.jpg,stim_02/e.jpg,stim_02/f.jpg,2,3,j,3,11,191,52,j,1,0.716479304667,02,03,60.0250861453,PLT_learning_02,A,2014_Feb_11_1535,P04,
stim_fb/ques.jpg,stim_fb/posf.jpg,stim_fb/negf.jpg,stim_02/c.jpg,stim_02/d.jpg,2,2,j,3,12,192,38,j,1,0.683211383373,02,03,60.0250861453,PLT_learning_02,A,2014_Feb_11_1535,P04,
stim_fb/ques.jpg,stim_fb/posf.jpg,stim_fb/negf.jpg,stim_02/f.jpg,stim_02/e.jpg,1,3,f,3,13,193,49,f,1,0.666476336268,02,03,60.0250861453,PLT_learning_02,A,2014_Feb_11_1535,P04,
stim_fb/ques.jpg,stim_fb/negf.jpg,stim_fb/posf.jpg,stim_02/b.jpg,stim_02/a.jpg,1,1,f,3,14,194,3,f,1,0.566520612627,02,03,60.0250861453,PLT_learning_02,A,2014_Feb_11_1535,P04,
stim_fb/ques.jpg,stim_fb/posf.jpg,stim_fb/negf.jpg,stim_02/b.jpg,stim_02/a.jpg,1,1,f,3,15,195,8,f,1,0.516522068255,02,03,60.0250861453,PLT_learning_02,A,2014_Feb_11_1535,P04,
stim_fb/ques.jpg,stim_fb/negf.jpg,stim_fb/posf.jpg,stim_02/d.jpg,stim_02/c.jpg,1,2,f,3,16,196,21,f,1,1.31627690619,02,03,60.0250861453,PLT_learning_02,A,2014_Feb_11_1535,P04,
stim_fb/ques.jpg,stim_fb/negf.jpg,stim_fb/posf.jpg,stim_02/c.jpg,stim_02/d.jpg,2,2,j,3,17,197,36,j,1,1.06633713431,02,03,60.0250861453,PLT_learning_02,A,2014_Feb_11_1535,P04,
stim_fb/ques.jpg,stim_fb/negf.jpg,stim_fb/posf.jpg,stim_02/f.jpg,stim_02/e.jpg,1,3,f,3,18,198,41,f,1,1.14970861873,02,03,60.0250861453,PLT_learning_02,A,2014_Feb_11_1535,P04,
stim_fb/ques.jpg,stim_fb/posf.jpg,stim_fb/negf.jpg,stim_02/f.jpg,stim_02/e.jpg,1,3,f,3,19,199,48,f,1,0.933039580154,02,03,60.0250861453,PLT_learning_02,A,2014_Feb_11_1535,P04,
stim_fb/ques.jpg,stim_fb/negf.jpg,stim_fb/posf.jpg,stim_02/a.jpg,stim_02/b.jpg,2,1,j,3,20,200,16,j,1,0.86645545823,02,03,60.0250861453,PLT_learning_02,A,2014_Feb_11_1535,P04,
stim_fb/ques.jpg,stim_fb/negf.jpg,stim_fb/posf.jpg,stim_02/b.jpg,stim_02/a.jpg,1,1,f,3,21,201,6,f,1,0.766532880204,02,03,60.0250861453,PLT_learning_02,A,2014_Feb_11_1535,P04,
stim_fb/ques.jpg,stim_fb/negf.jpg,stim_fb/posf.jpg,stim_02/a.jpg,stim_02/b.jpg,2,1,j,3,22,202,12,j,1,0.916400327817,02,03,60.0250861453,PLT_learning_02,A,2014_Feb_11_1535,P04,
stim_fb/ques.jpg,stim_fb/negf.jpg,stim_fb/posf.jpg,stim_02/d.jpg,stim_02/c.jpg,1,2,f,3,23,203,20,f,1,0.866399121811,02,03,60.0250861453,PLT_learning_02,A,2014_Feb_11_1535,P04,
stim_fb/ques.jpg,stim_fb/negf.jpg,stim_fb/posf.jpg,stim_02/b.jpg,stim_02/a.jpg,1,1,f,3,24,204,2,f,1,1.03300949918,02,03,60.0250861453,PLT_learning_02,A,2014_Feb_11_1535,P04,
stim_fb/ques.jpg,stim_fb/negf.jpg,stim_fb/posf.jpg,stim_02/f.jpg,stim_02/e.jpg,1,3,f,3,25,205,40,f,1,1.16631394952,02,03,60.0250861453,PLT_learning_02,A,2014_Feb_11_1535,P04,
stim_fb/ques.jpg,stim_fb/negf.jpg,stim_fb/posf.jpg,stim_02/c.jpg,stim_02/d.jpg,2,2,j,3,26,206,34,j,1,0.899730287742,02,03,60.0250861453,PLT_learning_02,A,2014_Feb_11_1535,P04,
stim_fb/ques.jpg,stim_fb/negf.jpg,stim_fb/posf.jpg,stim_02/e.jpg,stim_02/f.jpg,2,3,j,3,27,207,53,None,0,,02,03,60.0250861453,PLT_learning_02,A,2014_Feb_11_1535,P04,
stim_fb/ques.jpg,stim_fb/negf.jpg,stim_fb/posf.jpg,stim_02/c.jpg,stim_02/d.jpg,2,2,j,3,28,208,32,j,1,1.18298863016,02,03,60.0250861453,PLT_learning_02,A,2014_Feb_11_1535,P04,
stim_fb/ques.jpg,stim_fb/posf.jpg,stim_fb/negf.jpg,stim_02/b.jpg,stim_02/a.jpg,1,1,f,3,29,209,9,f,1,0.69981254577,02,03,60.0250861453,PLT_learning_02,A,2014_Feb_11_1535,P04,
stim_fb/ques.jpg,stim_fb/negf.jpg,stim_fb/posf.jpg,stim_02/d.jpg,stim_02/c.jpg,1,2,f,3,30,210,26,f,1,1.03309097526,02,03,60.0250861453,PLT_learning_02,A,2014_Feb_11_1535,P04,
stim_fb/ques.jpg,stim_fb/negf.jpg,stim_fb/posf.jpg,stim_02/e.jpg,stim_02/f.jpg,2,3,j,3,31,211,51,j,1,1.61618123172,02,03,60.0250861453,PLT_learning_02,A,2014_Feb_11_1535,P04,
stim_fb/ques.jpg,stim_fb/negf.jpg,stim_fb/posf.jpg,stim_02/f.jpg,stim_02/e.jpg,1,3,f,3,32,212,42,f,1,1.23296379125,02,03,60.0250861453,PLT_learning_02,A,2014_Feb_11_1535,P04,
stim_fb/ques.jpg,stim_fb/posf.jpg,stim_fb/negf.jpg,stim_02/c.jpg,stim_02/d.jpg,2,2,j,3,33,213,39,j,1,1.09969696769,02,03,60.0250861453,PLT_learning_02,A,2014_Feb_11_1535,P04,
stim_fb/ques.jpg,stim_fb/negf.jpg,stim_fb/posf.jpg,stim_02/a.jpg,stim_02/b.jpg,2,1,j,3,34,214,11,j,1,0.649799697746,02,03,60.0250861453,PLT_learning_02,A,2014_Feb_11_1535,P04,
stim_fb/ques.jpg,stim_fb/negf.jpg,stim_fb/posf.jpg,stim_02/e.jpg,stim_02/f.jpg,2,3,j,3,35,215,50,j,1,0.91641396982,02,03,60.0250861453,PLT_learning_02,A,2014_Feb_11_1535,P04,
stim_fb/ques.jpg,stim_fb/negf.jpg,stim_fb/posf.jpg,stim_02/c.jpg,stim_02/d.jpg,2,2,j,3,36,216,31,j,1,0.716464210043,02,03,60.0250861453,PLT_learning_02,A,2014_Feb_11_1535,P04,
stim_fb/ques.jpg,stim_fb/posf.jpg,stim_fb/negf.jpg,stim_02/a.jpg,stim_02/b.jpg,2,1,j,3,37,217,19,j,1,0.716480685107,02,03,60.0250861453,PLT_learning_02,A,2014_Feb_11_1535,P04,
stim_fb/ques.jpg,stim_fb/negf.jpg,stim_fb/posf.jpg,stim_02/f.jpg,stim_02/e.jpg,1,3,f,3,38,218,44,f,1,0.749812993887,02,03,60.0250861453,PLT_learning_02,A,2014_Feb_11_1535,P04,
stim_fb/ques.jpg,stim_fb/negf.jpg,stim_fb/posf.jpg,stim_02/f.jpg,stim_02/e.jpg,1,3,f,3,39,219,45,f,1,0.69982071413,02,03,60.0250861453,PLT_learning_02,A,2014_Feb_11_1535,P04,
stim_fb/ques.jpg,stim_fb/negf.jpg,stim_fb/posf.jpg,stim_02/b.jpg,stim_02/a.jpg,1,1,f,3,40,220,0,f,1,0.666502585695,02,03,60.0250861453,PLT_learning_02,A,2014_Feb_11_1535,P04,
stim_fb/ques.jpg,stim_fb/posf.jpg,stim_fb/negf.jpg,stim_02/c.jpg,stim_02/d.jpg,2,2,j,3,41,221,37,j,1,0.649843465838,02,03,60.0250861453,PLT_learning_02,A,2014_Feb_11_1535,P04,
stim_fb/ques.jpg,stim_fb/negf.jpg,stim_fb/posf.jpg,stim_02/b.jpg,stim_02/a.jpg,1,1,f,3,42,222,4,f,1,0.633157877009,02,03,60.0250861453,PLT_learning_02,A,2014_Feb_11_1535,P04,
stim_fb/ques.jpg,stim_fb/negf.jpg,stim_fb/posf.jpg,stim_02/a.jpg,stim_02/b.jpg,2,1,j,3,43,223,15,j,1,0.633135768904,02,03,60.0250861453,PLT_learning_02,A,2014_Feb_11_1535,P04,
stim_fb/ques.jpg,stim_fb/negf.jpg,stim_fb/posf.jpg,stim_02/d.jpg,stim_02/c.jpg,1,2,f,3,44,224,22,f,1,0.699778702416,02,03,60.0250861453,PLT_learning_02,A,2014_Feb_11_1535,P04,
stim_fb/ques.jpg,stim_fb/posf.jpg,stim_fb/negf.jpg,stim_02/d.jpg,stim_02/c.jpg,1,2,f,3,45,225,28,f,1,0.716497812798,02,03,60.0250861453,PLT_learning_02,A,2014_Feb_11_1535,P04,
stim_fb/ques.jpg,stim_fb/posf.jpg,stim_fb/negf.jpg,stim_02/f.jpg,stim_02/e.jpg,1,3,f,3,46,226,46,f,1,0.666535244096,02,03,60.0250861453,PLT_learning_02,A,2014_Feb_11_1535,P04,
stim_fb/ques.jpg,stim_fb/negf.jpg,stim_fb/posf.jpg,stim_02/a.jpg,stim_02/b.jpg,2,1,j,3,47,227,14,j,1,0.433122271261,02,03,60.0250861453,PLT_learning_02,A,2014_Feb_11_1535,P04,
stim_fb/ques.jpg,stim_fb/negf.jpg,stim_fb/posf.jpg,stim_02/d.jpg,stim_02/c.jpg,1,2,f,3,48,228,25,f,1,0.666502426297,02,03,60.0250861453,PLT_learning_02,A,2014_Feb_11_1535,P04,
stim_fb/ques.jpg,stim_fb/negf.jpg,stim_fb/posf.jpg,stim_02/b.jpg,stim_02/a.jpg,1,1,f,3,49,229,5,f,1,0.766453924407,02,03,60.0250861453,PLT_learning_02,A,2014_Feb_11_1535,P04,
stim_fb/ques.jpg,stim_fb/posf.jpg,stim_fb/negf.jpg,stim_02/f.jpg,stim_02/e.jpg,1,3,f,3,50,230,47,f,1,0.733135979429,02,03,60.0250861453,PLT_learning_02,A,2014_Feb_11_1535,P04,
stim_fb/ques.jpg,stim_fb/negf.jpg,stim_fb/posf.jpg,stim_02/d.jpg,stim_02/c.jpg,1,2,f,3,51,231,23,f,1,0.616510558567,02,03,60.0250861453,PLT_learning_02,A,2014_Feb_11_1535,P04,
stim_fb/ques.jpg,stim_fb/negf.jpg,stim_fb/posf.jpg,stim_02/b.jpg,stim_02/a.jpg,1,1,f,3,52,232,1,f,1,0.583132165924,02,03,60.0250861453,PLT_learning_02,A,2014_Feb_11_1535,P04,
stim_fb/ques.jpg,stim_fb/negf.jpg,stim_fb/posf.jpg,stim_02/e.jpg,stim_02/f.jpg,2,3,j,3,53,233,54,j,1,0.733180989616,02,03,60.0250861453,PLT_learning_02,A,2014_Feb_11_1535,P04,
stim_fb/ques.jpg,stim_fb/posf.jpg,stim_fb/negf.jpg,stim_02/e.jpg,stim_02/f.jpg,2,3,j,3,54,234,58,j,1,1.29962133819,02,03,60.0250861453,PLT_learning_02,A,2014_Feb_11_1535,P04,
stim_fb/ques.jpg,stim_fb/posf.jpg,stim_fb/negf.jpg,stim_02/e.jpg,stim_02/f.jpg,2,3,j,3,55,235,57,j,1,1.63285848979,02,03,60.0250861453,PLT_learning_02,A,2014_Feb_11_1535,P04,
stim_fb/ques.jpg,stim_fb/negf.jpg,stim_fb/posf.jpg,stim_02/c.jpg,stim_02/d.jpg,2,2,j,3,56,236,30,j,1,1.34959605116,02,03,60.0250861453,PLT_learning_02,A,2014_Feb_11_1535,P04,
stim_fb/ques.jpg,stim_fb/posf.jpg,stim_fb/negf.jpg,stim_02/e.jpg,stim_02/f.jpg,2,3,j,3,57,237,59,j,1,0.749798389485,02,03,60.0250861453,PLT_learning_02,A,2014_Feb_11_1535,P04,
stim_fb/ques.jpg,stim_fb/negf.jpg,stim_fb/posf.jpg,stim_02/a.jpg,stim_02/b.jpg,2,1,j,3,58,238,13,j,1,0.749754332674,02,03,60.0250861453,PLT_learning_02,A,2014_Feb_11_1535,P04,
stim_fb/ques.jpg,stim_fb/negf.jpg,stim_fb/posf.jpg,stim_02/c.jpg,stim_02/d.jpg,2,2,j,3,59,239,33,j,1,0.783116581079,02,03,60.0250861453,PLT_learning_02,A,2014_Feb_11_1535,P04,
stim_fb/ques.jpg,stim_fb/negf.jpg,stim_fb/posf.jpg,stim_02/c.jpg,stim_02/d.jpg,2,2,j,4,0,240,36,j,1,0.749807983399,02,03,60.0250861453,PLT_learning_02,A,2014_Feb_11_1535,P04,
stim_fb/ques.jpg,stim_fb/negf.jpg,stim_fb/posf.jpg,stim_02/a.jpg,stim_02/b.jpg,2,1,j,4,1,241,16,j,1,1.21631757957,02,03,60.0250861453,PLT_learning_02,A,2014_Feb_11_1535,P04,
stim_fb/ques.jpg,stim_fb/negf.jpg,stim_fb/posf.jpg,stim_02/d.jpg,stim_02/c.jpg,1,2,f,4,2,242,20,f,1,1.0163859189,02,03,60.0250861453,PLT_learning_02,A,2014_Feb_11_1535,P04,
stim_fb/ques.jpg,stim_fb/negf.jpg,stim_fb/posf.jpg,stim_02/c.jpg,stim_02/d.jpg,2,2,j,4,3,243,31,j,1,0.933088178284,02,03,60.0250861453,PLT_learning_02,A,2014_Feb_11_1535,P04,
stim_fb/ques.jpg,stim_fb/negf.jpg,stim_fb/posf.jpg,stim_02/a.jpg,stim_02/b.jpg,2,1,j,4,4,244,14,j,1,0.699784269291,02,03,60.0250861453,PLT_learning_02,A,2014_Feb_11_1535,P04,
stim_fb/ques.jpg,stim_fb/negf.jpg,stim_fb/posf.jpg,stim_02/b.jpg,stim_02/a.jpg,1,1,f,4,5,245,5,f,1,0.599836452358,02,03,60.0250861453,PLT_learning_02,A,2014_Feb_11_1535,P04,
stim_fb/ques.jpg,stim_fb/posf.jpg,stim_fb/negf.jpg,stim_02/b.jpg,stim_02/a.jpg,1,1,f,4,6,246,8,f,1,0.516552046977,02,03,60.0250861453,PLT_learning_02,A,2014_Feb_11_1535,P04,
stim_fb/ques.jpg,stim_fb/posf.jpg,stim_fb/negf.jpg,stim_02/f.jpg,stim_02/e.jpg,1,3,f,4,7,247,48,f,1,0.833102274419,02,03,60.0250861453,PLT_learning_02,A,2014_Feb_11_1535,P04,
stim_fb/ques.jpg,stim_fb/posf.jpg,stim_fb/negf.jpg,stim_02/c.jpg,stim_02/d.jpg,2,2,j,4,8,248,39,j,1,0.649824055458,02,03,60.0250861453,PLT_learning_02,A,2014_Feb_11_1535,P04,
stim_fb/ques.jpg,stim_fb/negf.jpg,stim_fb/posf.jpg,stim_02/a.jpg,stim_02/b.jpg,2,1,j,4,9,249,11,j,1,0.499877134758,02,03,60.0250861453,PLT_learning_02,A,2014_Feb_11_1535,P04,
stim_fb/ques.jpg,stim_fb/posf.jpg,stim_fb/negf.jpg,stim_02/f.jpg,stim_02/e.jpg,1,3,f,4,10,250,47,f,1,1.14967540094,02,03,60.0250861453,PLT_learning_02,A,2014_Feb_11_1535,P04,
stim_fb/ques.jpg,stim_fb/negf.jpg,stim_fb/posf.jpg,stim_02/b.jpg,stim_02/a.jpg,1,1,f,4,11,251,4,f,1,0.849737601973,02,03,60.0250861453,PLT_learning_02,A,2014_Feb_11_1535,P04,
stim_fb/ques.jpg,stim_fb/negf.jpg,stim_fb/posf.jpg,stim_02/c.jpg,stim_02/d.jpg,2,2,j,4,12,252,30,j,1,0.849759872483,02,03,60.0250861453,PLT_learning_02,A,2014_Feb_11_1535,P04,
stim_fb/ques.jpg,stim_fb/posf.jpg,stim_fb/negf.jpg,stim_02/a.jpg,stim_02/b.jpg,2,1,j,4,13,253,18,j,1,0.516534071172,02,03,60.0250861453,PLT_learning_02,A,2014_Feb_11_1535,P04,
stim_fb/ques.jpg,stim_fb/negf.jpg,stim_fb/posf.jpg,stim_02/f.jpg,stim_02/e.jpg,1,3,f,4,14,254,45,f,1,0.749805890181,02,03,60.0250861453,PLT_learning_02,A,2014_Feb_11_1535,P04,
stim_fb/ques.jpg,stim_fb/negf.jpg,stim_fb/posf.jpg,stim_02/b.jpg,stim_02/a.jpg,1,1,f,4,15,255,0,f,1,0.56653045917,02,03,60.0250861453,PLT_learning_02,A,2014_Feb_11_1535,P04,
stim_fb/ques.jpg,stim_fb/posf.jpg,stim_fb/negf.jpg,stim_02/d.jpg,stim_02/c.jpg,1,2,f,4,16,256,29,f,1,0.949617687085,02,03,60.0250861453,PLT_learning_02,A,2014_Feb_11_1535,P04,
stim_fb/ques.jpg,stim_fb/negf.jpg,stim_fb/posf.jpg,stim_02/f.jpg,stim_02/e.jpg,1,3,f,4,17,257,42,f,1,0.749785974542,02,03,60.0250861453,PLT_learning_02,A,2014_Feb_11_1535,P04,
stim_fb/ques.jpg,stim_fb/negf.jpg,stim_fb/posf.jpg,stim_02/f.jpg,stim_02/e.jpg,1,3,f,4,18,258,40,f,1,1.08307311674,02,03,60.0250861453,PLT_learning_02,A,2014_Feb_11_1535,P04,
stim_fb/ques.jpg,stim_fb/negf.jpg,stim_fb/posf.jpg,stim_02/a.jpg,stim_02/b.jpg,2,1,j,4,19,259,10,j,1,0.699688727153,02,03,60.0250861453,PLT_learning_02,A,2014_Feb_11_1535,P04,
stim_fb/ques.jpg,stim_fb/negf.jpg,stim_fb/posf.jpg,stim_02/b.jpg,stim_02/a.jpg,1,1,f,4,20,260,1,f,1,0.749812323216,02,03,60.0250861453,PLT_learning_02,A,2014_Feb_11_1535,P04,
stim_fb/ques.jpg,stim_fb/posf.jpg,stim_fb/negf.jpg,stim_02/e.jpg,stim_02/f.jpg,2,3,j,4,21,261,59,j,1,0.616527180999,02,03,60.0250861453,PLT_learning_02,A,2014_Feb_11_1535,P04,
stim_fb/ques.jpg,stim_fb/negf.jpg,stim_fb/posf.jpg,stim_02/f.jpg,stim_02/e.jpg,1,3,f,4,22,262,41,f,1,0.483214279592,02,03,60.0250861453,PLT_learning_02,A,2014_Feb_11_1535,P04,
stim_fb/ques.jpg,stim_fb/posf.jpg,stim_fb/negf.jpg,stim_02/c.jpg,stim_02/d.jpg,2,2,j,4,23,263,37,j,1,1.13297977308,02,03,60.0250861453,PLT_learning_02,A,2014_Feb_11_1535,P04,
stim_fb/ques.jpg,stim_fb/negf.jpg,stim_fb/posf.jpg,stim_02/c.jpg,stim_02/d.jpg,2,2,j,4,24,264,32,j,1,0.516524323877,02,03,60.0250861453,PLT_learning_02,A,2014_Feb_11_1535,P04,
stim_fb/ques.jpg,stim_fb/negf.jpg,stim_fb/posf.jpg,stim_02/b.jpg,stim_02/a.jpg,1,1,f,4,25,265,7,f,1,0.583212887121,02,03,60.0250861453,PLT_learning_02,A,2014_Feb_11_1535,P04,
stim_fb/ques.jpg,stim_fb/posf.jpg,stim_fb/negf.jpg,stim_02/e.jpg,stim_02/f.jpg,2,3,j,4,26,266,57,j,1,0.599850413155,02,03,60.0250861453,PLT_learning_02,A,2014_Feb_11_1535,P04,
stim_fb/ques.jpg,stim_fb/negf.jpg,stim_fb/posf.jpg,stim_02/d.jpg,stim_02/c.jpg,1,2,f,4,27,267,23,f,1,0.69981684649,02,03,60.0250861453,PLT_learning_02,A,2014_Feb_11_1535,P04,
stim_fb/ques.jpg,stim_fb/posf.jpg,stim_fb/negf.jpg,stim_02/f.jpg,stim_02/e.jpg,1,3,f,4,28,268,46,f,1,1.06636458072,02,03,60.0250861453,PLT_learning_02,A,2014_Feb_11_1535,P04,
stim_fb/ques.jpg,stim_fb/negf.jpg,stim_fb/posf.jpg,stim_02/e.jpg,stim_02/f.jpg,2,3,j,4,29,269,55,j,1,0.666506107473,02,03,60.0250861453,PLT_learning_02,A,2014_Feb_11_1535,P04,
stim_fb/ques.jpg,stim_fb/negf.jpg,stim_fb/posf.jpg,stim_02/b.jpg,stim_02/a.jpg,1,1,f,4,30,270,6,f,1,0.449847528966,02,03,60.0250861453,PLT_learning_02,A,2014_Feb_11_1535,P04,
stim_fb/ques.jpg,stim_fb/negf.jpg,stim_fb/posf.jpg,stim_02/e.jpg,stim_02/f.jpg,2,3,j,4,31,271,52,j,1,0.933088199337,02,03,60.0250861453,PLT_learning_02,A,2014_Feb_11_1535,P04,
stim_fb/ques.jpg,stim_fb/posf.jpg,stim_fb/negf.jpg,stim_02/a.jpg,stim_02/b.jpg,2,1,j,4,32,272,19,j,1,0.716482742235,02,03,60.0250861453,PLT_learning_02,A,2014_Feb_11_1535,P04,
stim_fb/ques.jpg,stim_fb/negf.jpg,stim_fb/posf.jpg,stim_02/d.jpg,stim_02/c.jpg,1,2,f,4,33,273,26,f,1,0.71647256186,02,03,60.0250861453,PLT_learning_02,A,2014_Feb_11_1535,P04,
stim_fb/ques.jpg,stim_fb/negf.jpg,stim_fb/posf.jpg,stim_02/e.jpg,stim_02/f.jpg,2,3,j,4,34,274,51,j,1,0.716486922655,02,03,60.0250861453,PLT_learning_02,A,2014_Feb_11_1535,P04,
stim_fb/ques.jpg,stim_fb/negf.jpg,stim_fb/posf.jpg,stim_02/d.jpg,stim_02/c.jpg,1,2,f,4,35,275,25,f,1,0.583181398636,02,03,60.0250861453,PLT_learning_02,A,2014_Feb_11_1535,P04,
stim_fb/ques.jpg,stim_fb/negf.jpg,stim_fb/posf.jpg,stim_02/d.jpg,stim_02/c.jpg,1,2,f,4,36,276,24,f,1,0.866405019511,02,03,60.0250861453,PLT_learning_02,A,2014_Feb_11_1535,P04,
stim_fb/ques.jpg,stim_fb/negf.jpg,stim_fb/posf.jpg,stim_02/a.jpg,stim_02/b.jpg,2,1,j,4,37,277,15,j,1,0.616461494275,02,03,60.0250861453,PLT_learning_02,A,2014_Feb_11_1535,P04,
stim_fb/ques.jpg,stim_fb/posf.jpg,stim_fb/negf.jpg,stim_02/c.jpg,stim_02/d.jpg,2,2,j,4,38,278,38,j,1,0.633166433335,02,03,60.0250861453,PLT_learning_02,A,2014_Feb_11_1535,P04,
stim_fb/ques.jpg,stim_fb/negf.jpg,stim_fb/posf.jpg,stim_02/e.jpg,stim_02/f.jpg,2,3,j,4,39,279,53,j,1,0.883083976812,02,03,60.0250861453,PLT_learning_02,A,2014_Feb_11_1535,P04,
stim_fb/ques.jpg,stim_fb/negf.jpg,stim_fb/posf.jpg,stim_02/a.jpg,stim_02/b.jpg,2,1,j,4,40,280,17,j,1,0.716514751017,02,03,60.0250861453,PLT_learning_02,A,2014_Feb_11_1535,P04,
stim_fb/ques.jpg,stim_fb/negf.jpg,stim_fb/posf.jpg,stim_02/f.jpg,stim_02/e.jpg,1,3,f,4,41,281,44,f,1,0.583151179314,02,03,60.0250861453,PLT_learning_02,A,2014_Feb_11_1535,P04,
stim_fb/ques.jpg,stim_fb/negf.jpg,stim_fb/posf.jpg,stim_02/b.jpg,stim_02/a.jpg,1,1,f,4,42,282,2,f,1,0.533184577559,02,03,60.0250861453,PLT_learning_02,A,2014_Feb_11_1535,P04,
stim_fb/ques.jpg,stim_fb/negf.jpg,stim_fb/posf.jpg,stim_02/c.jpg,stim_02/d.jpg,2,2,j,4,43,283,33,j,1,0.533212745769,02,03,60.0250861453,PLT_learning_02,A,2014_Feb_11_1535,P04,
stim_fb/ques.jpg,stim_fb/posf.jpg,stim_fb/negf.jpg,stim_02/e.jpg,stim_02/f.jpg,2,3,j,4,44,284,56,j,1,0.616523057721,02,03,60.0250861453,PLT_learning_02,A,2014_Feb_11_1535,P04,
stim_fb/ques.jpg,stim_fb/negf.jpg,stim_fb/posf.jpg,stim_02/a.jpg,stim_02/b.jpg,2,1,j,4,45,285,12,j,1,0.483234562146,02,03,60.0250861453,PLT_learning_02,A,2014_Feb_11_1535,P04,
stim_fb/ques.jpg,stim_fb/posf.jpg,stim_fb/negf.jpg,stim_02/d.jpg,stim_02/c.jpg,1,2,f,4,46,286,27,f,1,0.616513316441,02,03,60.0250861453,PLT_learning_02,A,2014_Feb_11_1535,P04,
stim_fb/ques.jpg,stim_fb/posf.jpg,stim_fb/negf.jpg,stim_02/e.jpg,stim_02/f.jpg,2,3,j,4,47,287,58,j,1,0.549887251976,02,03,60.0250861453,PLT_learning_02,A,2014_Feb_11_1535,P04,
stim_fb/ques.jpg,stim_fb/posf.jpg,stim_fb/negf.jpg,stim_02/f.jpg,stim_02/e.jpg,1,3,f,4,48,288,49,f,1,0.499848906399,02,03,60.0250861453,PLT_learning_02,A,2014_Feb_11_1535,P04,
stim_fb/ques.jpg,stim_fb/negf.jpg,stim_fb/posf.jpg,stim_02/b.jpg,stim_02/a.jpg,1,1,f,4,49,289,3,f,1,0.699800097743,02,03,60.0250861453,PLT_learning_02,A,2014_Feb_11_1535,P04,
stim_fb/ques.jpg,stim_fb/posf.jpg,stim_fb/negf.jpg,stim_02/b.jpg,stim_02/a.jpg,1,1,f,4,50,290,9,f,1,1.01636701378,02,03,60.0250861453,PLT_learning_02,A,2014_Feb_11_1535,P04,
stim_fb/ques.jpg,stim_fb/negf.jpg,stim_fb/posf.jpg,stim_02/e.jpg,stim_02/f.jpg,2,3,j,4,51,291,50,j,1,1.54959614439,02,03,60.0250861453,PLT_learning_02,A,2014_Feb_11_1535,P04,
stim_fb/ques.jpg,stim_fb/negf.jpg,stim_fb/posf.jpg,stim_02/c.jpg,stim_02/d.jpg,2,2,j,4,52,292,35,j,1,0.749794554928,02,03,60.0250861453,PLT_learning_02,A,2014_Feb_11_1535,P04,
stim_fb/ques.jpg,stim_fb/negf.jpg,stim_fb/posf.jpg,stim_02/d.jpg,stim_02/c.jpg,1,2,f,4,53,293,21,f,1,1.09963180728,02,03,60.0250861453,PLT_learning_02,A,2014_Feb_11_1535,P04,
stim_fb/ques.jpg,stim_fb/negf.jpg,stim_fb/posf.jpg,stim_02/c.jpg,stim_02/d.jpg,2,2,j,4,54,294,34,j,1,0.999738606477,02,03,60.0250861453,PLT_learning_02,A,2014_Feb_11_1535,P04,
stim_fb/ques.jpg,stim_fb/posf.jpg,stim_fb/negf.jpg,stim_02/d.jpg,stim_02/c.jpg,1,2,f,4,55,295,28,f,1,0.849761815325,02,03,60.0250861453,PLT_learning_02,A,2014_Feb_11_1535,P04,
stim_fb/ques.jpg,stim_fb/negf.jpg,stim_fb/posf.jpg,stim_02/f.jpg,stim_02/e.jpg,1,3,f,4,56,296,43,f,1,1.31631926978,02,03,60.0250861453,PLT_learning_02,A,2014_Feb_11_1535,P04,
stim_fb/ques.jpg,stim_fb/negf.jpg,stim_fb/posf.jpg,stim_02/a.jpg,stim_02/b.jpg,2,1,j,4,57,297,13,j,1,0.64984195006,02,03,60.0250861453,PLT_learning_02,A,2014_Feb_11_1535,P04,
stim_fb/ques.jpg,stim_fb/negf.jpg,stim_fb/posf.jpg,stim_02/e.jpg,stim_02/f.jpg,2,3,j,4,58,298,54,j,1,0.533203145841,02,03,60.0250861453,PLT_learning_02,A,2014_Feb_11_1535,P04,
stim_fb/ques.jpg,stim_fb/negf.jpg,stim_fb/posf.jpg,stim_02/d.jpg,stim_02/c.jpg,1,2,f,4,59,299,22,f,1,0.76646088676,02,03,60.0250861453,PLT_learning_02,A,2014_Feb_11_1535,P04,
stim_fb/ques.jpg,stim_fb/negf.jpg,stim_fb/posf.jpg,stim_02/d.jpg,stim_02/c.jpg,1,2,f,5,0,300,26,f,1,0.683129582485,02,03,60.0250861453,PLT_learning_02,A,2014_Feb_11_1535,P04,
stim_fb/ques.jpg,stim_fb/negf.jpg,stim_fb/posf.jpg,stim_02/c.jpg,stim_02/d.jpg,2,2,j,5,1,301,33,j,1,0.783126535891,02,03,60.0250861453,PLT_learning_02,A,2014_Feb_11_1535,P04,
stim_fb/ques.jpg,stim_fb/negf.jpg,stim_fb/posf.jpg,stim_02/a.jpg,stim_02/b.jpg,2,1,j,5,2,302,10,j,1,0.666497154156,02,03,60.0250861453,PLT_learning_02,A,2014_Feb_11_1535,P04,
stim_fb/ques.jpg,stim_fb/negf.jpg,stim_fb/posf.jpg,stim_02/b.jpg,stim_02/a.jpg,1,1,f,5,3,303,2,f,1,1.14966313035,02,03,60.0250861453,PLT_learning_02,A,2014_Feb_11_1535,P04,
stim_fb/ques.jpg,stim_fb/negf.jpg,stim_fb/posf.jpg,stim_02/f.jpg,stim_02/e.jpg,1,3,f,5,4,304,42,f,1,0.933366723558,02,03,60.0250861453,PLT_learning_02,A,2014_Feb_11_1535,P04,
stim_fb/ques.jpg,stim_fb/negf.jpg,stim_fb/posf.jpg,stim_02/e.jpg,stim_02/f.jpg,2,3,j,5,5,305,55,j,1,0.68316690852,02,03,60.0250861453,PLT_learning_02,A,2014_Feb_11_1535,P04,
stim_fb/ques.jpg,stim_fb/negf.jpg,stim_fb/posf.jpg,stim_02/e.jpg,stim_02/f.jpg,2,3,j,5,6,306,51,j,1,0.633175828753,02,03,60.0250861453,PLT_learning_02,A,2014_Feb_11_1535,P04,
stim_fb/ques.jpg,stim_fb/posf.jpg,stim_fb/negf.jpg,stim_02/e.jpg,stim_02/f.jpg,2,3,j,5,7,307,58,j,1,0.533182730957,02,03,60.0250861453,PLT_learning_02,A,2014_Feb_11_1535,P04,
stim_fb/ques.jpg,stim_fb/negf.jpg,stim_fb/posf.jpg,stim_02/b.jpg,stim_02/a.jpg,1,1,f,5,8,308,3,f,1,0.549815742739,02,03,60.0250861453,PLT_learning_02,A,2014_Feb_11_1535,P04,
stim_fb/ques.jpg,stim_fb/negf.jpg,stim_fb/posf.jpg,stim_02/e.jpg,stim_02/f.jpg,2,3,j,5,9,309,52,j,1,0.53318221066,02,03,60.0250861453,PLT_learning_02,A,2014_Feb_11_1535,P04,
stim_fb/ques.jpg,stim_fb/posf.jpg,stim_fb/negf.jpg,stim_02/c.jpg,stim_02/d.jpg,2,2,j,5,10,310,38,j,1,0.616524275757,02,03,60.0250861453,PLT_learning_02,A,2014_Feb_11_1535,P04,
stim_fb/ques.jpg,stim_fb/negf.jpg,stim_fb/posf.jpg,stim_02/a.jpg,stim_02/b.jpg,2,1,j,5,11,311,12,j,1,1.44953446064,02,03,60.0250861453,PLT_learning_02,A,2014_Feb_11_1535,P04,
stim_fb/ques.jpg,stim_fb/negf.jpg,stim_fb/posf.jpg,stim_02/a.jpg,stim_02/b.jpg,2,1,j,5,12,312,16,j,1,0.533199157901,02,03,60.0250861453,PLT_learning_02,A,2014_Feb_11_1535,P04,
stim_fb/ques.jpg,stim_fb/negf.jpg,stim_fb/posf.jpg,stim_02/c.jpg,stim_02/d.jpg,2,2,j,5,13,313,32,j,1,0.59986220254,02,03,60.0250861453,PLT_learning_02,A,2014_Feb_11_1535,P04,
stim_fb/ques.jpg,stim_fb/negf.jpg,stim_fb/posf.jpg,stim_02/c.jpg,stim_02/d.jpg,2,2,j,5,14,314,31,j,1,0.583154821392,02,03,60.0250861453,PLT_learning_02,A,2014_Feb_11_1535,P04,
stim_fb/ques.jpg,stim_fb/negf.jpg,stim_fb/posf.jpg,stim_02/b.jpg,stim_02/a.jpg,1,1,f,5,15,315,5,f,1,0.933015998376,02,03,60.0250861453,PLT_learning_02,A,2014_Feb_11_1535,P04,
stim_fb/ques.jpg,stim_fb/posf.jpg,stim_fb/negf.jpg,stim_02/f.jpg,stim_02/e.jpg,1,3,f,5,16,316,47,f,1,0.63314845753,02,03,60.0250861453,PLT_learning_02,A,2014_Feb_11_1535,P04,
stim_fb/ques.jpg,stim_fb/posf.jpg,stim_fb/negf.jpg,stim_02/d.jpg,stim_02/c.jpg,1,2,f,5,17,317,29,f,1,0.816507575131,02,03,60.0250861453,PLT_learning_02,A,2014_Feb_11_1535,P04,
stim_fb/ques.jpg,stim_fb/negf.jpg,stim_fb/posf.jpg,stim_02/b.jpg,stim_02/a.jpg,1,1,f,5,18,318,1,f,1,0.866418258509,02,03,60.0250861453,PLT_learning_02,A,2014_Feb_11_1535,P04,
stim_fb/ques.jpg,stim_fb/negf.jpg,stim_fb/posf.jpg,stim_02/e.jpg,stim_02/f.jpg,2,3,j,5,19,319,54,j,1,0.766397308291,02,03,60.0250861453,PLT_learning_02,A,2014_Feb_11_1535,P04,
stim_fb/ques.jpg,stim_fb/negf.jpg,stim_fb/posf.jpg,stim_02/c.jpg,stim_02/d.jpg,2,2,j,5,20,320,35,j,1,0.533195350411,02,03,60.0250861453,PLT_learning_02,A,2014_Feb_11_1535,P04,
stim_fb/ques.jpg,stim_fb/posf.jpg,stim_fb/negf.jpg,stim_02/f.jpg,stim_02/e.jpg,1,3,f,5,21,321,49,f,1,0.749815860032,02,03,60.0250861453,PLT_learning_02,A,2014_Feb_11_1535,P04,
stim_fb/ques.jpg,stim_fb/negf.jpg,stim_fb/posf.jpg,stim_02/e.jpg,stim_02/f.jpg,2,3,j,5,22,322,50,j,1,0.633182276825,02,03,60.0250861453,PLT_learning_02,A,2014_Feb_11_1535,P04,
stim_fb/ques.jpg,stim_fb/posf.jpg,stim_fb/negf.jpg,stim_02/e.jpg,stim_02/f.jpg,2,3,j,5,23,323,57,j,1,0.666500360148,02,03,60.0250861453,PLT_learning_02,A,2014_Feb_11_1535,P04,
stim_fb/ques.jpg,stim_fb/posf.jpg,stim_fb/negf.jpg,stim_02/f.jpg,stim_02/e.jpg,1,3,f,5,24,324,46,f,1,0.683175158081,02,03,60.0250861453,PLT_learning_02,A,2014_Feb_11_1535,P04,
stim_fb/ques.jpg,stim_fb/negf.jpg,stim_fb/posf.jpg,stim_02/c.jpg,stim_02/d.jpg,2,2,j,5,25,325,34,j,1,0.599844440268,02,03,60.0250861453,PLT_learning_02,A,2014_Feb_11_1535,P04,
stim_fb/ques.jpg,stim_fb/negf.jpg,stim_fb/posf.jpg,stim_02/d.jpg,stim_02/c.jpg,1,2,f,5,26,326,24,f,1,0.666510023233,02,03,60.0250861453,PLT_learning_02,A,2014_Feb_11_1535,P04,
stim_fb/ques.jpg,stim_fb/posf.jpg,stim_fb/negf.jpg,stim_02/c.jpg,stim_02/d.jpg,2,2,j,5,27,327,37,j,1,0.716497175209,02,03,60.0250861453,PLT_learning_02,A,2014_Feb_11_1535,P04,
stim_fb/ques.jpg,stim_fb/negf.jpg,stim_fb/posf.jpg,stim_02/f.jpg,stim_02/e.jpg,1,3,f,5,28,328,44,f,1,0.849784786581,02,03,60.0250861453,PLT_learning_02,A,2014_Feb_11_1535,P04,
stim_fb/ques.jpg,stim_fb/posf.jpg,stim_fb/negf.jpg,stim_02/d.jpg,stim_02/c.jpg,1,2,f,5,29,329,28,f,1,0.633188306855,02,03,60.0250861453,PLT_learning_02,A,2014_Feb_11_1535,P04,
stim_fb/ques.jpg,stim_fb/negf.jpg,stim_fb/posf.jpg,stim_02/d.jpg,stim_02/c.jpg,1,2,f,5,30,330,23,f,1,0.716497518064,02,03,60.0250861453,PLT_learning_02,A,2014_Feb_11_1535,P04,
stim_fb/ques.jpg,stim_fb/negf.jpg,stim_fb/posf.jpg,stim_02/b.jpg,stim_02/a.jpg,1,1,f,5,31,331,7,f,1,0.699813730724,02,03,60.0250861453,PLT_learning_02,A,2014_Feb_11_1535,P04,
stim_fb/ques.jpg,stim_fb/negf.jpg,stim_fb/posf.jpg,stim_02/f.jpg,stim_02/e.jpg,1,3,f,5,32,332,45,j,0,0.616388559484,02,03,60.0250861453,PLT_learning_02,A,2014_Feb_11_1535,P04,
stim_fb/ques.jpg,stim_fb/negf.jpg,stim_fb/posf.jpg,stim_02/a.jpg,stim_02/b.jpg,2,1,j,5,33,333,15,j,1,0.833126075744,02,03,60.0250861453,PLT_learning_02,A,2014_Feb_11_1535,P04,
stim_fb/ques.jpg,stim_fb/negf.jpg,stim_fb/posf.jpg,stim_02/a.jpg,stim_02/b.jpg,2,1,j,5,34,334,13,j,1,0.749820043458,02,03,60.0250861453,PLT_learning_02,A,2014_Feb_11_1535,P04,
stim_fb/ques.jpg,stim_fb/negf.jpg,stim_fb/posf.jpg,stim_02/c.jpg,stim_02/d.jpg,2,2,j,5,35,335,36,j,1,0.716468210013,02,03,60.0250861453,PLT_learning_02,A,2014_Feb_11_1535,P04,
stim_fb/ques.jpg,stim_fb/posf.jpg,stim_fb/negf.jpg,stim_02/e.jpg,stim_02/f.jpg,2,3,j,5,36,336,56,f,0,0.633184078315,02,03,60.0250861453,PLT_learning_02,A,2014_Feb_11_1535,P04,
stim_fb/ques.jpg,stim_fb/negf.jpg,stim_fb/posf.jpg,stim_02/a.jpg,stim_02/b.jpg,2,1,j,5,37,337,17,j,1,0.816456315366,02,03,60.0250861453,PLT_learning_02,A,2014_Feb_11_1535,P04,
stim_fb/ques.jpg,stim_fb/posf.jpg,stim_fb/negf.jpg,stim_02/b.jpg,stim_02/a.jpg,1,1,f,5,38,338,9,f,1,0.583208309712,02,03,60.0250861453,PLT_learning_02,A,2014_Feb_11_1535,P04,
stim_fb/ques.jpg,stim_fb/posf.jpg,stim_fb/negf.jpg,stim_02/f.jpg,stim_02/e.jpg,1,3,f,5,39,339,48,f,1,1.28293297043,02,03,60.0250861453,PLT_learning_02,A,2014_Feb_11_1535,P04,
stim_fb/ques.jpg,stim_fb/posf.jpg,stim_fb/negf.jpg,stim_02/e.jpg,stim_02/f.jpg,2,3,j,5,40,340,59,j,1,0.73313517342,02,03,60.0250861453,PLT_learning_02,A,2014_Feb_11_1535,P04,
stim_fb/ques.jpg,stim_fb/posf.jpg,stim_fb/negf.jpg,stim_02/a.jpg,stim_02/b.jpg,2,1,j,5,41,341,18,j,1,0.633189284291,02,03,60.0250861453,PLT_learning_02,A,2014_Feb_11_1535,P04,
stim_fb/ques.jpg,stim_fb/negf.jpg,stim_fb/posf.jpg,stim_02/b.jpg,stim_02/a.jpg,1,1,f,5,42,342,4,f,1,0.616515514921,02,03,60.0250861453,PLT_learning_02,A,2014_Feb_11_1535,P04,
stim_fb/ques.jpg,stim_fb/negf.jpg,stim_fb/posf.jpg,stim_02/f.jpg,stim_02/e.jpg,1,3,f,5,43,343,43,f,1,0.68316086646,02,03,60.0250861453,PLT_learning_02,A,2014_Feb_11_1535,P04,
stim_fb/ques.jpg,stim_fb/negf.jpg,stim_fb/posf.jpg,stim_02/a.jpg,stim_02/b.jpg,2,1,j,5,44,344,11,j,1,0.549888527154,02,03,60.0250861453,PLT_learning_02,A,2014_Feb_11_1535,P04,
stim_fb/ques.jpg,stim_fb/negf.jpg,stim_fb/posf.jpg,stim_02/d.jpg,stim_02/c.jpg,1,2,f,5,45,345,21,f,1,0.616452053744,02,03,60.0250861453,PLT_learning_02,A,2014_Feb_11_1535,P04,
stim_fb/ques.jpg,stim_fb/posf.jpg,stim_fb/negf.jpg,stim_02/c.jpg,stim_02/d.jpg,2,2,j,5,46,346,39,j,1,0.549874253577,02,03,60.0250861453,PLT_learning_02,A,2014_Feb_11_1535,P04,
stim_fb/ques.jpg,stim_fb/negf.jpg,stim_fb/posf.jpg,stim_02/f.jpg,stim_02/e.jpg,1,3,f,5,47,347,41,f,1,0.633175052819,02,03,60.0250861453,PLT_learning_02,A,2014_Feb_11_1535,P04,
stim_fb/ques.jpg,stim_fb/posf.jpg,stim_fb/negf.jpg,stim_02/b.jpg,stim_02/a.jpg,1,1,f,5,48,348,8,f,1,0.599863140879,02,03,60.0250861453,PLT_learning_02,A,2014_Feb_11_1535,P04,
stim_fb/ques.jpg,stim_fb/negf.jpg,stim_fb/posf.jpg,stim_02/f.jpg,stim_02/e.jpg,1,3,f,5,49,349,40,f,1,1.28297634153,02,03,60.0250861453,PLT_learning_02,A,2014_Feb_11_1535,P04,
stim_fb/ques.jpg,stim_fb/negf.jpg,stim_fb/posf.jpg,stim_02/b.jpg,stim_02/a.jpg,1,1,f,5,50,350,0,f,1,0.71647836332,02,03,60.0250861453,PLT_learning_02,A,2014_Feb_11_1535,P04,
stim_fb/ques.jpg,stim_fb/negf.jpg,stim_fb/posf.jpg,stim_02/c.jpg,stim_02/d.jpg,2,2,j,5,51,351,30,j,1,0.649839850828,02,03,60.0250861453,PLT_learning_02,A,2014_Feb_11_1535,P04,
stim_fb/ques.jpg,stim_fb/negf.jpg,stim_fb/posf.jpg,stim_02/d.jpg,stim_02/c.jpg,1,2,f,5,52,352,22,f,1,0.633216718671,02,03,60.0250861453,PLT_learning_02,A,2014_Feb_11_1535,P04,
stim_fb/ques.jpg,stim_fb/posf.jpg,stim_fb/negf.jpg,stim_02/a.jpg,stim_02/b.jpg,2,1,j,5,53,353,19,j,1,0.666496242885,02,03,60.0250861453,PLT_learning_02,A,2014_Feb_11_1535,P04,
stim_fb/ques.jpg,stim_fb/negf.jpg,stim_fb/posf.jpg,stim_02/a.jpg,stim_02/b.jpg,2,1,j,5,54,354,14,j,1,0.599833526063,02,03,60.0250861453,PLT_learning_02,A,2014_Feb_11_1535,P04,
stim_fb/ques.jpg,stim_fb/negf.jpg,stim_fb/posf.jpg,stim_02/d.jpg,stim_02/c.jpg,1,2,f,5,55,355,20,f,1,0.666503469899,02,03,60.0250861453,PLT_learning_02,A,2014_Feb_11_1535,P04,
stim_fb/ques.jpg,stim_fb/negf.jpg,stim_fb/posf.jpg,stim_02/d.jpg,stim_02/c.jpg,1,2,f,5,56,356,25,f,1,0.633197347388,02,03,60.0250861453,PLT_learning_02,A,2014_Feb_11_1535,P04,
stim_fb/ques.jpg,stim_fb/negf.jpg,stim_fb/posf.jpg,stim_02/b.jpg,stim_02/a.jpg,1,1,f,5,57,357,6,f,1,0.699839772633,02,03,60.0250861453,PLT_learning_02,A,2014_Feb_11_1535,P04,
stim_fb/ques.jpg,stim_fb/posf.jpg,stim_fb/negf.jpg,stim_02/d.jpg,stim_02/c.jpg,1,2,f,5,58,358,27,f,1,0.716547072579,02,03,60.0250861453,PLT_learning_02,A,2014_Feb_11_1535,P04,
stim_fb/ques.jpg,stim_fb/negf.jpg,stim_fb/posf.jpg,stim_02/e.jpg,stim_02/f.jpg,2,3,j,5,59,359,53,f,0,0.666438883918,02,03,60.0250861453,PLT_learning_02,A,2014_Feb_11_1535,P04,
