Fb3,Fb2,Fb1,Symbol2,Symbol1,PosCond,Pair,Correct,trials.thisRepN,trials.thisTrialN,trials.thisN,trials.thisIndex,Response.keys,Response.corr,Response.rt,Version,Session Number,frameRate,expName,StimCondition,date,Participant,
stim_fb/ques.jpg,stim_fb/posf.jpg,stim_fb/negf.jpg,stim_01/e.jpg,stim_01/f.jpg,2,3,j,0,0,0,58,j,1,1.01638546332,01,02,60.0151687754,PLT_learning_01,A,2014_Feb_13_1725,P05,
stim_fb/ques.jpg,stim_fb/negf.jpg,stim_fb/posf.jpg,stim_01/c.jpg,stim_01/d.jpg,2,2,j,0,1,1,30,j,1,1.09970040338,01,02,60.0151687754,PLT_learning_01,A,2014_Feb_13_1725,P05,
stim_fb/ques.jpg,stim_fb/negf.jpg,stim_fb/posf.jpg,stim_01/f.jpg,stim_01/e.jpg,1,3,f,0,2,2,40,None,0,,01,02,60.0151687754,PLT_learning_01,A,2014_Feb_13_1725,P05,
stim_fb/ques.jpg,stim_fb/negf.jpg,stim_fb/posf.jpg,stim_01/b.jpg,stim_01/a.jpg,1,1,f,0,3,3,2,j,0,0.799794534649,01,02,60.0151687754,PLT_learning_01,A,2014_Feb_13_1725,P05,
stim_fb/ques.jpg,stim_fb/posf.jpg,stim_fb/negf.jpg,stim_01/c.jpg,stim_01/d.jpg,2,2,j,0,4,4,39,j,1,0.833138603699,01,02,60.0151687754,PLT_learning_01,A,2014_Feb_13_1725,P05,
stim_fb/ques.jpg,stim_fb/negf.jpg,stim_fb/posf.jpg,stim_01/f.jpg,stim_01/e.jpg,1,3,f,0,5,5,43,j,0,1.01635609222,01,02,60.0151687754,PLT_learning_01,A,2014_Feb_13_1725,P05,
stim_fb/ques.jpg,stim_fb/negf.jpg,stim_fb/posf.jpg,stim_01/d.jpg,stim_01/c.jpg,1,2,f,0,6,6,22,f,1,0.716476063802,01,02,60.0151687754,PLT_learning_01,A,2014_Feb_13_1725,P05,
stim_fb/ques.jpg,stim_fb/negf.jpg,stim_fb/posf.jpg,stim_01/f.jpg,stim_01/e.jpg,1,3,f,0,7,7,45,f,1,0.449867440591,01,02,60.0151687754,PLT_learning_01,A,2014_Feb_13_1725,P05,
stim_fb/ques.jpg,stim_fb/posf.jpg,stim_fb/negf.jpg,stim_01/f.jpg,stim_01/e.jpg,1,3,f,0,8,8,48,f,1,1.01637885287,01,02,60.0151687754,PLT_learning_01,A,2014_Feb_13_1725,P05,
stim_fb/ques.jpg,stim_fb/negf.jpg,stim_fb/posf.jpg,stim_01/c.jpg,stim_01/d.jpg,2,2,j,0,9,9,31,j,1,0.833083004327,01,02,60.0151687754,PLT_learning_01,A,2014_Feb_13_1725,P05,
stim_fb/ques.jpg,stim_fb/negf.jpg,stim_fb/posf.jpg,stim_01/a.jpg,stim_01/b.jpg,2,1,j,0,10,10,10,f,0,0.899743401391,01,02,60.0151687754,PLT_learning_01,A,2014_Feb_13_1725,P05,
stim_fb/ques.jpg,stim_fb/posf.jpg,stim_fb/negf.jpg,stim_01/e.jpg,stim_01/f.jpg,2,3,j,0,11,11,59,j,1,0.816454972311,01,02,60.0151687754,PLT_learning_01,A,2014_Feb_13_1725,P05,
stim_fb/ques.jpg,stim_fb/negf.jpg,stim_fb/posf.jpg,stim_01/b.jpg,stim_01/a.jpg,1,1,f,0,12,12,3,j,0,0.899737221009,01,02,60.0151687754,PLT_learning_01,A,2014_Feb_13_1725,P05,
stim_fb/ques.jpg,stim_fb/negf.jpg,stim_fb/posf.jpg,stim_01/b.jpg,stim_01/a.jpg,1,1,f,0,13,13,1,f,1,0.966356217035,01,02,60.0151687754,PLT_learning_01,A,2014_Feb_13_1725,P05,
stim_fb/ques.jpg,stim_fb/negf.jpg,stim_fb/posf.jpg,stim_01/f.jpg,stim_01/e.jpg,1,3,f,0,14,14,44,j,0,0.966345648734,01,02,60.0151687754,PLT_learning_01,A,2014_Feb_13_1725,P05,
stim_fb/ques.jpg,stim_fb/posf.jpg,stim_fb/negf.jpg,stim_01/f.jpg,stim_01/e.jpg,1,3,f,0,15,15,49,f,1,0.916395592532,01,02,60.0151687754,PLT_learning_01,A,2014_Feb_13_1725,P05,
stim_fb/ques.jpg,stim_fb/negf.jpg,stim_fb/posf.jpg,stim_01/e.jpg,stim_01/f.jpg,2,3,j,0,16,16,52,f,0,1.01635905159,01,02,60.0151687754,PLT_learning_01,A,2014_Feb_13_1725,P05,
stim_fb/ques.jpg,stim_fb/negf.jpg,stim_fb/posf.jpg,stim_01/a.jpg,stim_01/b.jpg,2,1,j,0,17,17,11,j,1,0.966403614997,01,02,60.0151687754,PLT_learning_01,A,2014_Feb_13_1725,P05,
stim_fb/ques.jpg,stim_fb/posf.jpg,stim_fb/negf.jpg,stim_01/c.jpg,stim_01/d.jpg,2,2,j,0,18,18,37,j,1,0.633152185503,01,02,60.0151687754,PLT_learning_01,A,2014_Feb_13_1725,P05,
stim_fb/ques.jpg,stim_fb/negf.jpg,stim_fb/posf.jpg,stim_01/a.jpg,stim_01/b.jpg,2,1,j,0,19,19,16,j,1,0.999691627538,01,02,60.0151687754,PLT_learning_01,A,2014_Feb_13_1725,P05,
stim_fb/ques.jpg,stim_fb/posf.jpg,stim_fb/negf.jpg,stim_01/d.jpg,stim_01/c.jpg,1,2,f,0,20,20,29,f,1,0.999700731196,01,02,60.0151687754,PLT_learning_01,A,2014_Feb_13_1725,P05,
stim_fb/ques.jpg,stim_fb/negf.jpg,stim_fb/posf.jpg,stim_01/f.jpg,stim_01/e.jpg,1,3,f,0,21,21,42,j,0,0.699821671184,01,02,60.0151687754,PLT_learning_01,A,2014_Feb_13_1725,P05,
stim_fb/ques.jpg,stim_fb/negf.jpg,stim_fb/posf.jpg,stim_01/c.jpg,stim_01/d.jpg,2,2,j,0,22,22,36,j,1,0.683132042872,01,02,60.0151687754,PLT_learning_01,A,2014_Feb_13_1725,P05,
stim_fb/ques.jpg,stim_fb/negf.jpg,stim_fb/posf.jpg,stim_01/d.jpg,stim_01/c.jpg,1,2,f,0,23,23,21,f,1,0.58321682387,01,02,60.0151687754,PLT_learning_01,A,2014_Feb_13_1725,P05,
stim_fb/ques.jpg,stim_fb/negf.jpg,stim_fb/posf.jpg,stim_01/e.jpg,stim_01/f.jpg,2,3,j,0,24,24,53,j,1,0.699825890686,01,02,60.0151687754,PLT_learning_01,A,2014_Feb_13_1725,P05,
stim_fb/ques.jpg,stim_fb/posf.jpg,stim_fb/negf.jpg,stim_01/e.jpg,stim_01/f.jpg,2,3,j,0,25,25,57,j,1,0.833109620567,01,02,60.0151687754,PLT_learning_01,A,2014_Feb_13_1725,P05,
stim_fb/ques.jpg,stim_fb/posf.jpg,stim_fb/negf.jpg,stim_01/d.jpg,stim_01/c.jpg,1,2,f,0,26,26,27,f,1,0.583234083826,01,02,60.0151687754,PLT_learning_01,A,2014_Feb_13_1725,P05,
stim_fb/ques.jpg,stim_fb/negf.jpg,stim_fb/posf.jpg,stim_01/e.jpg,stim_01/f.jpg,2,3,j,0,27,27,51,f,0,0.733107145408,01,02,60.0151687754,PLT_learning_01,A,2014_Feb_13_1725,P05,
stim_fb/ques.jpg,stim_fb/negf.jpg,stim_fb/posf.jpg,stim_01/d.jpg,stim_01/c.jpg,1,2,f,0,28,28,24,f,1,0.699841066455,01,02,60.0151687754,PLT_learning_01,A,2014_Feb_13_1725,P05,
stim_fb/ques.jpg,stim_fb/negf.jpg,stim_fb/posf.jpg,stim_01/a.jpg,stim_01/b.jpg,2,1,j,0,29,29,17,f,0,0.716469880415,01,02,60.0151687754,PLT_learning_01,A,2014_Feb_13_1725,P05,
stim_fb/ques.jpg,stim_fb/posf.jpg,stim_fb/negf.jpg,stim_01/b.jpg,stim_01/a.jpg,1,1,f,0,30,30,9,f,1,0.78311001906,01,02,60.0151687754,PLT_learning_01,A,2014_Feb_13_1725,P05,
stim_fb/ques.jpg,stim_fb/posf.jpg,stim_fb/negf.jpg,stim_01/a.jpg,stim_01/b.jpg,2,1,j,0,31,31,18,f,0,1.06631615734,01,02,60.0151687754,PLT_learning_01,A,2014_Feb_13_1725,P05,
stim_fb/ques.jpg,stim_fb/negf.jpg,stim_fb/posf.jpg,stim_01/f.jpg,stim_01/e.jpg,1,3,f,0,32,32,41,j,0,0.883069727784,01,02,60.0151687754,PLT_learning_01,A,2014_Feb_13_1725,P05,
stim_fb/ques.jpg,stim_fb/negf.jpg,stim_fb/posf.jpg,stim_01/c.jpg,stim_01/d.jpg,2,2,j,0,33,33,34,j,1,0.783074248035,01,02,60.0151687754,PLT_learning_01,A,2014_Feb_13_1725,P05,
stim_fb/ques.jpg,stim_fb/negf.jpg,stim_fb/posf.jpg,stim_01/d.jpg,stim_01/c.jpg,1,2,f,0,34,34,25,f,1,0.716475820194,01,02,60.0151687754,PLT_learning_01,A,2014_Feb_13_1725,P05,
stim_fb/ques.jpg,stim_fb/negf.jpg,stim_fb/posf.jpg,stim_01/b.jpg,stim_01/a.jpg,1,1,f,0,35,35,7,j,0,1.24961855618,01,02,60.0151687754,PLT_learning_01,A,2014_Feb_13_1725,P05,
stim_fb/ques.jpg,stim_fb/negf.jpg,stim_fb/posf.jpg,stim_01/e.jpg,stim_01/f.jpg,2,3,j,0,36,36,55,j,1,0.966420381726,01,02,60.0151687754,PLT_learning_01,A,2014_Feb_13_1725,P05,
stim_fb/ques.jpg,stim_fb/negf.jpg,stim_fb/posf.jpg,stim_01/c.jpg,stim_01/d.jpg,2,2,j,0,37,37,35,j,1,0.566521863289,01,02,60.0151687754,PLT_learning_01,A,2014_Feb_13_1725,P05,
stim_fb/ques.jpg,stim_fb/negf.jpg,stim_fb/posf.jpg,stim_01/e.jpg,stim_01/f.jpg,2,3,j,0,38,38,54,j,1,0.766437034166,01,02,60.0151687754,PLT_learning_01,A,2014_Feb_13_1725,P05,
stim_fb/ques.jpg,stim_fb/negf.jpg,stim_fb/posf.jpg,stim_01/c.jpg,stim_01/d.jpg,2,2,j,0,39,39,33,j,1,0.54989957557,01,02,60.0151687754,PLT_learning_01,A,2014_Feb_13_1725,P05,
stim_fb/ques.jpg,stim_fb/posf.jpg,stim_fb/negf.jpg,stim_01/f.jpg,stim_01/e.jpg,1,3,f,0,40,40,46,f,1,0.799768568024,01,02,60.0151687754,PLT_learning_01,A,2014_Feb_13_1725,P05,
stim_fb/ques.jpg,stim_fb/posf.jpg,stim_fb/negf.jpg,stim_01/d.jpg,stim_01/c.jpg,1,2,f,0,41,41,28,f,1,0.633171454458,01,02,60.0151687754,PLT_learning_01,A,2014_Feb_13_1725,P05,
stim_fb/ques.jpg,stim_fb/negf.jpg,stim_fb/posf.jpg,stim_01/d.jpg,stim_01/c.jpg,1,2,f,0,42,42,20,f,1,0.583162322229,01,02,60.0151687754,PLT_learning_01,A,2014_Feb_13_1725,P05,
stim_fb/ques.jpg,stim_fb/posf.jpg,stim_fb/negf.jpg,stim_01/e.jpg,stim_01/f.jpg,2,3,j,0,43,43,56,j,1,0.699804892425,01,02,60.0151687754,PLT_learning_01,A,2014_Feb_13_1725,P05,
stim_fb/ques.jpg,stim_fb/posf.jpg,stim_fb/negf.jpg,stim_01/b.jpg,stim_01/a.jpg,1,1,f,0,44,44,8,f,1,0.899745136707,01,02,60.0151687754,PLT_learning_01,A,2014_Feb_13_1725,P05,
stim_fb/ques.jpg,stim_fb/negf.jpg,stim_fb/posf.jpg,stim_01/b.jpg,stim_01/a.jpg,1,1,f,0,45,45,4,f,1,0.64970813111,01,02,60.0151687754,PLT_learning_01,A,2014_Feb_13_1725,P05,
stim_fb/ques.jpg,stim_fb/negf.jpg,stim_fb/posf.jpg,stim_01/a.jpg,stim_01/b.jpg,2,1,j,0,46,46,13,j,1,0.766456961766,01,02,60.0151687754,PLT_learning_01,A,2014_Feb_13_1725,P05,
stim_fb/ques.jpg,stim_fb/posf.jpg,stim_fb/negf.jpg,stim_01/f.jpg,stim_01/e.jpg,1,3,f,0,47,47,47,j,0,0.883097044771,01,02,60.0151687754,PLT_learning_01,A,2014_Feb_13_1725,P05,
stim_fb/ques.jpg,stim_fb/negf.jpg,stim_fb/posf.jpg,stim_01/a.jpg,stim_01/b.jpg,2,1,j,0,48,48,15,j,1,0.783148382536,01,02,60.0151687754,PLT_learning_01,A,2014_Feb_13_1725,P05,
stim_fb/ques.jpg,stim_fb/negf.jpg,stim_fb/posf.jpg,stim_01/d.jpg,stim_01/c.jpg,1,2,f,0,49,49,26,f,1,0.649806490903,01,02,60.0151687754,PLT_learning_01,A,2014_Feb_13_1725,P05,
stim_fb/ques.jpg,stim_fb/negf.jpg,stim_fb/posf.jpg,stim_01/b.jpg,stim_01/a.jpg,1,1,f,0,50,50,6,f,1,0.916423664396,01,02,60.0151687754,PLT_learning_01,A,2014_Feb_13_1725,P05,
stim_fb/ques.jpg,stim_fb/negf.jpg,stim_fb/posf.jpg,stim_01/b.jpg,stim_01/a.jpg,1,1,f,0,51,51,5,f,1,0.43323485224,01,02,60.0151687754,PLT_learning_01,A,2014_Feb_13_1725,P05,
stim_fb/ques.jpg,stim_fb/posf.jpg,stim_fb/negf.jpg,stim_01/c.jpg,stim_01/d.jpg,2,2,j,0,52,52,38,j,1,0.649805092424,01,02,60.0151687754,PLT_learning_01,A,2014_Feb_13_1725,P05,
stim_fb/ques.jpg,stim_fb/negf.jpg,stim_fb/posf.jpg,stim_01/a.jpg,stim_01/b.jpg,2,1,j,0,53,53,12,j,1,0.83307621042,01,02,60.0151687754,PLT_learning_01,A,2014_Feb_13_1725,P05,
stim_fb/ques.jpg,stim_fb/negf.jpg,stim_fb/posf.jpg,stim_01/a.jpg,stim_01/b.jpg,2,1,j,0,54,54,14,j,1,0.666518855804,01,02,60.0151687754,PLT_learning_01,A,2014_Feb_13_1725,P05,
stim_fb/ques.jpg,stim_fb/negf.jpg,stim_fb/posf.jpg,stim_01/d.jpg,stim_01/c.jpg,1,2,f,0,55,55,23,f,1,0.533210311161,01,02,60.0151687754,PLT_learning_01,A,2014_Feb_13_1725,P05,
stim_fb/ques.jpg,stim_fb/negf.jpg,stim_fb/posf.jpg,stim_01/c.jpg,stim_01/d.jpg,2,2,j,0,56,56,32,j,1,0.499828059081,01,02,60.0151687754,PLT_learning_01,A,2014_Feb_13_1725,P05,
stim_fb/ques.jpg,stim_fb/negf.jpg,stim_fb/posf.jpg,stim_01/e.jpg,stim_01/f.jpg,2,3,j,0,57,57,50,j,1,0.666464128601,01,02,60.0151687754,PLT_learning_01,A,2014_Feb_13_1725,P05,
stim_fb/ques.jpg,stim_fb/posf.jpg,stim_fb/negf.jpg,stim_01/a.jpg,stim_01/b.jpg,2,1,j,0,58,58,19,j,1,0.699822811021,01,02,60.0151687754,PLT_learning_01,A,2014_Feb_13_1725,P05,
stim_fb/ques.jpg,stim_fb/negf.jpg,stim_fb/posf.jpg,stim_01/b.jpg,stim_01/a.jpg,1,1,f,0,59,59,0,f,1,0.633164209426,01,02,60.0151687754,PLT_learning_01,A,2014_Feb_13_1725,P05,
stim_fb/ques.jpg,stim_fb/negf.jpg,stim_fb/posf.jpg,stim_01/c.jpg,stim_01/d.jpg,2,2,j,1,0,60,31,j,1,0.649807543523,01,02,60.0151687754,PLT_learning_01,A,2014_Feb_13_1725,P05,
stim_fb/ques.jpg,stim_fb/negf.jpg,stim_fb/posf.jpg,stim_01/c.jpg,stim_01/d.jpg,2,2,j,1,1,61,32,j,1,0.666525141445,01,02,60.0151687754,PLT_learning_01,A,2014_Feb_13_1725,P05,
stim_fb/ques.jpg,stim_fb/posf.jpg,stim_fb/negf.jpg,stim_01/d.jpg,stim_01/c.jpg,1,2,f,1,2,62,27,f,1,0.499868581934,01,02,60.0151687754,PLT_learning_01,A,2014_Feb_13_1725,P05,
stim_fb/ques.jpg,stim_fb/posf.jpg,stim_fb/negf.jpg,stim_01/a.jpg,stim_01/b.jpg,2,1,j,1,3,63,18,j,1,0.649839098052,01,02,60.0151687754,PLT_learning_01,A,2014_Feb_13_1725,P05,
stim_fb/ques.jpg,stim_fb/negf.jpg,stim_fb/posf.jpg,stim_01/a.jpg,stim_01/b.jpg,2,1,j,1,4,64,17,j,1,0.599854582091,01,02,60.0151687754,PLT_learning_01,A,2014_Feb_13_1725,P05,
stim_fb/ques.jpg,stim_fb/negf.jpg,stim_fb/posf.jpg,stim_01/d.jpg,stim_01/c.jpg,1,2,f,1,5,65,22,f,1,0.533193742926,01,02,60.0151687754,PLT_learning_01,A,2014_Feb_13_1725,P05,
stim_fb/ques.jpg,stim_fb/negf.jpg,stim_fb/posf.jpg,stim_01/a.jpg,stim_01/b.jpg,2,1,j,1,6,66,13,j,1,0.766457557245,01,02,60.0151687754,PLT_learning_01,A,2014_Feb_13_1725,P05,
stim_fb/ques.jpg,stim_fb/posf.jpg,stim_fb/negf.jpg,stim_01/f.jpg,stim_01/e.jpg,1,3,f,1,7,67,47,j,0,0.9664208539,01,02,60.0151687754,PLT_learning_01,A,2014_Feb_13_1725,P05,
stim_fb/ques.jpg,stim_fb/negf.jpg,stim_fb/posf.jpg,stim_01/a.jpg,stim_01/b.jpg,2,1,j,1,8,68,10,j,1,0.683160514731,01,02,60.0151687754,PLT_learning_01,A,2014_Feb_13_1725,P05,
stim_fb/ques.jpg,stim_fb/negf.jpg,stim_fb/posf.jpg,stim_01/b.jpg,stim_01/a.jpg,1,1,f,1,9,69,4,f,1,0.833140200677,01,02,60.0151687754,PLT_learning_01,A,2014_Feb_13_1725,P05,
stim_fb/ques.jpg,stim_fb/negf.jpg,stim_fb/posf.jpg,stim_01/e.jpg,stim_01/f.jpg,2,3,j,1,10,70,54,f,0,0.866401512765,01,02,60.0151687754,PLT_learning_01,A,2014_Feb_13_1725,P05,
stim_fb/ques.jpg,stim_fb/negf.jpg,stim_fb/posf.jpg,stim_01/e.jpg,stim_01/f.jpg,2,3,j,1,11,71,51,j,1,0.833106059708,01,02,60.0151687754,PLT_learning_01,A,2014_Feb_13_1725,P05,
stim_fb/ques.jpg,stim_fb/negf.jpg,stim_fb/posf.jpg,stim_01/a.jpg,stim_01/b.jpg,2,1,j,1,12,72,16,j,1,0.816429983119,01,02,60.0151687754,PLT_learning_01,A,2014_Feb_13_1725,P05,
stim_fb/ques.jpg,stim_fb/negf.jpg,stim_fb/posf.jpg,stim_01/a.jpg,stim_01/b.jpg,2,1,j,1,13,73,14,j,1,0.716463194774,01,02,60.0151687754,PLT_learning_01,A,2014_Feb_13_1725,P05,
stim_fb/ques.jpg,stim_fb/negf.jpg,stim_fb/posf.jpg,stim_01/b.jpg,stim_01/a.jpg,1,1,f,1,14,74,3,f,1,0.783061857197,01,02,60.0151687754,PLT_learning_01,A,2014_Feb_13_1725,P05,
stim_fb/ques.jpg,stim_fb/posf.jpg,stim_fb/negf.jpg,stim_01/f.jpg,stim_01/e.jpg,1,3,f,1,15,75,49,j,0,0.883112707754,01,02,60.0151687754,PLT_learning_01,A,2014_Feb_13_1725,P05,
stim_fb/ques.jpg,stim_fb/negf.jpg,stim_fb/posf.jpg,stim_01/b.jpg,stim_01/a.jpg,1,1,f,1,16,76,2,f,1,0.79978063405,01,02,60.0151687754,PLT_learning_01,A,2014_Feb_13_1725,P05,
stim_fb/ques.jpg,stim_fb/posf.jpg,stim_fb/negf.jpg,stim_01/c.jpg,stim_01/d.jpg,2,2,j,1,17,77,38,j,1,0.649840586761,01,02,60.0151687754,PLT_learning_01,A,2014_Feb_13_1725,P05,
stim_fb/ques.jpg,stim_fb/posf.jpg,stim_fb/negf.jpg,stim_01/b.jpg,stim_01/a.jpg,1,1,f,1,18,78,9,f,1,0.682132360915,01,02,60.0151687754,PLT_learning_01,A,2014_Feb_13_1725,P05,
stim_fb/ques.jpg,stim_fb/negf.jpg,stim_fb/posf.jpg,stim_01/b.jpg,stim_01/a.jpg,1,1,f,1,19,79,7,f,1,0.599817626116,01,02,60.0151687754,PLT_learning_01,A,2014_Feb_13_1725,P05,
stim_fb/ques.jpg,stim_fb/negf.jpg,stim_fb/posf.jpg,stim_01/f.jpg,stim_01/e.jpg,1,3,f,1,20,80,44,j,0,0.783110831082,01,02,60.0151687754,PLT_learning_01,A,2014_Feb_13_1725,P05,
stim_fb/ques.jpg,stim_fb/negf.jpg,stim_fb/posf.jpg,stim_01/c.jpg,stim_01/d.jpg,2,2,j,1,21,81,36,j,1,0.616510144624,01,02,60.0151687754,PLT_learning_01,A,2014_Feb_13_1725,P05,
stim_fb/ques.jpg,stim_fb/negf.jpg,stim_fb/posf.jpg,stim_01/f.jpg,stim_01/e.jpg,1,3,f,1,22,82,45,j,0,0.9164258358,01,02,60.0151687754,PLT_learning_01,A,2014_Feb_13_1725,P05,
stim_fb/ques.jpg,stim_fb/negf.jpg,stim_fb/posf.jpg,stim_01/c.jpg,stim_01/d.jpg,2,2,j,1,23,83,35,j,1,0.649830448529,01,02,60.0151687754,PLT_learning_01,A,2014_Feb_13_1725,P05,
stim_fb/ques.jpg,stim_fb/negf.jpg,stim_fb/posf.jpg,stim_01/d.jpg,stim_01/c.jpg,1,2,f,1,24,84,21,f,1,0.649829976352,01,02,60.0151687754,PLT_learning_01,A,2014_Feb_13_1725,P05,
stim_fb/ques.jpg,stim_fb/negf.jpg,stim_fb/posf.jpg,stim_01/c.jpg,stim_01/d.jpg,2,2,j,1,25,85,34,j,1,0.649848568624,01,02,60.0151687754,PLT_learning_01,A,2014_Feb_13_1725,P05,
stim_fb/ques.jpg,stim_fb/posf.jpg,stim_fb/negf.jpg,stim_01/c.jpg,stim_01/d.jpg,2,2,j,1,26,86,39,j,1,0.666379762635,01,02,60.0151687754,PLT_learning_01,A,2014_Feb_13_1725,P05,
stim_fb/ques.jpg,stim_fb/negf.jpg,stim_fb/posf.jpg,stim_01/e.jpg,stim_01/f.jpg,2,3,j,1,27,87,53,f,0,0.999682322381,01,02,60.0151687754,PLT_learning_01,A,2014_Feb_13_1725,P05,
stim_fb/ques.jpg,stim_fb/negf.jpg,stim_fb/posf.jpg,stim_01/b.jpg,stim_01/a.jpg,1,1,f,1,28,88,6,f,1,0.616545948731,01,02,60.0151687754,PLT_learning_01,A,2014_Feb_13_1725,P05,
stim_fb/ques.jpg,stim_fb/posf.jpg,stim_fb/negf.jpg,stim_01/d.jpg,stim_01/c.jpg,1,2,f,1,29,89,28,f,1,0.599849580645,01,02,60.0151687754,PLT_learning_01,A,2014_Feb_13_1725,P05,
stim_fb/ques.jpg,stim_fb/negf.jpg,stim_fb/posf.jpg,stim_01/f.jpg,stim_01/e.jpg,1,3,f,1,30,90,42,j,0,0.783115486669,01,02,60.0151687754,PLT_learning_01,A,2014_Feb_13_1725,P05,
stim_fb/ques.jpg,stim_fb/negf.jpg,stim_fb/posf.jpg,stim_01/d.jpg,stim_01/c.jpg,1,2,f,1,31,91,23,f,1,0.56652541212,01,02,60.0151687754,PLT_learning_01,A,2014_Feb_13_1725,P05,
stim_fb/ques.jpg,stim_fb/negf.jpg,stim_fb/posf.jpg,stim_01/b.jpg,stim_01/a.jpg,1,1,f,1,32,92,5,f,1,0.666494302695,01,02,60.0151687754,PLT_learning_01,A,2014_Feb_13_1725,P05,
stim_fb/ques.jpg,stim_fb/posf.jpg,stim_fb/negf.jpg,stim_01/f.jpg,stim_01/e.jpg,1,3,f,1,33,93,46,j,0,0.799753858417,01,02,60.0151687754,PLT_learning_01,A,2014_Feb_13_1725,P05,
stim_fb/ques.jpg,stim_fb/negf.jpg,stim_fb/posf.jpg,stim_01/d.jpg,stim_01/c.jpg,1,2,f,1,34,94,25,f,1,0.566491295212,01,02,60.0151687754,PLT_learning_01,A,2014_Feb_13_1725,P05,
stim_fb/ques.jpg,stim_fb/negf.jpg,stim_fb/posf.jpg,stim_01/a.jpg,stim_01/b.jpg,2,1,j,1,35,95,15,j,1,0.699784603934,01,02,60.0151687754,PLT_learning_01,A,2014_Feb_13_1725,P05,
stim_fb/ques.jpg,stim_fb/posf.jpg,stim_fb/negf.jpg,stim_01/a.jpg,stim_01/b.jpg,2,1,j,1,36,96,19,j,1,0.799757461384,01,02,60.0151687754,PLT_learning_01,A,2014_Feb_13_1725,P05,
stim_fb/ques.jpg,stim_fb/negf.jpg,stim_fb/posf.jpg,stim_01/f.jpg,stim_01/e.jpg,1,3,f,1,37,97,40,j,0,0.783161185398,01,02,60.0151687754,PLT_learning_01,A,2014_Feb_13_1725,P05,
stim_fb/ques.jpg,stim_fb/negf.jpg,stim_fb/posf.jpg,stim_01/f.jpg,stim_01/e.jpg,1,3,f,1,38,98,43,j,0,0.666489725307,01,02,60.0151687754,PLT_learning_01,A,2014_Feb_13_1725,P05,
stim_fb/ques.jpg,stim_fb/posf.jpg,stim_fb/negf.jpg,stim_01/e.jpg,stim_01/f.jpg,2,3,j,1,39,99,57,f,0,0.583173886007,01,02,60.0151687754,PLT_learning_01,A,2014_Feb_13_1725,P05,
stim_fb/ques.jpg,stim_fb/posf.jpg,stim_fb/negf.jpg,stim_01/d.jpg,stim_01/c.jpg,1,2,f,1,40,100,29,f,1,0.599822465159,01,02,60.0151687754,PLT_learning_01,A,2014_Feb_13_1725,P05,
stim_fb/ques.jpg,stim_fb/negf.jpg,stim_fb/posf.jpg,stim_01/d.jpg,stim_01/c.jpg,1,2,f,1,41,101,24,f,1,0.499866371432,01,02,60.0151687754,PLT_learning_01,A,2014_Feb_13_1725,P05,
stim_fb/ques.jpg,stim_fb/negf.jpg,stim_fb/posf.jpg,stim_01/b.jpg,stim_01/a.jpg,1,1,f,1,42,102,1,f,1,0.649882108097,01,02,60.0151687754,PLT_learning_01,A,2014_Feb_13_1725,P05,
stim_fb/ques.jpg,stim_fb/negf.jpg,stim_fb/posf.jpg,stim_01/a.jpg,stim_01/b.jpg,2,1,j,1,43,103,12,j,1,0.699831634982,01,02,60.0151687754,PLT_learning_01,A,2014_Feb_13_1725,P05,
stim_fb/ques.jpg,stim_fb/negf.jpg,stim_fb/posf.jpg,stim_01/e.jpg,stim_01/f.jpg,2,3,j,1,44,104,52,f,0,0.816421736596,01,02,60.0151687754,PLT_learning_01,A,2014_Feb_13_1725,P05,
stim_fb/ques.jpg,stim_fb/negf.jpg,stim_fb/posf.jpg,stim_01/b.jpg,stim_01/a.jpg,1,1,f,1,45,105,0,f,1,0.599853168573,01,02,60.0151687754,PLT_learning_01,A,2014_Feb_13_1725,P05,
stim_fb/ques.jpg,stim_fb/posf.jpg,stim_fb/negf.jpg,stim_01/c.jpg,stim_01/d.jpg,2,2,j,1,46,106,37,j,1,0.733138663851,01,02,60.0151687754,PLT_learning_01,A,2014_Feb_13_1725,P05,
stim_fb/ques.jpg,stim_fb/negf.jpg,stim_fb/posf.jpg,stim_01/c.jpg,stim_01/d.jpg,2,2,j,1,47,107,30,j,1,0.567528176751,01,02,60.0151687754,PLT_learning_01,A,2014_Feb_13_1725,P05,
stim_fb/ques.jpg,stim_fb/posf.jpg,stim_fb/negf.jpg,stim_01/f.jpg,stim_01/e.jpg,1,3,f,1,48,108,48,j,0,0.716495621476,01,02,60.0151687754,PLT_learning_01,A,2014_Feb_13_1725,P05,
stim_fb/ques.jpg,stim_fb/negf.jpg,stim_fb/posf.jpg,stim_01/f.jpg,stim_01/e.jpg,1,3,f,1,49,109,41,j,0,0.966366259025,01,02,60.0151687754,PLT_learning_01,A,2014_Feb_13_1725,P05,
stim_fb/ques.jpg,stim_fb/posf.jpg,stim_fb/negf.jpg,stim_01/b.jpg,stim_01/a.jpg,1,1,f,1,50,110,8,f,1,0.533206085645,01,02,60.0151687754,PLT_learning_01,A,2014_Feb_13_1725,P05,
stim_fb/ques.jpg,stim_fb/negf.jpg,stim_fb/posf.jpg,stim_01/d.jpg,stim_01/c.jpg,1,2,f,1,51,111,20,f,1,0.599879372789,01,02,60.0151687754,PLT_learning_01,A,2014_Feb_13_1725,P05,
stim_fb/ques.jpg,stim_fb/posf.jpg,stim_fb/negf.jpg,stim_01/e.jpg,stim_01/f.jpg,2,3,j,1,52,112,58,f,0,0.849757727545,01,02,60.0151687754,PLT_learning_01,A,2014_Feb_13_1725,P05,
stim_fb/ques.jpg,stim_fb/negf.jpg,stim_fb/posf.jpg,stim_01/c.jpg,stim_01/d.jpg,2,2,j,1,53,113,33,j,1,0.499830013949,01,02,60.0151687754,PLT_learning_01,A,2014_Feb_13_1725,P05,
stim_fb/ques.jpg,stim_fb/negf.jpg,stim_fb/posf.jpg,stim_01/a.jpg,stim_01/b.jpg,2,1,j,1,54,114,11,j,1,0.583148355468,01,02,60.0151687754,PLT_learning_01,A,2014_Feb_13_1725,P05,
stim_fb/ques.jpg,stim_fb/negf.jpg,stim_fb/posf.jpg,stim_01/e.jpg,stim_01/f.jpg,2,3,j,1,55,115,55,f,0,0.68313733003,01,02,60.0151687754,PLT_learning_01,A,2014_Feb_13_1725,P05,
stim_fb/ques.jpg,stim_fb/posf.jpg,stim_fb/negf.jpg,stim_01/e.jpg,stim_01/f.jpg,2,3,j,1,56,116,56,f,0,0.683166421433,01,02,60.0151687754,PLT_learning_01,A,2014_Feb_13_1725,P05,
stim_fb/ques.jpg,stim_fb/negf.jpg,stim_fb/posf.jpg,stim_01/e.jpg,stim_01/f.jpg,2,3,j,1,57,117,50,f,0,0.833143178083,01,02,60.0151687754,PLT_learning_01,A,2014_Feb_13_1725,P05,
stim_fb/ques.jpg,stim_fb/negf.jpg,stim_fb/posf.jpg,stim_01/d.jpg,stim_01/c.jpg,1,2,f,1,58,118,26,f,1,0.583180445334,01,02,60.0151687754,PLT_learning_01,A,2014_Feb_13_1725,P05,
stim_fb/ques.jpg,stim_fb/posf.jpg,stim_fb/negf.jpg,stim_01/e.jpg,stim_01/f.jpg,2,3,j,1,59,119,59,f,0,0.699816859211,01,02,60.0151687754,PLT_learning_01,A,2014_Feb_13_1725,P05,
stim_fb/ques.jpg,stim_fb/posf.jpg,stim_fb/negf.jpg,stim_01/f.jpg,stim_01/e.jpg,1,3,f,2,0,120,48,j,0,0.849778455129,01,02,60.0151687754,PLT_learning_01,A,2014_Feb_13_1725,P05,
stim_fb/ques.jpg,stim_fb/negf.jpg,stim_fb/posf.jpg,stim_01/a.jpg,stim_01/b.jpg,2,1,j,2,1,121,12,j,1,0.799794691036,01,02,60.0151687754,PLT_learning_01,A,2014_Feb_13_1725,P05,
stim_fb/ques.jpg,stim_fb/negf.jpg,stim_fb/posf.jpg,stim_01/a.jpg,stim_01/b.jpg,2,1,j,2,2,122,16,j,1,0.799771292805,01,02,60.0151687754,PLT_learning_01,A,2014_Feb_13_1725,P05,
stim_fb/ques.jpg,stim_fb/posf.jpg,stim_fb/negf.jpg,stim_01/b.jpg,stim_01/a.jpg,1,1,f,2,3,123,8,f,1,0.549875771325,01,02,60.0151687754,PLT_learning_01,A,2014_Feb_13_1725,P05,
stim_fb/ques.jpg,stim_fb/negf.jpg,stim_fb/posf.jpg,stim_01/e.jpg,stim_01/f.jpg,2,3,j,2,4,124,52,f,0,0.899786393387,01,02,60.0151687754,PLT_learning_01,A,2014_Feb_13_1725,P05,
stim_fb/ques.jpg,stim_fb/posf.jpg,stim_fb/negf.jpg,stim_01/e.jpg,stim_01/f.jpg,2,3,j,2,5,125,56,f,0,0.733145788581,01,02,60.0151687754,PLT_learning_01,A,2014_Feb_13_1725,P05,
stim_fb/ques.jpg,stim_fb/negf.jpg,stim_fb/posf.jpg,stim_01/c.jpg,stim_01/d.jpg,2,2,j,2,6,126,35,j,1,0.666502816886,01,02,60.0151687754,PLT_learning_01,A,2014_Feb_13_1725,P05,
stim_fb/ques.jpg,stim_fb/negf.jpg,stim_fb/posf.jpg,stim_01/f.jpg,stim_01/e.jpg,1,3,f,2,7,127,45,j,0,0.683138475884,01,02,60.0151687754,PLT_learning_01,A,2014_Feb_13_1725,P05,
stim_fb/ques.jpg,stim_fb/negf.jpg,stim_fb/posf.jpg,stim_01/b.jpg,stim_01/a.jpg,1,1,f,2,8,128,4,f,1,0.583166382334,01,02,60.0151687754,PLT_learning_01,A,2014_Feb_13_1725,P05,
stim_fb/ques.jpg,stim_fb/negf.jpg,stim_fb/posf.jpg,stim_01/b.jpg,stim_01/a.jpg,1,1,f,2,9,129,5,f,1,0.583159188431,01,02,60.0151687754,PLT_learning_01,A,2014_Feb_13_1725,P05,
stim_fb/ques.jpg,stim_fb/negf.jpg,stim_fb/posf.jpg,stim_01/d.jpg,stim_01/c.jpg,1,2,f,2,10,130,22,f,1,0.566669446584,01,02,60.0151687754,PLT_learning_01,A,2014_Feb_13_1725,P05,
stim_fb/ques.jpg,stim_fb/negf.jpg,stim_fb/posf.jpg,stim_01/f.jpg,stim_01/e.jpg,1,3,f,2,11,131,41,j,0,0.699733858641,01,02,60.0151687754,PLT_learning_01,A,2014_Feb_13_1725,P05,
stim_fb/ques.jpg,stim_fb/negf.jpg,stim_fb/posf.jpg,stim_01/a.jpg,stim_01/b.jpg,2,1,j,2,12,132,15,j,1,0.716480990064,01,02,60.0151687754,PLT_learning_01,A,2014_Feb_13_1725,P05,
stim_fb/ques.jpg,stim_fb/negf.jpg,stim_fb/posf.jpg,stim_01/b.jpg,stim_01/a.jpg,1,1,f,2,13,133,6,f,1,0.483222598239,01,02,60.0151687754,PLT_learning_01,A,2014_Feb_13_1725,P05,
stim_fb/ques.jpg,stim_fb/negf.jpg,stim_fb/posf.jpg,stim_01/c.jpg,stim_01/d.jpg,2,2,j,2,14,134,36,j,1,0.616493395937,01,02,60.0151687754,PLT_learning_01,A,2014_Feb_13_1725,P05,
stim_fb/ques.jpg,stim_fb/negf.jpg,stim_fb/posf.jpg,stim_01/a.jpg,stim_01/b.jpg,2,1,j,2,15,135,13,j,1,0.683144707389,01,02,60.0151687754,PLT_learning_01,A,2014_Feb_13_1725,P05,
stim_fb/ques.jpg,stim_fb/negf.jpg,stim_fb/posf.jpg,stim_01/c.jpg,stim_01/d.jpg,2,2,j,2,16,136,32,j,1,0.549834562768,01,02,60.0151687754,PLT_learning_01,A,2014_Feb_13_1725,P05,
stim_fb/ques.jpg,stim_fb/posf.jpg,stim_fb/negf.jpg,stim_01/c.jpg,stim_01/d.jpg,2,2,j,2,17,137,37,j,1,0.533197273715,01,02,60.0151687754,PLT_learning_01,A,2014_Feb_13_1725,P05,
stim_fb/ques.jpg,stim_fb/negf.jpg,stim_fb/posf.jpg,stim_01/e.jpg,stim_01/f.jpg,2,3,j,2,18,138,50,f,0,0.766457051988,01,02,60.0151687754,PLT_learning_01,A,2014_Feb_13_1725,P05,
stim_fb/ques.jpg,stim_fb/negf.jpg,stim_fb/posf.jpg,stim_01/d.jpg,stim_01/c.jpg,1,2,f,2,19,139,25,f,1,0.516551314082,01,02,60.0151687754,PLT_learning_01,A,2014_Feb_13_1725,P05,
stim_fb/ques.jpg,stim_fb/negf.jpg,stim_fb/posf.jpg,stim_01/e.jpg,stim_01/f.jpg,2,3,j,2,20,140,54,f,0,0.583165549258,01,02,60.0151687754,PLT_learning_01,A,2014_Feb_13_1725,P05,
stim_fb/ques.jpg,stim_fb/negf.jpg,stim_fb/posf.jpg,stim_01/d.jpg,stim_01/c.jpg,1,2,f,2,21,141,26,f,1,0.649836779285,01,02,60.0151687754,PLT_learning_01,A,2014_Feb_13_1725,P05,
stim_fb/ques.jpg,stim_fb/negf.jpg,stim_fb/posf.jpg,stim_01/c.jpg,stim_01/d.jpg,2,2,j,2,22,142,34,j,1,0.733140414206,01,02,60.0151687754,PLT_learning_01,A,2014_Feb_13_1725,P05,
stim_fb/ques.jpg,stim_fb/posf.jpg,stim_fb/negf.jpg,stim_01/c.jpg,stim_01/d.jpg,2,2,j,2,23,143,38,j,1,0.666482693803,01,02,60.0151687754,PLT_learning_01,A,2014_Feb_13_1725,P05,
stim_fb/ques.jpg,stim_fb/posf.jpg,stim_fb/negf.jpg,stim_01/a.jpg,stim_01/b.jpg,2,1,j,2,24,144,18,j,1,0.816438361973,01,02,60.0151687754,PLT_learning_01,A,2014_Feb_13_1725,P05,
stim_fb/ques.jpg,stim_fb/negf.jpg,stim_fb/posf.jpg,stim_01/f.jpg,stim_01/e.jpg,1,3,f,2,25,145,40,j,0,0.766477806643,01,02,60.0151687754,PLT_learning_01,A,2014_Feb_13_1725,P05,
stim_fb/ques.jpg,stim_fb/negf.jpg,stim_fb/posf.jpg,stim_01/e.jpg,stim_01/f.jpg,2,3,j,2,26,146,53,f,0,0.549870595445,01,02,60.0151687754,PLT_learning_01,A,2014_Feb_13_1725,P05,
stim_fb/ques.jpg,stim_fb/negf.jpg,stim_fb/posf.jpg,stim_01/b.jpg,stim_01/a.jpg,1,1,f,2,27,147,7,f,1,0.599786110684,01,02,60.0151687754,PLT_learning_01,A,2014_Feb_13_1725,P05,
stim_fb/ques.jpg,stim_fb/posf.jpg,stim_fb/negf.jpg,stim_01/e.jpg,stim_01/f.jpg,2,3,j,2,28,148,59,f,0,0.68316033428,01,02,60.0151687754,PLT_learning_01,A,2014_Feb_13_1725,P05,
stim_fb/ques.jpg,stim_fb/negf.jpg,stim_fb/posf.jpg,stim_01/d.jpg,stim_01/c.jpg,1,2,f,2,29,149,20,f,1,0.66652452491,01,02,60.0151687754,PLT_learning_01,A,2014_Feb_13_1725,P05,
stim_fb/ques.jpg,stim_fb/posf.jpg,stim_fb/negf.jpg,stim_01/f.jpg,stim_01/e.jpg,1,3,f,2,30,150,47,j,0,0.699801752613,01,02,60.0151687754,PLT_learning_01,A,2014_Feb_13_1725,P05,
stim_fb/ques.jpg,stim_fb/negf.jpg,stim_fb/posf.jpg,stim_01/e.jpg,stim_01/f.jpg,2,3,j,2,31,151,51,f,0,0.549864938363,01,02,60.0151687754,PLT_learning_01,A,2014_Feb_13_1725,P05,
stim_fb/ques.jpg,stim_fb/negf.jpg,stim_fb/posf.jpg,stim_01/b.jpg,stim_01/a.jpg,1,1,f,2,32,152,1,f,1,0.633161629004,01,02,60.0151687754,PLT_learning_01,A,2014_Feb_13_1725,P05,
stim_fb/ques.jpg,stim_fb/negf.jpg,stim_fb/posf.jpg,stim_01/b.jpg,stim_01/a.jpg,1,1,f,2,33,153,2,f,1,0.71647234655,01,02,60.0151687754,PLT_learning_01,A,2014_Feb_13_1725,P05,
stim_fb/ques.jpg,stim_fb/posf.jpg,stim_fb/negf.jpg,stim_01/a.jpg,stim_01/b.jpg,2,1,j,2,34,154,19,j,1,0.749772506326,01,02,60.0151687754,PLT_learning_01,A,2014_Feb_13_1725,P05,
stim_fb/ques.jpg,stim_fb/negf.jpg,stim_fb/posf.jpg,stim_01/a.jpg,stim_01/b.jpg,2,1,j,2,35,155,10,j,1,0.616507092025,01,02,60.0151687754,PLT_learning_01,A,2014_Feb_13_1725,P05,
stim_fb/ques.jpg,stim_fb/negf.jpg,stim_fb/posf.jpg,stim_01/a.jpg,stim_01/b.jpg,2,1,j,2,36,156,11,j,1,0.633181424269,01,02,60.0151687754,PLT_learning_01,A,2014_Feb_13_1725,P05,
stim_fb/ques.jpg,stim_fb/negf.jpg,stim_fb/posf.jpg,stim_01/d.jpg,stim_01/c.jpg,1,2,f,2,37,157,21,f,1,0.499886085494,01,02,60.0151687754,PLT_learning_01,A,2014_Feb_13_1725,P05,
stim_fb/ques.jpg,stim_fb/negf.jpg,stim_fb/posf.jpg,stim_01/d.jpg,stim_01/c.jpg,1,2,f,2,38,158,24,f,1,0.699812895346,01,02,60.0151687754,PLT_learning_01,A,2014_Feb_13_1725,P05,
stim_fb/ques.jpg,stim_fb/negf.jpg,stim_fb/posf.jpg,stim_01/c.jpg,stim_01/d.jpg,2,2,j,2,39,159,33,j,1,0.766458850463,01,02,60.0151687754,PLT_learning_01,A,2014_Feb_13_1725,P05,
stim_fb/ques.jpg,stim_fb/negf.jpg,stim_fb/posf.jpg,stim_01/d.jpg,stim_01/c.jpg,1,2,f,2,40,160,23,f,1,0.53319162265,01,02,60.0151687754,PLT_learning_01,A,2014_Feb_13_1725,P05,
stim_fb/ques.jpg,stim_fb/posf.jpg,stim_fb/negf.jpg,stim_01/c.jpg,stim_01/d.jpg,2,2,j,2,41,161,39,j,1,0.616487444127,01,02,60.0151687754,PLT_learning_01,A,2014_Feb_13_1725,P05,
stim_fb/ques.jpg,stim_fb/posf.jpg,stim_fb/negf.jpg,stim_01/f.jpg,stim_01/e.jpg,1,3,f,2,42,162,49,j,0,0.716465363173,01,02,60.0151687754,PLT_learning_01,A,2014_Feb_13_1725,P05,
stim_fb/ques.jpg,stim_fb/negf.jpg,stim_fb/posf.jpg,stim_01/a.jpg,stim_01/b.jpg,2,1,j,2,43,163,17,j,1,0.799755088476,01,02,60.0151687754,PLT_learning_01,A,2014_Feb_13_1725,P05,
stim_fb/ques.jpg,stim_fb/negf.jpg,stim_fb/posf.jpg,stim_01/c.jpg,stim_01/d.jpg,2,2,j,2,44,164,30,j,1,0.566531700773,01,02,60.0151687754,PLT_learning_01,A,2014_Feb_13_1725,P05,
stim_fb/ques.jpg,stim_fb/negf.jpg,stim_fb/posf.jpg,stim_01/a.jpg,stim_01/b.jpg,2,1,j,2,45,165,14,j,1,0.68314086082,01,02,60.0151687754,PLT_learning_01,A,2014_Feb_13_1725,P05,
stim_fb/ques.jpg,stim_fb/posf.jpg,stim_fb/negf.jpg,stim_01/d.jpg,stim_01/c.jpg,1,2,f,2,46,166,29,f,1,0.633149487789,01,02,60.0151687754,PLT_learning_01,A,2014_Feb_13_1725,P05,
stim_fb/ques.jpg,stim_fb/negf.jpg,stim_fb/posf.jpg,stim_01/b.jpg,stim_01/a.jpg,1,1,f,2,47,167,0,f,1,0.749806848795,01,02,60.0151687754,PLT_learning_01,A,2014_Feb_13_1725,P05,
stim_fb/ques.jpg,stim_fb/negf.jpg,stim_fb/posf.jpg,stim_01/c.jpg,stim_01/d.jpg,2,2,j,2,48,168,31,j,1,0.583168210887,01,02,60.0151687754,PLT_learning_01,A,2014_Feb_13_1725,P05,
stim_fb/ques.jpg,stim_fb/posf.jpg,stim_fb/negf.jpg,stim_01/d.jpg,stim_01/c.jpg,1,2,f,2,49,169,28,f,1,0.449887765175,01,02,60.0151687754,PLT_learning_01,A,2014_Feb_13_1725,P05,
stim_fb/ques.jpg,stim_fb/negf.jpg,stim_fb/posf.jpg,stim_01/f.jpg,stim_01/e.jpg,1,3,f,2,50,170,42,j,0,0.933086378725,01,02,60.0151687754,PLT_learning_01,A,2014_Feb_13_1725,P05,
stim_fb/ques.jpg,stim_fb/posf.jpg,stim_fb/negf.jpg,stim_01/e.jpg,stim_01/f.jpg,2,3,j,2,51,171,57,f,0,0.649823335829,01,02,60.0151687754,PLT_learning_01,A,2014_Feb_13_1725,P05,
stim_fb/ques.jpg,stim_fb/negf.jpg,stim_fb/posf.jpg,stim_01/b.jpg,stim_01/a.jpg,1,1,f,2,52,172,3,f,1,0.633202416513,01,02,60.0151687754,PLT_learning_01,A,2014_Feb_13_1725,P05,
stim_fb/ques.jpg,stim_fb/posf.jpg,stim_fb/negf.jpg,stim_01/f.jpg,stim_01/e.jpg,1,3,f,2,53,173,46,j,0,0.683163173348,01,02,60.0151687754,PLT_learning_01,A,2014_Feb_13_1725,P05,
stim_fb/ques.jpg,stim_fb/negf.jpg,stim_fb/posf.jpg,stim_01/f.jpg,stim_01/e.jpg,1,3,f,2,54,174,44,j,0,0.633182482903,01,02,60.0151687754,PLT_learning_01,A,2014_Feb_13_1725,P05,
stim_fb/ques.jpg,stim_fb/posf.jpg,stim_fb/negf.jpg,stim_01/b.jpg,stim_01/a.jpg,1,1,f,2,55,175,9,f,1,0.616510655895,01,02,60.0151687754,PLT_learning_01,A,2014_Feb_13_1725,P05,
stim_fb/ques.jpg,stim_fb/negf.jpg,stim_fb/posf.jpg,stim_01/e.jpg,stim_01/f.jpg,2,3,j,2,56,176,55,f,0,0.549877094618,01,02,60.0151687754,PLT_learning_01,A,2014_Feb_13_1725,P05,
stim_fb/ques.jpg,stim_fb/posf.jpg,stim_fb/negf.jpg,stim_01/d.jpg,stim_01/c.jpg,1,2,f,2,57,177,27,f,1,0.583211272053,01,02,60.0151687754,PLT_learning_01,A,2014_Feb_13_1725,P05,
stim_fb/ques.jpg,stim_fb/posf.jpg,stim_fb/negf.jpg,stim_01/e.jpg,stim_01/f.jpg,2,3,j,2,58,178,58,f,0,0.566523499361,01,02,60.0151687754,PLT_learning_01,A,2014_Feb_13_1725,P05,
stim_fb/ques.jpg,stim_fb/negf.jpg,stim_fb/posf.jpg,stim_01/f.jpg,stim_01/e.jpg,1,3,f,2,59,179,43,j,0,0.833105584523,01,02,60.0151687754,PLT_learning_01,A,2014_Feb_13_1725,P05,
stim_fb/ques.jpg,stim_fb/negf.jpg,stim_fb/posf.jpg,stim_01/b.jpg,stim_01/a.jpg,1,1,f,3,0,180,1,f,1,0.666488844108,01,02,60.0151687754,PLT_learning_01,A,2014_Feb_13_1725,P05,
stim_fb/ques.jpg,stim_fb/posf.jpg,stim_fb/negf.jpg,stim_01/f.jpg,stim_01/e.jpg,1,3,f,3,1,181,49,j,0,0.699843917551,01,02,60.0151687754,PLT_learning_01,A,2014_Feb_13_1725,P05,
stim_fb/ques.jpg,stim_fb/negf.jpg,stim_fb/posf.jpg,stim_01/d.jpg,stim_01/c.jpg,1,2,f,3,2,182,23,f,1,0.549853672328,01,02,60.0151687754,PLT_learning_01,A,2014_Feb_13_1725,P05,
stim_fb/ques.jpg,stim_fb/negf.jpg,stim_fb/posf.jpg,stim_01/a.jpg,stim_01/b.jpg,2,1,j,3,3,183,12,j,1,0.699817743407,01,02,60.0151687754,PLT_learning_01,A,2014_Feb_13_1725,P05,
stim_fb/ques.jpg,stim_fb/negf.jpg,stim_fb/posf.jpg,stim_01/f.jpg,stim_01/e.jpg,1,3,f,3,4,184,43,j,0,0.74978195885,01,02,60.0151687754,PLT_learning_01,A,2014_Feb_13_1725,P05,
stim_fb/ques.jpg,stim_fb/negf.jpg,stim_fb/posf.jpg,stim_01/e.jpg,stim_01/f.jpg,2,3,j,3,5,185,53,f,0,0.983059505343,01,02,60.0151687754,PLT_learning_01,A,2014_Feb_13_1725,P05,
stim_fb/ques.jpg,stim_fb/posf.jpg,stim_fb/negf.jpg,stim_01/e.jpg,stim_01/f.jpg,2,3,j,3,6,186,57,f,0,1.06631740544,01,02,60.0151687754,PLT_learning_01,A,2014_Feb_13_1725,P05,
stim_fb/ques.jpg,stim_fb/negf.jpg,stim_fb/posf.jpg,stim_01/e.jpg,stim_01/f.jpg,2,3,j,3,7,187,54,f,0,1.03304137171,01,02,60.0151687754,PLT_learning_01,A,2014_Feb_13_1725,P05,
stim_fb/ques.jpg,stim_fb/negf.jpg,stim_fb/posf.jpg,stim_01/e.jpg,stim_01/f.jpg,2,3,j,3,8,188,55,f,0,0.833086225342,01,02,60.0151687754,PLT_learning_01,A,2014_Feb_13_1725,P05,
stim_fb/ques.jpg,stim_fb/negf.jpg,stim_fb/posf.jpg,stim_01/f.jpg,stim_01/e.jpg,1,3,f,3,9,189,44,j,0,0.849735405991,01,02,60.0151687754,PLT_learning_01,A,2014_Feb_13_1725,P05,
stim_fb/ques.jpg,stim_fb/negf.jpg,stim_fb/posf.jpg,stim_01/c.jpg,stim_01/d.jpg,2,2,j,3,10,190,35,j,1,0.733136760111,01,02,60.0151687754,PLT_learning_01,A,2014_Feb_13_1725,P05,
stim_fb/ques.jpg,stim_fb/posf.jpg,stim_fb/negf.jpg,stim_01/b.jpg,stim_01/a.jpg,1,1,f,3,11,191,8,f,1,0.666365967299,01,02,60.0151687754,PLT_learning_01,A,2014_Feb_13_1725,P05,
stim_fb/ques.jpg,stim_fb/negf.jpg,stim_fb/posf.jpg,stim_01/c.jpg,stim_01/d.jpg,2,2,j,3,12,192,34,j,1,0.699766267298,01,02,60.0151687754,PLT_learning_01,A,2014_Feb_13_1725,P05,
stim_fb/ques.jpg,stim_fb/negf.jpg,stim_fb/posf.jpg,stim_01/b.jpg,stim_01/a.jpg,1,1,f,3,13,193,6,f,1,0.583130644391,01,02,60.0151687754,PLT_learning_01,A,2014_Feb_13_1725,P05,
stim_fb/ques.jpg,stim_fb/negf.jpg,stim_fb/posf.jpg,stim_01/f.jpg,stim_01/e.jpg,1,3,f,3,14,194,42,j,0,0.716456509137,01,02,60.0151687754,PLT_learning_01,A,2014_Feb_13_1725,P05,
stim_fb/ques.jpg,stim_fb/negf.jpg,stim_fb/posf.jpg,stim_01/c.jpg,stim_01/d.jpg,2,2,j,3,15,195,36,j,1,0.69982044413,01,02,60.0151687754,PLT_learning_01,A,2014_Feb_13_1725,P05,
stim_fb/ques.jpg,stim_fb/posf.jpg,stim_fb/negf.jpg,stim_01/b.jpg,stim_01/a.jpg,1,1,f,3,16,196,9,f,1,0.616532384975,01,02,60.0151687754,PLT_learning_01,A,2014_Feb_13_1725,P05,
stim_fb/ques.jpg,stim_fb/negf.jpg,stim_fb/posf.jpg,stim_01/d.jpg,stim_01/c.jpg,1,2,f,3,17,197,20,f,1,0.716456415907,01,02,60.0151687754,PLT_learning_01,A,2014_Feb_13_1725,P05,
stim_fb/ques.jpg,stim_fb/negf.jpg,stim_fb/posf.jpg,stim_01/d.jpg,stim_01/c.jpg,1,2,f,3,18,198,22,f,1,0.549867443602,01,02,60.0151687754,PLT_learning_01,A,2014_Feb_13_1725,P05,
stim_fb/ques.jpg,stim_fb/negf.jpg,stim_fb/posf.jpg,stim_01/a.jpg,stim_01/b.jpg,2,1,j,3,19,199,16,j,1,0.633167526681,01,02,60.0151687754,PLT_learning_01,A,2014_Feb_13_1725,P05,
stim_fb/ques.jpg,stim_fb/negf.jpg,stim_fb/posf.jpg,stim_01/d.jpg,stim_01/c.jpg,1,2,f,3,20,200,26,f,1,0.549879461509,01,02,60.0151687754,PLT_learning_01,A,2014_Feb_13_1725,P05,
stim_fb/ques.jpg,stim_fb/negf.jpg,stim_fb/posf.jpg,stim_01/a.jpg,stim_01/b.jpg,2,1,j,3,21,201,14,j,1,0.666471451827,01,02,60.0151687754,PLT_learning_01,A,2014_Feb_13_1725,P05,
stim_fb/ques.jpg,stim_fb/negf.jpg,stim_fb/posf.jpg,stim_01/c.jpg,stim_01/d.jpg,2,2,j,3,22,202,32,j,1,0.816407637507,01,02,60.0151687754,PLT_learning_01,A,2014_Feb_13_1725,P05,
stim_fb/ques.jpg,stim_fb/posf.jpg,stim_fb/negf.jpg,stim_01/c.jpg,stim_01/d.jpg,2,2,j,3,23,203,39,j,1,0.666508780727,01,02,60.0151687754,PLT_learning_01,A,2014_Feb_13_1725,P05,
stim_fb/ques.jpg,stim_fb/negf.jpg,stim_fb/posf.jpg,stim_01/d.jpg,stim_01/c.jpg,1,2,f,3,24,204,21,f,1,0.549859843686,01,02,60.0151687754,PLT_learning_01,A,2014_Feb_13_1725,P05,
stim_fb/ques.jpg,stim_fb/negf.jpg,stim_fb/posf.jpg,stim_01/e.jpg,stim_01/f.jpg,2,3,j,3,25,205,50,f,0,1.01639443465,01,02,60.0151687754,PLT_learning_01,A,2014_Feb_13_1725,P05,
stim_fb/ques.jpg,stim_fb/negf.jpg,stim_fb/posf.jpg,stim_01/f.jpg,stim_01/e.jpg,1,3,f,3,26,206,45,j,0,0.83309509141,01,02,60.0151687754,PLT_learning_01,A,2014_Feb_13_1725,P05,
stim_fb/ques.jpg,stim_fb/posf.jpg,stim_fb/negf.jpg,stim_01/a.jpg,stim_01/b.jpg,2,1,j,3,27,207,19,j,1,0.716475348021,01,02,60.0151687754,PLT_learning_01,A,2014_Feb_13_1725,P05,
stim_fb/ques.jpg,stim_fb/posf.jpg,stim_fb/negf.jpg,stim_01/e.jpg,stim_01/f.jpg,2,3,j,3,28,208,59,j,1,0.749800217291,01,02,60.0151687754,PLT_learning_01,A,2014_Feb_13_1725,P05,
stim_fb/ques.jpg,stim_fb/negf.jpg,stim_fb/posf.jpg,stim_01/f.jpg,stim_01/e.jpg,1,3,f,3,29,209,41,f,1,0.599876058539,01,02,60.0151687754,PLT_learning_01,A,2014_Feb_13_1725,P05,
stim_fb/ques.jpg,stim_fb/negf.jpg,stim_fb/posf.jpg,stim_01/f.jpg,stim_01/e.jpg,1,3,f,3,30,210,40,f,1,0.666464125592,01,02,60.0151687754,PLT_learning_01,A,2014_Feb_13_1725,P05,
stim_fb/ques.jpg,stim_fb/negf.jpg,stim_fb/posf.jpg,stim_01/a.jpg,stim_01/b.jpg,2,1,j,3,31,211,17,j,1,0.633139346548,01,02,60.0151687754,PLT_learning_01,A,2014_Feb_13_1725,P05,
stim_fb/ques.jpg,stim_fb/negf.jpg,stim_fb/posf.jpg,stim_01/d.jpg,stim_01/c.jpg,1,2,f,3,32,212,24,f,1,0.583192508355,01,02,60.0151687754,PLT_learning_01,A,2014_Feb_13_1725,P05,
stim_fb/ques.jpg,stim_fb/posf.jpg,stim_fb/negf.jpg,stim_01/f.jpg,stim_01/e.jpg,1,3,f,3,33,213,46,f,1,0.749792692564,01,02,60.0151687754,PLT_learning_01,A,2014_Feb_13_1725,P05,
stim_fb/ques.jpg,stim_fb/negf.jpg,stim_fb/posf.jpg,stim_01/c.jpg,stim_01/d.jpg,2,2,j,3,34,214,31,j,1,0.683110229584,01,02,60.0151687754,PLT_learning_01,A,2014_Feb_13_1725,P05,
stim_fb/ques.jpg,stim_fb/posf.jpg,stim_fb/negf.jpg,stim_01/c.jpg,stim_01/d.jpg,2,2,j,3,35,215,38,j,1,0.666489932821,01,02,60.0151687754,PLT_learning_01,A,2014_Feb_13_1725,P05,
stim_fb/ques.jpg,stim_fb/posf.jpg,stim_fb/negf.jpg,stim_01/c.jpg,stim_01/d.jpg,2,2,j,3,36,216,37,j,1,0.616484887763,01,02,60.0151687754,PLT_learning_01,A,2014_Feb_13_1725,P05,
stim_fb/ques.jpg,stim_fb/negf.jpg,stim_fb/posf.jpg,stim_01/c.jpg,stim_01/d.jpg,2,2,j,3,37,217,33,j,1,0.566504299579,01,02,60.0151687754,PLT_learning_01,A,2014_Feb_13_1725,P05,
stim_fb/ques.jpg,stim_fb/posf.jpg,stim_fb/negf.jpg,stim_01/a.jpg,stim_01/b.jpg,2,1,j,3,38,218,18,j,1,0.633184994156,01,02,60.0151687754,PLT_learning_01,A,2014_Feb_13_1725,P05,
stim_fb/ques.jpg,stim_fb/posf.jpg,stim_fb/negf.jpg,stim_01/e.jpg,stim_01/f.jpg,2,3,j,3,39,219,58,j,1,0.883101198106,01,02,60.0151687754,PLT_learning_01,A,2014_Feb_13_1725,P05,
stim_fb/ques.jpg,stim_fb/negf.jpg,stim_fb/posf.jpg,stim_01/c.jpg,stim_01/d.jpg,2,2,j,3,40,220,30,j,1,0.666389567035,01,02,60.0151687754,PLT_learning_01,A,2014_Feb_13_1725,P05,
stim_fb/ques.jpg,stim_fb/negf.jpg,stim_fb/posf.jpg,stim_01/a.jpg,stim_01/b.jpg,2,1,j,3,41,221,13,j,1,0.58320009624,01,02,60.0151687754,PLT_learning_01,A,2014_Feb_13_1725,P05,
stim_fb/ques.jpg,stim_fb/negf.jpg,stim_fb/posf.jpg,stim_01/e.jpg,stim_01/f.jpg,2,3,j,3,42,222,51,j,1,0.516536126284,01,02,60.0151687754,PLT_learning_01,A,2014_Feb_13_1725,P05,
stim_fb/ques.jpg,stim_fb/negf.jpg,stim_fb/posf.jpg,stim_01/a.jpg,stim_01/b.jpg,2,1,j,3,43,223,15,j,1,0.716483224624,01,02,60.0151687754,PLT_learning_01,A,2014_Feb_13_1725,P05,
stim_fb/ques.jpg,stim_fb/negf.jpg,stim_fb/posf.jpg,stim_01/d.jpg,stim_01/c.jpg,1,2,f,3,44,224,25,f,1,0.599859776015,01,02,60.0151687754,PLT_learning_01,A,2014_Feb_13_1725,P05,
stim_fb/ques.jpg,stim_fb/posf.jpg,stim_fb/negf.jpg,stim_01/f.jpg,stim_01/e.jpg,1,3,f,3,45,225,47,f,1,0.649871368365,01,02,60.0151687754,PLT_learning_01,A,2014_Feb_13_1725,P05,
stim_fb/ques.jpg,stim_fb/negf.jpg,stim_fb/posf.jpg,stim_01/b.jpg,stim_01/a.jpg,1,1,f,3,46,226,7,f,1,0.633243724318,01,02,60.0151687754,PLT_learning_01,A,2014_Feb_13_1725,P05,
stim_fb/ques.jpg,stim_fb/negf.jpg,stim_fb/posf.jpg,stim_01/b.jpg,stim_01/a.jpg,1,1,f,3,47,227,0,f,1,0.56655070206,01,02,60.0151687754,PLT_learning_01,A,2014_Feb_13_1725,P05,
stim_fb/ques.jpg,stim_fb/negf.jpg,stim_fb/posf.jpg,stim_01/b.jpg,stim_01/a.jpg,1,1,f,3,48,228,2,f,1,0.599840368715,01,02,60.0151687754,PLT_learning_01,A,2014_Feb_13_1725,P05,
stim_fb/ques.jpg,stim_fb/negf.jpg,stim_fb/posf.jpg,stim_01/b.jpg,stim_01/a.jpg,1,1,f,3,49,229,4,f,1,0.566513195714,01,02,60.0151687754,PLT_learning_01,A,2014_Feb_13_1725,P05,
stim_fb/ques.jpg,stim_fb/negf.jpg,stim_fb/posf.jpg,stim_01/e.jpg,stim_01/f.jpg,2,3,j,3,50,230,52,j,1,0.883054927952,01,02,60.0151687754,PLT_learning_01,A,2014_Feb_13_1725,P05,
stim_fb/ques.jpg,stim_fb/negf.jpg,stim_fb/posf.jpg,stim_01/b.jpg,stim_01/a.jpg,1,1,f,3,51,231,5,f,1,0.6998463085,01,02,60.0151687754,PLT_learning_01,A,2014_Feb_13_1725,P05,
stim_fb/ques.jpg,stim_fb/negf.jpg,stim_fb/posf.jpg,stim_01/b.jpg,stim_01/a.jpg,1,1,f,3,52,232,3,f,1,0.483210270559,01,02,60.0151687754,PLT_learning_01,A,2014_Feb_13_1725,P05,
stim_fb/ques.jpg,stim_fb/posf.jpg,stim_fb/negf.jpg,stim_01/e.jpg,stim_01/f.jpg,2,3,j,3,53,233,56,j,1,0.833117764836,01,02,60.0151687754,PLT_learning_01,A,2014_Feb_13_1725,P05,
stim_fb/ques.jpg,stim_fb/posf.jpg,stim_fb/negf.jpg,stim_01/f.jpg,stim_01/e.jpg,1,3,f,3,54,234,48,f,1,0.733117325748,01,02,60.0151687754,PLT_learning_01,A,2014_Feb_13_1725,P05,
stim_fb/ques.jpg,stim_fb/posf.jpg,stim_fb/negf.jpg,stim_01/d.jpg,stim_01/c.jpg,1,2,f,3,55,235,28,f,1,0.633177090487,01,02,60.0151687754,PLT_learning_01,A,2014_Feb_13_1725,P05,
stim_fb/ques.jpg,stim_fb/posf.jpg,stim_fb/negf.jpg,stim_01/d.jpg,stim_01/c.jpg,1,2,f,3,56,236,27,f,1,0.499888356146,01,02,60.0151687754,PLT_learning_01,A,2014_Feb_13_1725,P05,
stim_fb/ques.jpg,stim_fb/posf.jpg,stim_fb/negf.jpg,stim_01/d.jpg,stim_01/c.jpg,1,2,f,3,57,237,29,f,1,0.483253079103,01,02,60.0151687754,PLT_learning_01,A,2014_Feb_13_1725,P05,
stim_fb/ques.jpg,stim_fb/negf.jpg,stim_fb/posf.jpg,stim_01/a.jpg,stim_01/b.jpg,2,1,j,3,58,238,11,j,1,0.69983394774,01,02,60.0151687754,PLT_learning_01,A,2014_Feb_13_1725,P05,
stim_fb/ques.jpg,stim_fb/negf.jpg,stim_fb/posf.jpg,stim_01/a.jpg,stim_01/b.jpg,2,1,j,3,59,239,10,j,1,0.849779089709,01,02,60.0151687754,PLT_learning_01,A,2014_Feb_13_1725,P05,
stim_fb/ques.jpg,stim_fb/negf.jpg,stim_fb/posf.jpg,stim_01/d.jpg,stim_01/c.jpg,1,2,f,4,0,240,21,f,1,0.61651008447,01,02,60.0151687754,PLT_learning_01,A,2014_Feb_13_1725,P05,
stim_fb/ques.jpg,stim_fb/posf.jpg,stim_fb/negf.jpg,stim_01/c.jpg,stim_01/d.jpg,2,2,j,4,1,241,39,j,1,0.616515603208,01,02,60.0151687754,PLT_learning_01,A,2014_Feb_13_1725,P05,
stim_fb/ques.jpg,stim_fb/negf.jpg,stim_fb/posf.jpg,stim_01/e.jpg,stim_01/f.jpg,2,3,j,4,2,242,50,j,1,0.866445921285,01,02,60.0151687754,PLT_learning_01,A,2014_Feb_13_1725,P05,
stim_fb/ques.jpg,stim_fb/negf.jpg,stim_fb/posf.jpg,stim_01/a.jpg,stim_01/b.jpg,2,1,j,4,3,243,13,j,1,0.749819134369,01,02,60.0151687754,PLT_learning_01,A,2014_Feb_13_1725,P05,
stim_fb/ques.jpg,stim_fb/negf.jpg,stim_fb/posf.jpg,stim_01/b.jpg,stim_01/a.jpg,1,1,f,4,4,244,2,f,1,0.566510031844,01,02,60.0151687754,PLT_learning_01,A,2014_Feb_13_1725,P05,
stim_fb/ques.jpg,stim_fb/negf.jpg,stim_fb/posf.jpg,stim_01/e.jpg,stim_01/f.jpg,2,3,j,4,5,245,54,j,1,0.849768545468,01,02,60.0151687754,PLT_learning_01,A,2014_Feb_13_1725,P05,
stim_fb/ques.jpg,stim_fb/negf.jpg,stim_fb/posf.jpg,stim_01/e.jpg,stim_01/f.jpg,2,3,j,4,6,246,55,j,1,0.766440122858,01,02,60.0151687754,PLT_learning_01,A,2014_Feb_13_1725,P05,
stim_fb/ques.jpg,stim_fb/negf.jpg,stim_fb/posf.jpg,stim_01/c.jpg,stim_01/d.jpg,2,2,j,4,7,247,36,j,1,0.666483965968,01,02,60.0151687754,PLT_learning_01,A,2014_Feb_13_1725,P05,
stim_fb/ques.jpg,stim_fb/negf.jpg,stim_fb/posf.jpg,stim_01/e.jpg,stim_01/f.jpg,2,3,j,4,8,248,51,j,1,0.666529607563,01,02,60.0151687754,PLT_learning_01,A,2014_Feb_13_1725,P05,
stim_fb/ques.jpg,stim_fb/posf.jpg,stim_fb/negf.jpg,stim_01/d.jpg,stim_01/c.jpg,1,2,f,4,9,249,28,f,1,0.566541294647,01,02,60.0151687754,PLT_learning_01,A,2014_Feb_13_1725,P05,
stim_fb/ques.jpg,stim_fb/negf.jpg,stim_fb/posf.jpg,stim_01/c.jpg,stim_01/d.jpg,2,2,j,4,10,250,35,j,1,0.6498534618,01,02,60.0151687754,PLT_learning_01,A,2014_Feb_13_1725,P05,
stim_fb/ques.jpg,stim_fb/negf.jpg,stim_fb/posf.jpg,stim_01/b.jpg,stim_01/a.jpg,1,1,f,4,11,251,4,f,1,0.599849439292,01,02,60.0151687754,PLT_learning_01,A,2014_Feb_13_1725,P05,
stim_fb/ques.jpg,stim_fb/negf.jpg,stim_fb/posf.jpg,stim_01/d.jpg,stim_01/c.jpg,1,2,f,4,12,252,26,f,1,0.599857246722,01,02,60.0151687754,PLT_learning_01,A,2014_Feb_13_1725,P05,
stim_fb/ques.jpg,stim_fb/negf.jpg,stim_fb/posf.jpg,stim_01/f.jpg,stim_01/e.jpg,1,3,f,4,13,253,43,j,0,0.749797537621,01,02,60.0151687754,PLT_learning_01,A,2014_Feb_13_1725,P05,
stim_fb/ques.jpg,stim_fb/negf.jpg,stim_fb/posf.jpg,stim_01/b.jpg,stim_01/a.jpg,1,1,f,4,14,254,7,f,1,0.566505301071,01,02,60.0151687754,PLT_learning_01,A,2014_Feb_13_1725,P05,
stim_fb/ques.jpg,stim_fb/posf.jpg,stim_fb/negf.jpg,stim_01/e.jpg,stim_01/f.jpg,2,3,j,4,15,255,57,j,1,1.03303648455,01,02,60.0151687754,PLT_learning_01,A,2014_Feb_13_1725,P05,
stim_fb/ques.jpg,stim_fb/negf.jpg,stim_fb/posf.jpg,stim_01/b.jpg,stim_01/a.jpg,1,1,f,4,16,256,0,f,1,0.549842746135,01,02,60.0151687754,PLT_learning_01,A,2014_Feb_13_1725,P05,
stim_fb/ques.jpg,stim_fb/negf.jpg,stim_fb/posf.jpg,stim_01/f.jpg,stim_01/e.jpg,1,3,f,4,17,257,45,j,0,0.749805760086,01,02,60.0151687754,PLT_learning_01,A,2014_Feb_13_1725,P05,
stim_fb/ques.jpg,stim_fb/negf.jpg,stim_fb/posf.jpg,stim_01/c.jpg,stim_01/d.jpg,2,2,j,4,18,258,31,j,1,0.649806196172,01,02,60.0151687754,PLT_learning_01,A,2014_Feb_13_1725,P05,
stim_fb/ques.jpg,stim_fb/posf.jpg,stim_fb/negf.jpg,stim_01/a.jpg,stim_01/b.jpg,2,1,j,4,19,259,18,j,1,0.733156417034,01,02,60.0151687754,PLT_learning_01,A,2014_Feb_13_1725,P05,
stim_fb/ques.jpg,stim_fb/negf.jpg,stim_fb/posf.jpg,stim_01/c.jpg,stim_01/d.jpg,2,2,j,4,20,260,30,j,1,0.666526921879,01,02,60.0151687754,PLT_learning_01,A,2014_Feb_13_1725,P05,
stim_fb/ques.jpg,stim_fb/posf.jpg,stim_fb/negf.jpg,stim_01/d.jpg,stim_01/c.jpg,1,2,f,4,21,261,27,f,1,0.566537499202,01,02,60.0151687754,PLT_learning_01,A,2014_Feb_13_1725,P05,
stim_fb/ques.jpg,stim_fb/negf.jpg,stim_fb/posf.jpg,stim_01/d.jpg,stim_01/c.jpg,1,2,f,4,22,262,22,f,1,0.49986478348,01,02,60.0151687754,PLT_learning_01,A,2014_Feb_13_1725,P05,
stim_fb/ques.jpg,stim_fb/negf.jpg,stim_fb/posf.jpg,stim_01/b.jpg,stim_01/a.jpg,1,1,f,4,23,263,3,f,1,0.666503523647,01,02,60.0151687754,PLT_learning_01,A,2014_Feb_13_1725,P05,
stim_fb/ques.jpg,stim_fb/negf.jpg,stim_fb/posf.jpg,stim_01/a.jpg,stim_01/b.jpg,2,1,j,4,24,264,14,j,1,0.666505018362,01,02,60.0151687754,PLT_learning_01,A,2014_Feb_13_1725,P05,
stim_fb/ques.jpg,stim_fb/posf.jpg,stim_fb/negf.jpg,stim_01/e.jpg,stim_01/f.jpg,2,3,j,4,25,265,56,j,1,0.84976084029,01,02,60.0151687754,PLT_learning_01,A,2014_Feb_13_1725,P05,
stim_fb/ques.jpg,stim_fb/negf.jpg,stim_fb/posf.jpg,stim_01/f.jpg,stim_01/e.jpg,1,3,f,4,26,266,44,f,1,1.01637259429,01,02,60.0151687754,PLT_learning_01,A,2014_Feb_13_1725,P05,
stim_fb/ques.jpg,stim_fb/negf.jpg,stim_fb/posf.jpg,stim_01/a.jpg,stim_01/b.jpg,2,1,j,4,27,267,16,j,1,0.683141483365,01,02,60.0151687754,PLT_learning_01,A,2014_Feb_13_1725,P05,
stim_fb/ques.jpg,stim_fb/negf.jpg,stim_fb/posf.jpg,stim_01/a.jpg,stim_01/b.jpg,2,1,j,4,28,268,15,j,1,0.849805555579,01,02,60.0151687754,PLT_learning_01,A,2014_Feb_13_1725,P05,
stim_fb/ques.jpg,stim_fb/negf.jpg,stim_fb/posf.jpg,stim_01/f.jpg,stim_01/e.jpg,1,3,f,4,29,269,40,f,1,0.933074396908,01,02,60.0151687754,PLT_learning_01,A,2014_Feb_13_1725,P05,
stim_fb/ques.jpg,stim_fb/posf.jpg,stim_fb/negf.jpg,stim_01/e.jpg,stim_01/f.jpg,2,3,j,4,30,270,59,j,1,1.19959790829,01,02,60.0151687754,PLT_learning_01,A,2014_Feb_13_1725,P05,
stim_fb/ques.jpg,stim_fb/negf.jpg,stim_fb/posf.jpg,stim_01/f.jpg,stim_01/e.jpg,1,3,f,4,31,271,42,f,1,1.01637933707,01,02,60.0151687754,PLT_learning_01,A,2014_Feb_13_1725,P05,
stim_fb/ques.jpg,stim_fb/negf.jpg,stim_fb/posf.jpg,stim_01/e.jpg,stim_01/f.jpg,2,3,j,4,32,272,52,j,1,0.799793602328,01,02,60.0151687754,PLT_learning_01,A,2014_Feb_13_1725,P05,
stim_fb/ques.jpg,stim_fb/negf.jpg,stim_fb/posf.jpg,stim_01/a.jpg,stim_01/b.jpg,2,1,j,4,33,273,12,j,1,0.749801796217,01,02,60.0151687754,PLT_learning_01,A,2014_Feb_13_1725,P05,
stim_fb/ques.jpg,stim_fb/negf.jpg,stim_fb/posf.jpg,stim_01/d.jpg,stim_01/c.jpg,1,2,f,4,34,274,23,f,1,0.748741128482,01,02,60.0151687754,PLT_learning_01,A,2014_Feb_13_1725,P05,
stim_fb/ques.jpg,stim_fb/posf.jpg,stim_fb/negf.jpg,stim_01/e.jpg,stim_01/f.jpg,2,3,j,4,35,275,58,j,1,0.766486756918,01,02,60.0151687754,PLT_learning_01,A,2014_Feb_13_1725,P05,
stim_fb/ques.jpg,stim_fb/negf.jpg,stim_fb/posf.jpg,stim_01/b.jpg,stim_01/a.jpg,1,1,f,4,36,276,6,f,1,0.799776528835,01,02,60.0151687754,PLT_learning_01,A,2014_Feb_13_1725,P05,
stim_fb/ques.jpg,stim_fb/posf.jpg,stim_fb/negf.jpg,stim_01/f.jpg,stim_01/e.jpg,1,3,f,4,37,277,48,f,1,0.733100757512,01,02,60.0151687754,PLT_learning_01,A,2014_Feb_13_1725,P05,
stim_fb/ques.jpg,stim_fb/negf.jpg,stim_fb/posf.jpg,stim_01/d.jpg,stim_01/c.jpg,1,2,f,4,38,278,24,f,1,0.683078022426,01,02,60.0151687754,PLT_learning_01,A,2014_Feb_13_1725,P05,
stim_fb/ques.jpg,stim_fb/posf.jpg,stim_fb/negf.jpg,stim_01/c.jpg,stim_01/d.jpg,2,2,j,4,39,279,38,j,1,0.566531601522,01,02,60.0151687754,PLT_learning_01,A,2014_Feb_13_1725,P05,
stim_fb/ques.jpg,stim_fb/negf.jpg,stim_fb/posf.jpg,stim_01/c.jpg,stim_01/d.jpg,2,2,j,4,40,280,33,j,1,0.716473071356,01,02,60.0151687754,PLT_learning_01,A,2014_Feb_13_1725,P05,
stim_fb/ques.jpg,stim_fb/posf.jpg,stim_fb/negf.jpg,stim_01/b.jpg,stim_01/a.jpg,1,1,f,4,41,281,9,f,1,0.633177794236,01,02,60.0151687754,PLT_learning_01,A,2014_Feb_13_1725,P05,
stim_fb/ques.jpg,stim_fb/negf.jpg,stim_fb/posf.jpg,stim_01/d.jpg,stim_01/c.jpg,1,2,f,4,42,282,20,f,1,0.516516051321,01,02,60.0151687754,PLT_learning_01,A,2014_Feb_13_1725,P05,
stim_fb/ques.jpg,stim_fb/negf.jpg,stim_fb/posf.jpg,stim_01/a.jpg,stim_01/b.jpg,2,1,j,4,43,283,17,j,1,0.699834970281,01,02,60.0151687754,PLT_learning_01,A,2014_Feb_13_1725,P05,
stim_fb/ques.jpg,stim_fb/negf.jpg,stim_fb/posf.jpg,stim_01/b.jpg,stim_01/a.jpg,1,1,f,4,44,284,1,f,1,0.483202869142,01,02,60.0151687754,PLT_learning_01,A,2014_Feb_13_1725,P05,
stim_fb/ques.jpg,stim_fb/negf.jpg,stim_fb/posf.jpg,stim_01/c.jpg,stim_01/d.jpg,2,2,j,4,45,285,34,j,1,0.716476809659,01,02,60.0151687754,PLT_learning_01,A,2014_Feb_13_1725,P05,
stim_fb/ques.jpg,stim_fb/posf.jpg,stim_fb/negf.jpg,stim_01/d.jpg,stim_01/c.jpg,1,2,f,4,46,286,29,f,1,0.483233771047,01,02,60.0151687754,PLT_learning_01,A,2014_Feb_13_1725,P05,
stim_fb/ques.jpg,stim_fb/negf.jpg,stim_fb/posf.jpg,stim_01/c.jpg,stim_01/d.jpg,2,2,j,4,47,287,32,j,1,0.7831052943,01,02,60.0151687754,PLT_learning_01,A,2014_Feb_13_1725,P05,
stim_fb/ques.jpg,stim_fb/negf.jpg,stim_fb/posf.jpg,stim_01/a.jpg,stim_01/b.jpg,2,1,j,4,48,288,11,j,1,0.616517921979,01,02,60.0151687754,PLT_learning_01,A,2014_Feb_13_1725,P05,
stim_fb/ques.jpg,stim_fb/negf.jpg,stim_fb/posf.jpg,stim_01/d.jpg,stim_01/c.jpg,1,2,f,4,49,289,25,f,1,0.483207708181,01,02,60.0151687754,PLT_learning_01,A,2014_Feb_13_1725,P05,
stim_fb/ques.jpg,stim_fb/posf.jpg,stim_fb/negf.jpg,stim_01/f.jpg,stim_01/e.jpg,1,3,f,4,50,290,49,f,1,0.716480481798,01,02,60.0151687754,PLT_learning_01,A,2014_Feb_13_1725,P05,
stim_fb/ques.jpg,stim_fb/posf.jpg,stim_fb/negf.jpg,stim_01/a.jpg,stim_01/b.jpg,2,1,j,4,51,291,19,j,1,0.833172582265,01,02,60.0151687754,PLT_learning_01,A,2014_Feb_13_1725,P05,
stim_fb/ques.jpg,stim_fb/posf.jpg,stim_fb/negf.jpg,stim_01/f.jpg,stim_01/e.jpg,1,3,f,4,52,292,46,f,1,0.599888792229,01,02,60.0151687754,PLT_learning_01,A,2014_Feb_13_1725,P05,
stim_fb/ques.jpg,stim_fb/negf.jpg,stim_fb/posf.jpg,stim_01/f.jpg,stim_01/e.jpg,1,3,f,4,53,293,41,f,1,0.616502457491,01,02,60.0151687754,PLT_learning_01,A,2014_Feb_13_1725,P05,
stim_fb/ques.jpg,stim_fb/negf.jpg,stim_fb/posf.jpg,stim_01/b.jpg,stim_01/a.jpg,1,1,f,4,54,294,5,f,1,0.549853278346,01,02,60.0151687754,PLT_learning_01,A,2014_Feb_13_1725,P05,
stim_fb/ques.jpg,stim_fb/posf.jpg,stim_fb/negf.jpg,stim_01/b.jpg,stim_01/a.jpg,1,1,f,4,55,295,8,f,1,0.466584737766,01,02,60.0151687754,PLT_learning_01,A,2014_Feb_13_1725,P05,
stim_fb/ques.jpg,stim_fb/negf.jpg,stim_fb/posf.jpg,stim_01/e.jpg,stim_01/f.jpg,2,3,j,4,56,296,53,j,1,0.899744417922,01,02,60.0151687754,PLT_learning_01,A,2014_Feb_13_1725,P05,
stim_fb/ques.jpg,stim_fb/posf.jpg,stim_fb/negf.jpg,stim_01/f.jpg,stim_01/e.jpg,1,3,f,4,57,297,47,f,1,0.649854255782,01,02,60.0151687754,PLT_learning_01,A,2014_Feb_13_1725,P05,
stim_fb/ques.jpg,stim_fb/negf.jpg,stim_fb/posf.jpg,stim_01/a.jpg,stim_01/b.jpg,2,1,j,4,58,298,10,j,1,0.549862168471,01,02,60.0151687754,PLT_learning_01,A,2014_Feb_13_1725,P05,
stim_fb/ques.jpg,stim_fb/posf.jpg,stim_fb/negf.jpg,stim_01/c.jpg,stim_01/d.jpg,2,2,j,4,59,299,37,j,1,0.749820764428,01,02,60.0151687754,PLT_learning_01,A,2014_Feb_13_1725,P05,
stim_fb/ques.jpg,stim_fb/negf.jpg,stim_fb/posf.jpg,stim_01/b.jpg,stim_01/a.jpg,1,1,f,5,0,300,6,f,1,0.633170010864,01,02,60.0151687754,PLT_learning_01,A,2014_Feb_13_1725,P05,
stim_fb/ques.jpg,stim_fb/negf.jpg,stim_fb/posf.jpg,stim_01/d.jpg,stim_01/c.jpg,1,2,f,5,1,301,20,f,1,0.716479832183,01,02,60.0151687754,PLT_learning_01,A,2014_Feb_13_1725,P05,
stim_fb/ques.jpg,stim_fb/posf.jpg,stim_fb/negf.jpg,stim_01/a.jpg,stim_01/b.jpg,2,1,j,5,2,302,18,j,1,0.63317958068,01,02,60.0151687754,PLT_learning_01,A,2014_Feb_13_1725,P05,
stim_fb/ques.jpg,stim_fb/posf.jpg,stim_fb/negf.jpg,stim_01/d.jpg,stim_01/c.jpg,1,2,f,5,3,303,27,f,1,0.499853502402,01,02,60.0151687754,PLT_learning_01,A,2014_Feb_13_1725,P05,
stim_fb/ques.jpg,stim_fb/negf.jpg,stim_fb/posf.jpg,stim_01/d.jpg,stim_01/c.jpg,1,2,f,5,4,304,23,f,1,0.500189850492,01,02,60.0151687754,PLT_learning_01,A,2014_Feb_13_1725,P05,
stim_fb/ques.jpg,stim_fb/negf.jpg,stim_fb/posf.jpg,stim_01/a.jpg,stim_01/b.jpg,2,1,j,5,5,305,16,j,1,0.616509492,01,02,60.0151687754,PLT_learning_01,A,2014_Feb_13_1725,P05,
stim_fb/ques.jpg,stim_fb/negf.jpg,stim_fb/posf.jpg,stim_01/a.jpg,stim_01/b.jpg,2,1,j,5,6,306,17,j,1,0.683161645546,01,02,60.0151687754,PLT_learning_01,A,2014_Feb_13_1725,P05,
stim_fb/ques.jpg,stim_fb/negf.jpg,stim_fb/posf.jpg,stim_01/c.jpg,stim_01/d.jpg,2,2,j,5,7,307,33,j,1,0.633170058984,01,02,60.0151687754,PLT_learning_01,A,2014_Feb_13_1725,P05,
stim_fb/ques.jpg,stim_fb/negf.jpg,stim_fb/posf.jpg,stim_01/d.jpg,stim_01/c.jpg,1,2,f,5,8,308,26,f,1,0.483240468715,01,02,60.0151687754,PLT_learning_01,A,2014_Feb_13_1725,P05,
stim_fb/ques.jpg,stim_fb/negf.jpg,stim_fb/posf.jpg,stim_01/c.jpg,stim_01/d.jpg,2,2,j,5,9,309,32,j,1,0.49974886599,01,02,60.0151687754,PLT_learning_01,A,2014_Feb_13_1725,P05,
stim_fb/ques.jpg,stim_fb/posf.jpg,stim_fb/negf.jpg,stim_01/c.jpg,stim_01/d.jpg,2,2,j,5,10,310,39,j,1,0.549840701045,01,02,60.0151687754,PLT_learning_01,A,2014_Feb_13_1725,P05,
stim_fb/ques.jpg,stim_fb/negf.jpg,stim_fb/posf.jpg,stim_01/e.jpg,stim_01/f.jpg,2,3,j,5,11,311,55,j,1,0.766432892862,01,02,60.0151687754,PLT_learning_01,A,2014_Feb_13_1725,P05,
stim_fb/ques.jpg,stim_fb/negf.jpg,stim_fb/posf.jpg,stim_01/d.jpg,stim_01/c.jpg,1,2,f,5,12,312,25,f,1,0.483256486583,01,02,60.0151687754,PLT_learning_01,A,2014_Feb_13_1725,P05,
stim_fb/ques.jpg,stim_fb/posf.jpg,stim_fb/negf.jpg,stim_01/b.jpg,stim_01/a.jpg,1,1,f,5,13,313,9,f,1,0.516518195658,01,02,60.0151687754,PLT_learning_01,A,2014_Feb_13_1725,P05,
stim_fb/ques.jpg,stim_fb/negf.jpg,stim_fb/posf.jpg,stim_01/a.jpg,stim_01/b.jpg,2,1,j,5,14,314,15,j,1,0.566558548588,01,02,60.0151687754,PLT_learning_01,A,2014_Feb_13_1725,P05,
stim_fb/ques.jpg,stim_fb/negf.jpg,stim_fb/posf.jpg,stim_01/c.jpg,stim_01/d.jpg,2,2,j,5,15,315,36,j,1,0.666533673681,01,02,60.0151687754,PLT_learning_01,A,2014_Feb_13_1725,P05,
stim_fb/ques.jpg,stim_fb/negf.jpg,stim_fb/posf.jpg,stim_01/c.jpg,stim_01/d.jpg,2,2,j,5,16,316,31,j,1,0.866430432739,01,02,60.0151687754,PLT_learning_01,A,2014_Feb_13_1725,P05,
stim_fb/ques.jpg,stim_fb/negf.jpg,stim_fb/posf.jpg,stim_01/f.jpg,stim_01/e.jpg,1,3,f,5,17,317,42,f,1,0.716511058898,01,02,60.0151687754,PLT_learning_01,A,2014_Feb_13_1725,P05,
stim_fb/ques.jpg,stim_fb/posf.jpg,stim_fb/negf.jpg,stim_01/e.jpg,stim_01/f.jpg,2,3,j,5,18,318,58,j,1,0.649860622623,01,02,60.0151687754,PLT_learning_01,A,2014_Feb_13_1725,P05,
stim_fb/ques.jpg,stim_fb/negf.jpg,stim_fb/posf.jpg,stim_01/f.jpg,stim_01/e.jpg,1,3,f,5,19,319,41,f,1,0.483228065848,01,02,60.0151687754,PLT_learning_01,A,2014_Feb_13_1725,P05,
stim_fb/ques.jpg,stim_fb/negf.jpg,stim_fb/posf.jpg,stim_01/f.jpg,stim_01/e.jpg,1,3,f,5,20,320,43,f,1,0.499885962188,01,02,60.0151687754,PLT_learning_01,A,2014_Feb_13_1725,P05,
stim_fb/ques.jpg,stim_fb/negf.jpg,stim_fb/posf.jpg,stim_01/f.jpg,stim_01/e.jpg,1,3,f,5,21,321,44,f,1,0.449926041434,01,02,60.0151687754,PLT_learning_01,A,2014_Feb_13_1725,P05,
stim_fb/ques.jpg,stim_fb/negf.jpg,stim_fb/posf.jpg,stim_01/d.jpg,stim_01/c.jpg,1,2,f,5,22,322,21,f,1,0.566463704541,01,02,60.0151687754,PLT_learning_01,A,2014_Feb_13_1725,P05,
stim_fb/ques.jpg,stim_fb/posf.jpg,stim_fb/negf.jpg,stim_01/d.jpg,stim_01/c.jpg,1,2,f,5,23,323,28,f,1,0.449880751719,01,02,60.0151687754,PLT_learning_01,A,2014_Feb_13_1725,P05,
stim_fb/ques.jpg,stim_fb/negf.jpg,stim_fb/posf.jpg,stim_01/a.jpg,stim_01/b.jpg,2,1,j,5,24,324,11,j,1,0.633133403757,01,02,60.0151687754,PLT_learning_01,A,2014_Feb_13_1725,P05,
stim_fb/ques.jpg,stim_fb/posf.jpg,stim_fb/negf.jpg,stim_01/c.jpg,stim_01/d.jpg,2,2,j,5,25,325,37,j,1,0.566497725216,01,02,60.0151687754,PLT_learning_01,A,2014_Feb_13_1725,P05,
stim_fb/ques.jpg,stim_fb/negf.jpg,stim_fb/posf.jpg,stim_01/a.jpg,stim_01/b.jpg,2,1,j,5,26,326,14,j,1,0.683148439679,01,02,60.0151687754,PLT_learning_01,A,2014_Feb_13_1725,P05,
stim_fb/ques.jpg,stim_fb/negf.jpg,stim_fb/posf.jpg,stim_01/b.jpg,stim_01/a.jpg,1,1,f,5,27,327,5,f,1,0.549826698196,01,02,60.0151687754,PLT_learning_01,A,2014_Feb_13_1725,P05,
stim_fb/ques.jpg,stim_fb/posf.jpg,stim_fb/negf.jpg,stim_01/f.jpg,stim_01/e.jpg,1,3,f,5,28,328,47,f,1,0.699795337649,01,02,60.0151687754,PLT_learning_01,A,2014_Feb_13_1725,P05,
stim_fb/ques.jpg,stim_fb/negf.jpg,stim_fb/posf.jpg,stim_01/c.jpg,stim_01/d.jpg,2,2,j,5,29,329,35,j,1,0.666482684781,01,02,60.0151687754,PLT_learning_01,A,2014_Feb_13_1725,P05,
stim_fb/ques.jpg,stim_fb/posf.jpg,stim_fb/negf.jpg,stim_01/d.jpg,stim_01/c.jpg,1,2,f,5,30,330,29,f,1,0.49987773371,01,02,60.0151687754,PLT_learning_01,A,2014_Feb_13_1725,P05,
stim_fb/ques.jpg,stim_fb/negf.jpg,stim_fb/posf.jpg,stim_01/f.jpg,stim_01/e.jpg,1,3,f,5,31,331,45,f,1,0.699808179605,01,02,60.0151687754,PLT_learning_01,A,2014_Feb_13_1725,P05,
stim_fb/ques.jpg,stim_fb/negf.jpg,stim_fb/posf.jpg,stim_01/e.jpg,stim_01/f.jpg,2,3,j,5,32,332,52,j,1,0.749806902928,01,02,60.0151687754,PLT_learning_01,A,2014_Feb_13_1725,P05,
stim_fb/ques.jpg,stim_fb/negf.jpg,stim_fb/posf.jpg,stim_01/e.jpg,stim_01/f.jpg,2,3,j,5,33,333,50,j,1,0.734114466381,01,02,60.0151687754,PLT_learning_01,A,2014_Feb_13_1725,P05,
stim_fb/ques.jpg,stim_fb/posf.jpg,stim_fb/negf.jpg,stim_01/e.jpg,stim_01/f.jpg,2,3,j,5,34,334,56,j,1,0.616511897988,01,02,60.0151687754,PLT_learning_01,A,2014_Feb_13_1725,P05,
stim_fb/ques.jpg,stim_fb/posf.jpg,stim_fb/negf.jpg,stim_01/c.jpg,stim_01/d.jpg,2,2,j,5,35,335,38,j,1,0.716424864382,01,02,60.0151687754,PLT_learning_01,A,2014_Feb_13_1725,P05,
stim_fb/ques.jpg,stim_fb/negf.jpg,stim_fb/posf.jpg,stim_01/f.jpg,stim_01/e.jpg,1,3,f,5,36,336,40,f,1,0.666500053005,01,02,60.0151687754,PLT_learning_01,A,2014_Feb_13_1725,P05,
stim_fb/ques.jpg,stim_fb/negf.jpg,stim_fb/posf.jpg,stim_01/a.jpg,stim_01/b.jpg,2,1,j,5,37,337,10,j,1,0.683175940121,01,02,60.0151687754,PLT_learning_01,A,2014_Feb_13_1725,P05,
stim_fb/ques.jpg,stim_fb/posf.jpg,stim_fb/negf.jpg,stim_01/f.jpg,stim_01/e.jpg,1,3,f,5,38,338,46,f,1,0.566516407707,01,02,60.0151687754,PLT_learning_01,A,2014_Feb_13_1725,P05,
stim_fb/ques.jpg,stim_fb/negf.jpg,stim_fb/posf.jpg,stim_01/b.jpg,stim_01/a.jpg,1,1,f,5,39,339,1,f,1,0.549854186607,01,02,60.0151687754,PLT_learning_01,A,2014_Feb_13_1725,P05,
stim_fb/ques.jpg,stim_fb/negf.jpg,stim_fb/posf.jpg,stim_01/e.jpg,stim_01/f.jpg,2,3,j,5,40,340,51,j,1,0.7331102762,01,02,60.0151687754,PLT_learning_01,A,2014_Feb_13_1725,P05,
stim_fb/ques.jpg,stim_fb/posf.jpg,stim_fb/negf.jpg,stim_01/a.jpg,stim_01/b.jpg,2,1,j,5,41,341,19,j,1,0.616525230165,01,02,60.0151687754,PLT_learning_01,A,2014_Feb_13_1725,P05,
stim_fb/ques.jpg,stim_fb/posf.jpg,stim_fb/negf.jpg,stim_01/f.jpg,stim_01/e.jpg,1,3,f,5,42,342,49,f,1,0.883040314584,01,02,60.0151687754,PLT_learning_01,A,2014_Feb_13_1725,P05,
stim_fb/ques.jpg,stim_fb/negf.jpg,stim_fb/posf.jpg,stim_01/a.jpg,stim_01/b.jpg,2,1,j,5,43,343,12,j,1,0.583128373739,01,02,60.0151687754,PLT_learning_01,A,2014_Feb_13_1725,P05,
stim_fb/ques.jpg,stim_fb/negf.jpg,stim_fb/posf.jpg,stim_01/b.jpg,stim_01/a.jpg,1,1,f,5,44,344,0,f,1,0.499939152563,01,02,60.0151687754,PLT_learning_01,A,2014_Feb_13_1725,P05,
stim_fb/ques.jpg,stim_fb/posf.jpg,stim_fb/negf.jpg,stim_01/e.jpg,stim_01/f.jpg,2,3,j,5,45,345,59,j,1,0.666518338516,01,02,60.0151687754,PLT_learning_01,A,2014_Feb_13_1725,P05,
stim_fb/ques.jpg,stim_fb/negf.jpg,stim_fb/posf.jpg,stim_01/b.jpg,stim_01/a.jpg,1,1,f,5,46,346,2,f,1,0.516539614968,01,02,60.0151687754,PLT_learning_01,A,2014_Feb_13_1725,P05,
stim_fb/ques.jpg,stim_fb/negf.jpg,stim_fb/posf.jpg,stim_01/e.jpg,stim_01/f.jpg,2,3,j,5,47,347,53,j,1,0.649997727847,01,02,60.0151687754,PLT_learning_01,A,2014_Feb_13_1725,P05,
stim_fb/ques.jpg,stim_fb/posf.jpg,stim_fb/negf.jpg,stim_01/f.jpg,stim_01/e.jpg,1,3,f,5,48,348,48,f,1,0.466473581124,01,02,60.0151687754,PLT_learning_01,A,2014_Feb_13_1725,P05,
stim_fb/ques.jpg,stim_fb/negf.jpg,stim_fb/posf.jpg,stim_01/b.jpg,stim_01/a.jpg,1,1,f,5,49,349,7,f,1,0.549912366401,01,02,60.0151687754,PLT_learning_01,A,2014_Feb_13_1725,P05,
stim_fb/ques.jpg,stim_fb/negf.jpg,stim_fb/posf.jpg,stim_01/d.jpg,stim_01/c.jpg,1,2,f,5,50,350,22,f,1,0.549857275295,01,02,60.0151687754,PLT_learning_01,A,2014_Feb_13_1725,P05,
stim_fb/ques.jpg,stim_fb/negf.jpg,stim_fb/posf.jpg,stim_01/e.jpg,stim_01/f.jpg,2,3,j,5,51,351,54,j,1,0.59985947828,01,02,60.0151687754,PLT_learning_01,A,2014_Feb_13_1725,P05,
stim_fb/ques.jpg,stim_fb/negf.jpg,stim_fb/posf.jpg,stim_01/c.jpg,stim_01/d.jpg,2,2,j,5,52,352,34,j,1,0.599854254277,01,02,60.0151687754,PLT_learning_01,A,2014_Feb_13_1725,P05,
stim_fb/ques.jpg,stim_fb/negf.jpg,stim_fb/posf.jpg,stim_01/b.jpg,stim_01/a.jpg,1,1,f,5,53,353,3,f,1,0.516504322131,01,02,60.0151687754,PLT_learning_01,A,2014_Feb_13_1725,P05,
stim_fb/ques.jpg,stim_fb/negf.jpg,stim_fb/posf.jpg,stim_01/a.jpg,stim_01/b.jpg,2,1,j,5,54,354,13,j,1,0.549875533736,01,02,60.0151687754,PLT_learning_01,A,2014_Feb_13_1725,P05,
stim_fb/ques.jpg,stim_fb/negf.jpg,stim_fb/posf.jpg,stim_01/b.jpg,stim_01/a.jpg,1,1,f,5,55,355,4,f,1,0.533204380401,01,02,60.0151687754,PLT_learning_01,A,2014_Feb_13_1725,P05,
stim_fb/ques.jpg,stim_fb/negf.jpg,stim_fb/posf.jpg,stim_01/d.jpg,stim_01/c.jpg,1,2,f,5,56,356,24,f,1,0.49989026289,01,02,60.0151687754,PLT_learning_01,A,2014_Feb_13_1725,P05,
stim_fb/ques.jpg,stim_fb/posf.jpg,stim_fb/negf.jpg,stim_01/b.jpg,stim_01/a.jpg,1,1,f,5,57,357,8,f,1,0.516597758669,01,02,60.0151687754,PLT_learning_01,A,2014_Feb_13_1725,P05,
stim_fb/ques.jpg,stim_fb/posf.jpg,stim_fb/negf.jpg,stim_01/e.jpg,stim_01/f.jpg,2,3,j,5,58,358,57,j,1,0.799825229038,01,02,60.0151687754,PLT_learning_01,A,2014_Feb_13_1725,P05,
stim_fb/ques.jpg,stim_fb/negf.jpg,stim_fb/posf.jpg,stim_01/c.jpg,stim_01/d.jpg,2,2,j,5,59,359,30,j,1,0.66651126491,01,02,60.0151687754,PLT_learning_01,A,2014_Feb_13_1725,P05,
