Fb3,Fb2,Fb1,Symbol2,Symbol1,PosCond,Pair,Correct,trials.thisRepN,trials.thisTrialN,trials.thisN,trials.thisIndex,Response.keys,Response.corr,Response.rt,Version,Session Number,frameRate,expName,StimCondition,date,Participant,
stim_fb/ques.jpg,stim_fb/negf.jpg,stim_fb/posf.jpg,stim_03/c.jpg,stim_03/d.jpg,2,2,j,0,0,0,33,j,1,1.19965066127,03,03,60.0144578706,PLT_learning_3,A,2014_Feb_17_1056,P06,
stim_fb/ques.jpg,stim_fb/negf.jpg,stim_fb/posf.jpg,stim_03/e.jpg,stim_03/f.jpg,2,3,j,0,1,1,54,j,1,0.93303287043,03,03,60.0144578706,PLT_learning_3,A,2014_Feb_17_1056,P06,
stim_fb/ques.jpg,stim_fb/negf.jpg,stim_fb/posf.jpg,stim_03/b.jpg,stim_03/a.jpg,1,1,f,0,2,2,0,f,1,1.04968924444,03,03,60.0144578706,PLT_learning_3,A,2014_Feb_17_1056,P06,
stim_fb/ques.jpg,stim_fb/posf.jpg,stim_fb/negf.jpg,stim_03/e.jpg,stim_03/f.jpg,2,3,j,0,3,3,57,j,1,1.29962505244,03,03,60.0144578706,PLT_learning_3,A,2014_Feb_17_1056,P06,
stim_fb/ques.jpg,stim_fb/posf.jpg,stim_fb/negf.jpg,stim_03/d.jpg,stim_03/c.jpg,1,2,f,0,4,4,27,f,1,1.16638159713,03,03,60.0144578706,PLT_learning_3,A,2014_Feb_17_1056,P06,
stim_fb/ques.jpg,stim_fb/posf.jpg,stim_fb/negf.jpg,stim_03/f.jpg,stim_03/e.jpg,1,3,f,0,5,5,49,j,0,1.63284207788,03,03,60.0144578706,PLT_learning_3,A,2014_Feb_17_1056,P06,
stim_fb/ques.jpg,stim_fb/negf.jpg,stim_fb/posf.jpg,stim_03/d.jpg,stim_03/c.jpg,1,2,f,0,6,6,21,f,1,1.39954088766,03,03,60.0144578706,PLT_learning_3,A,2014_Feb_17_1056,P06,
stim_fb/ques.jpg,stim_fb/posf.jpg,stim_fb/negf.jpg,stim_03/a.jpg,stim_03/b.jpg,2,1,j,0,7,7,19,f,0,1.48290376764,03,03,60.0144578706,PLT_learning_3,A,2014_Feb_17_1056,P06,
stim_fb/ques.jpg,stim_fb/posf.jpg,stim_fb/negf.jpg,stim_03/f.jpg,stim_03/e.jpg,1,3,f,0,8,8,47,j,0,1.49953289975,03,03,60.0144578706,PLT_learning_3,A,2014_Feb_17_1056,P06,
stim_fb/ques.jpg,stim_fb/negf.jpg,stim_fb/posf.jpg,stim_03/e.jpg,stim_03/f.jpg,2,3,j,0,9,9,52,f,0,1.0996913557,03,03,60.0144578706,PLT_learning_3,A,2014_Feb_17_1056,P06,
stim_fb/ques.jpg,stim_fb/posf.jpg,stim_fb/negf.jpg,stim_03/c.jpg,stim_03/d.jpg,2,2,j,0,10,10,37,j,1,1.28296117473,03,03,60.0144578706,PLT_learning_3,A,2014_Feb_17_1056,P06,
stim_fb/ques.jpg,stim_fb/posf.jpg,stim_fb/negf.jpg,stim_03/d.jpg,stim_03/c.jpg,1,2,f,0,11,11,29,f,1,1.14964549439,03,03,60.0144578706,PLT_learning_3,A,2014_Feb_17_1056,P06,
stim_fb/ques.jpg,stim_fb/negf.jpg,stim_fb/posf.jpg,stim_03/d.jpg,stim_03/c.jpg,1,2,f,0,12,12,20,f,1,1.31628994669,03,03,60.0144578706,PLT_learning_3,A,2014_Feb_17_1056,P06,
stim_fb/ques.jpg,stim_fb/negf.jpg,stim_fb/posf.jpg,stim_03/b.jpg,stim_03/a.jpg,1,1,f,0,13,13,2,f,1,1.28293162307,03,03,60.0144578706,PLT_learning_3,A,2014_Feb_17_1056,P06,
stim_fb/ques.jpg,stim_fb/negf.jpg,stim_fb/posf.jpg,stim_03/b.jpg,stim_03/a.jpg,1,1,f,0,14,14,7,f,1,1.04967872422,03,03,60.0144578706,PLT_learning_3,A,2014_Feb_17_1056,P06,
stim_fb/ques.jpg,stim_fb/negf.jpg,stim_fb/posf.jpg,stim_03/f.jpg,stim_03/e.jpg,1,3,f,0,15,15,44,j,0,1.34961885399,03,03,60.0144578706,PLT_learning_3,A,2014_Feb_17_1056,P06,
stim_fb/ques.jpg,stim_fb/negf.jpg,stim_fb/posf.jpg,stim_03/a.jpg,stim_03/b.jpg,2,1,j,0,16,16,10,j,1,1.61620766761,03,03,60.0144578706,PLT_learning_3,A,2014_Feb_17_1056,P06,
stim_fb/ques.jpg,stim_fb/negf.jpg,stim_fb/posf.jpg,stim_03/a.jpg,stim_03/b.jpg,2,1,j,0,17,17,17,j,1,1.28297513252,03,03,60.0144578706,PLT_learning_3,A,2014_Feb_17_1056,P06,
stim_fb/ques.jpg,stim_fb/posf.jpg,stim_fb/negf.jpg,stim_03/e.jpg,stim_03/f.jpg,2,3,j,0,18,18,58,f,0,1.24963285088,03,03,60.0144578706,PLT_learning_3,A,2014_Feb_17_1056,P06,
stim_fb/ques.jpg,stim_fb/negf.jpg,stim_fb/posf.jpg,stim_03/b.jpg,stim_03/a.jpg,1,1,f,0,19,19,4,f,1,1.06635706498,03,03,60.0144578706,PLT_learning_3,A,2014_Feb_17_1056,P06,
stim_fb/ques.jpg,stim_fb/posf.jpg,stim_fb/negf.jpg,stim_03/a.jpg,stim_03/b.jpg,2,1,j,0,20,20,18,j,1,1.08300582702,03,03,60.0144578706,PLT_learning_3,A,2014_Feb_17_1056,P06,
stim_fb/ques.jpg,stim_fb/negf.jpg,stim_fb/posf.jpg,stim_03/a.jpg,stim_03/b.jpg,2,1,j,0,21,21,15,j,1,0.849778182119,03,03,60.0144578706,PLT_learning_3,A,2014_Feb_17_1056,P06,
stim_fb/ques.jpg,stim_fb/negf.jpg,stim_fb/posf.jpg,stim_03/c.jpg,stim_03/d.jpg,2,2,j,0,22,22,36,j,1,1.26629087601,03,03,60.0144578706,PLT_learning_3,A,2014_Feb_17_1056,P06,
stim_fb/ques.jpg,stim_fb/negf.jpg,stim_fb/posf.jpg,stim_03/a.jpg,stim_03/b.jpg,2,1,j,0,23,23,16,j,1,1.21632197953,03,03,60.0144578706,PLT_learning_3,A,2014_Feb_17_1056,P06,
stim_fb/ques.jpg,stim_fb/negf.jpg,stim_fb/posf.jpg,stim_03/e.jpg,stim_03/f.jpg,2,3,j,0,24,24,51,f,0,1.26628494823,03,03,60.0144578706,PLT_learning_3,A,2014_Feb_17_1056,P06,
stim_fb/ques.jpg,stim_fb/posf.jpg,stim_fb/negf.jpg,stim_03/b.jpg,stim_03/a.jpg,1,1,f,0,25,25,9,f,1,1.06634618086,03,03,60.0144578706,PLT_learning_3,A,2014_Feb_17_1056,P06,
stim_fb/ques.jpg,stim_fb/negf.jpg,stim_fb/posf.jpg,stim_03/c.jpg,stim_03/d.jpg,2,2,j,0,26,26,34,j,1,0.866457313855,03,03,60.0144578706,PLT_learning_3,A,2014_Feb_17_1056,P06,
stim_fb/ques.jpg,stim_fb/negf.jpg,stim_fb/posf.jpg,stim_03/f.jpg,stim_03/e.jpg,1,3,f,0,27,27,45,j,0,0.949734356885,03,03,60.0144578706,PLT_learning_3,A,2014_Feb_17_1056,P06,
stim_fb/ques.jpg,stim_fb/negf.jpg,stim_fb/posf.jpg,stim_03/c.jpg,stim_03/d.jpg,2,2,j,0,28,28,32,j,1,1.2996018436,03,03,60.0144578706,PLT_learning_3,A,2014_Feb_17_1056,P06,
stim_fb/ques.jpg,stim_fb/negf.jpg,stim_fb/posf.jpg,stim_03/d.jpg,stim_03/c.jpg,1,2,f,0,29,29,24,f,1,1.16635312817,03,03,60.0144578706,PLT_learning_3,A,2014_Feb_17_1056,P06,
stim_fb/ques.jpg,stim_fb/negf.jpg,stim_fb/posf.jpg,stim_03/b.jpg,stim_03/a.jpg,1,1,f,0,30,30,3,f,1,0.649856870249,03,03,60.0144578706,PLT_learning_3,A,2014_Feb_17_1056,P06,
stim_fb/ques.jpg,stim_fb/negf.jpg,stim_fb/posf.jpg,stim_03/d.jpg,stim_03/c.jpg,1,2,f,0,31,31,23,f,1,0.766454447711,03,03,60.0144578706,PLT_learning_3,A,2014_Feb_17_1056,P06,
stim_fb/ques.jpg,stim_fb/negf.jpg,stim_fb/posf.jpg,stim_03/a.jpg,stim_03/b.jpg,2,1,j,0,32,32,12,j,1,0.783116274314,03,03,60.0144578706,PLT_learning_3,A,2014_Feb_17_1056,P06,
stim_fb/ques.jpg,stim_fb/negf.jpg,stim_fb/posf.jpg,stim_03/e.jpg,stim_03/f.jpg,2,3,j,0,33,33,50,f,0,0.983062530357,03,03,60.0144578706,PLT_learning_3,A,2014_Feb_17_1056,P06,
stim_fb/ques.jpg,stim_fb/negf.jpg,stim_fb/posf.jpg,stim_03/d.jpg,stim_03/c.jpg,1,2,f,0,34,34,22,f,1,0.999706880399,03,03,60.0144578706,PLT_learning_3,A,2014_Feb_17_1056,P06,
stim_fb/ques.jpg,stim_fb/negf.jpg,stim_fb/posf.jpg,stim_03/a.jpg,stim_03/b.jpg,2,1,j,0,35,35,13,j,1,0.799824981767,03,03,60.0144578706,PLT_learning_3,A,2014_Feb_17_1056,P06,
stim_fb/ques.jpg,stim_fb/posf.jpg,stim_fb/negf.jpg,stim_03/f.jpg,stim_03/e.jpg,1,3,f,0,36,36,46,j,0,0.983008873617,03,03,60.0144578706,PLT_learning_3,A,2014_Feb_17_1056,P06,
stim_fb/ques.jpg,stim_fb/posf.jpg,stim_fb/negf.jpg,stim_03/e.jpg,stim_03/f.jpg,2,3,j,0,37,37,59,j,1,1.1329667807,03,03,60.0144578706,PLT_learning_3,A,2014_Feb_17_1056,P06,
stim_fb/ques.jpg,stim_fb/posf.jpg,stim_fb/negf.jpg,stim_03/b.jpg,stim_03/a.jpg,1,1,f,0,38,38,8,f,1,1.18301184202,03,03,60.0144578706,PLT_learning_3,A,2014_Feb_17_1056,P06,
stim_fb/ques.jpg,stim_fb/negf.jpg,stim_fb/posf.jpg,stim_03/f.jpg,stim_03/e.jpg,1,3,f,0,39,39,41,j,0,0.866429010308,03,03,60.0144578706,PLT_learning_3,A,2014_Feb_17_1056,P06,
stim_fb/ques.jpg,stim_fb/negf.jpg,stim_fb/posf.jpg,stim_03/e.jpg,stim_03/f.jpg,2,3,j,0,40,40,55,f,0,0.699819520154,03,03,60.0144578706,PLT_learning_3,A,2014_Feb_17_1056,P06,
stim_fb/ques.jpg,stim_fb/negf.jpg,stim_fb/posf.jpg,stim_03/f.jpg,stim_03/e.jpg,1,3,f,0,41,41,42,j,0,1.23298015804,03,03,60.0144578706,PLT_learning_3,A,2014_Feb_17_1056,P06,
stim_fb/ques.jpg,stim_fb/negf.jpg,stim_fb/posf.jpg,stim_03/c.jpg,stim_03/d.jpg,2,2,j,0,42,42,30,j,1,1.03305492741,03,03,60.0144578706,PLT_learning_3,A,2014_Feb_17_1056,P06,
stim_fb/ques.jpg,stim_fb/negf.jpg,stim_fb/posf.jpg,stim_03/f.jpg,stim_03/e.jpg,1,3,f,0,43,43,43,f,1,0.916305546575,03,03,60.0144578706,PLT_learning_3,A,2014_Feb_17_1056,P06,
stim_fb/ques.jpg,stim_fb/posf.jpg,stim_fb/negf.jpg,stim_03/e.jpg,stim_03/f.jpg,2,3,j,0,44,44,56,j,1,0.849613229976,03,03,60.0144578706,PLT_learning_3,A,2014_Feb_17_1056,P06,
stim_fb/ques.jpg,stim_fb/negf.jpg,stim_fb/posf.jpg,stim_03/c.jpg,stim_03/d.jpg,2,2,j,0,45,45,35,j,1,1.26632680055,03,03,60.0144578706,PLT_learning_3,A,2014_Feb_17_1056,P06,
stim_fb/ques.jpg,stim_fb/negf.jpg,stim_fb/posf.jpg,stim_03/d.jpg,stim_03/c.jpg,1,2,f,0,46,46,26,f,1,0.966416947241,03,03,60.0144578706,PLT_learning_3,A,2014_Feb_17_1056,P06,
stim_fb/ques.jpg,stim_fb/negf.jpg,stim_fb/posf.jpg,stim_03/f.jpg,stim_03/e.jpg,1,3,f,0,47,47,40,f,1,0.883090331652,03,03,60.0144578706,PLT_learning_3,A,2014_Feb_17_1056,P06,
stim_fb/ques.jpg,stim_fb/negf.jpg,stim_fb/posf.jpg,stim_03/e.jpg,stim_03/f.jpg,2,3,j,0,48,48,53,f,0,1.59953466215,03,03,60.0144578706,PLT_learning_3,A,2014_Feb_17_1056,P06,
stim_fb/ques.jpg,stim_fb/negf.jpg,stim_fb/posf.jpg,stim_03/c.jpg,stim_03/d.jpg,2,2,j,0,49,49,31,j,1,1.5328579334,03,03,60.0144578706,PLT_learning_3,A,2014_Feb_17_1056,P06,
stim_fb/ques.jpg,stim_fb/negf.jpg,stim_fb/posf.jpg,stim_03/a.jpg,stim_03/b.jpg,2,1,j,0,50,50,14,j,1,0.949751710138,03,03,60.0144578706,PLT_learning_3,A,2014_Feb_17_1056,P06,
stim_fb/ques.jpg,stim_fb/negf.jpg,stim_fb/posf.jpg,stim_03/b.jpg,stim_03/a.jpg,1,1,f,0,51,51,1,f,1,0.983057134909,03,03,60.0144578706,PLT_learning_3,A,2014_Feb_17_1056,P06,
stim_fb/ques.jpg,stim_fb/negf.jpg,stim_fb/posf.jpg,stim_03/a.jpg,stim_03/b.jpg,2,1,j,0,52,52,11,j,1,0.966352105623,03,03,60.0144578706,PLT_learning_3,A,2014_Feb_17_1056,P06,
stim_fb/ques.jpg,stim_fb/posf.jpg,stim_fb/negf.jpg,stim_03/d.jpg,stim_03/c.jpg,1,2,f,0,53,53,28,f,1,0.966371714498,03,03,60.0144578706,PLT_learning_3,A,2014_Feb_17_1056,P06,
stim_fb/ques.jpg,stim_fb/posf.jpg,stim_fb/negf.jpg,stim_03/c.jpg,stim_03/d.jpg,2,2,j,0,54,54,39,j,1,0.633170072406,03,03,60.0144578706,PLT_learning_3,A,2014_Feb_17_1056,P06,
stim_fb/ques.jpg,stim_fb/negf.jpg,stim_fb/posf.jpg,stim_03/b.jpg,stim_03/a.jpg,1,1,f,0,55,55,6,f,1,0.733121636679,03,03,60.0144578706,PLT_learning_3,A,2014_Feb_17_1056,P06,
stim_fb/ques.jpg,stim_fb/negf.jpg,stim_fb/posf.jpg,stim_03/d.jpg,stim_03/c.jpg,1,2,f,0,56,56,25,f,1,0.649808933767,03,03,60.0144578706,PLT_learning_3,A,2014_Feb_17_1056,P06,
stim_fb/ques.jpg,stim_fb/negf.jpg,stim_fb/posf.jpg,stim_03/b.jpg,stim_03/a.jpg,1,1,f,0,57,57,5,f,1,0.716479855039,03,03,60.0144578706,PLT_learning_3,A,2014_Feb_17_1056,P06,
stim_fb/ques.jpg,stim_fb/posf.jpg,stim_fb/negf.jpg,stim_03/f.jpg,stim_03/e.jpg,1,3,f,0,58,58,48,j,0,0.86640619845,03,03,60.0144578706,PLT_learning_3,A,2014_Feb_17_1056,P06,
stim_fb/ques.jpg,stim_fb/posf.jpg,stim_fb/negf.jpg,stim_03/c.jpg,stim_03/d.jpg,2,2,j,0,59,59,38,j,1,0.816470014511,03,03,60.0144578706,PLT_learning_3,A,2014_Feb_17_1056,P06,
stim_fb/ques.jpg,stim_fb/negf.jpg,stim_fb/posf.jpg,stim_03/f.jpg,stim_03/e.jpg,1,3,f,1,0,60,42,j,0,0.933107994677,03,03,60.0144578706,PLT_learning_3,A,2014_Feb_17_1056,P06,
stim_fb/ques.jpg,stim_fb/negf.jpg,stim_fb/posf.jpg,stim_03/c.jpg,stim_03/d.jpg,2,2,j,1,1,61,34,j,1,0.899757487538,03,03,60.0144578706,PLT_learning_3,A,2014_Feb_17_1056,P06,
stim_fb/ques.jpg,stim_fb/negf.jpg,stim_fb/posf.jpg,stim_03/d.jpg,stim_03/c.jpg,1,2,f,1,2,62,23,j,0,1.0663844332,03,03,60.0144578706,PLT_learning_3,A,2014_Feb_17_1056,P06,
stim_fb/ques.jpg,stim_fb/negf.jpg,stim_fb/posf.jpg,stim_03/a.jpg,stim_03/b.jpg,2,1,j,1,3,63,11,j,1,1.04968797227,03,03,60.0144578706,PLT_learning_3,A,2014_Feb_17_1056,P06,
stim_fb/ques.jpg,stim_fb/negf.jpg,stim_fb/posf.jpg,stim_03/e.jpg,stim_03/f.jpg,2,3,j,1,4,64,50,f,0,0.91643730799,03,03,60.0144578706,PLT_learning_3,A,2014_Feb_17_1056,P06,
stim_fb/ques.jpg,stim_fb/negf.jpg,stim_fb/posf.jpg,stim_03/b.jpg,stim_03/a.jpg,1,1,f,1,5,65,2,f,1,1.08291022774,03,03,60.0144578706,PLT_learning_3,A,2014_Feb_17_1056,P06,
stim_fb/ques.jpg,stim_fb/posf.jpg,stim_fb/negf.jpg,stim_03/a.jpg,stim_03/b.jpg,2,1,j,1,6,66,18,j,1,1.03304856354,03,03,60.0144578706,PLT_learning_3,A,2014_Feb_17_1056,P06,
stim_fb/ques.jpg,stim_fb/posf.jpg,stim_fb/negf.jpg,stim_03/f.jpg,stim_03/e.jpg,1,3,f,1,7,67,46,f,1,1.13297051902,03,03,60.0144578706,PLT_learning_3,A,2014_Feb_17_1056,P06,
stim_fb/ques.jpg,stim_fb/negf.jpg,stim_fb/posf.jpg,stim_03/c.jpg,stim_03/d.jpg,2,2,j,1,8,68,31,j,1,0.783139898196,03,03,60.0144578706,PLT_learning_3,A,2014_Feb_17_1056,P06,
stim_fb/ques.jpg,stim_fb/posf.jpg,stim_fb/negf.jpg,stim_03/b.jpg,stim_03/a.jpg,1,1,f,1,9,69,9,f,1,0.733228559184,03,03,60.0144578706,PLT_learning_3,A,2014_Feb_17_1056,P06,
stim_fb/ques.jpg,stim_fb/negf.jpg,stim_fb/posf.jpg,stim_03/b.jpg,stim_03/a.jpg,1,1,f,1,10,70,7,f,1,0.766475677627,03,03,60.0144578706,PLT_learning_3,A,2014_Feb_17_1056,P06,
stim_fb/ques.jpg,stim_fb/negf.jpg,stim_fb/posf.jpg,stim_03/a.jpg,stim_03/b.jpg,2,1,j,1,11,71,17,j,1,0.966398156405,03,03,60.0144578706,PLT_learning_3,A,2014_Feb_17_1056,P06,
stim_fb/ques.jpg,stim_fb/negf.jpg,stim_fb/posf.jpg,stim_03/a.jpg,stim_03/b.jpg,2,1,j,1,12,72,16,j,1,0.766429034368,03,03,60.0144578706,PLT_learning_3,A,2014_Feb_17_1056,P06,
stim_fb/ques.jpg,stim_fb/negf.jpg,stim_fb/posf.jpg,stim_03/d.jpg,stim_03/c.jpg,1,2,f,1,13,73,24,f,1,0.866382409155,03,03,60.0144578706,PLT_learning_3,A,2014_Feb_17_1056,P06,
stim_fb/ques.jpg,stim_fb/negf.jpg,stim_fb/posf.jpg,stim_03/d.jpg,stim_03/c.jpg,1,2,f,1,14,74,22,f,1,1.08301746603,03,03,60.0144578706,PLT_learning_3,A,2014_Feb_17_1056,P06,
stim_fb/ques.jpg,stim_fb/negf.jpg,stim_fb/posf.jpg,stim_03/a.jpg,stim_03/b.jpg,2,1,j,1,15,75,15,j,1,1.16631599161,03,03,60.0144578706,PLT_learning_3,A,2014_Feb_17_1056,P06,
stim_fb/ques.jpg,stim_fb/negf.jpg,stim_fb/posf.jpg,stim_03/f.jpg,stim_03/e.jpg,1,3,f,1,16,76,45,j,0,1.06637147089,03,03,60.0144578706,PLT_learning_3,A,2014_Feb_17_1056,P06,
stim_fb/ques.jpg,stim_fb/negf.jpg,stim_fb/posf.jpg,stim_03/a.jpg,stim_03/b.jpg,2,1,j,1,17,77,10,j,1,1.06634646356,03,03,60.0144578706,PLT_learning_3,A,2014_Feb_17_1056,P06,
stim_fb/ques.jpg,stim_fb/negf.jpg,stim_fb/posf.jpg,stim_03/a.jpg,stim_03/b.jpg,2,1,j,1,18,78,14,j,1,0.883073597943,03,03,60.0144578706,PLT_learning_3,A,2014_Feb_17_1056,P06,
stim_fb/ques.jpg,stim_fb/negf.jpg,stim_fb/posf.jpg,stim_03/f.jpg,stim_03/e.jpg,1,3,f,1,19,79,44,f,1,1.16631088488,03,03,60.0144578706,PLT_learning_3,A,2014_Feb_17_1056,P06,
stim_fb/ques.jpg,stim_fb/posf.jpg,stim_fb/negf.jpg,stim_03/b.jpg,stim_03/a.jpg,1,1,f,1,20,80,8,f,1,1.31624816956,03,03,60.0144578706,PLT_learning_3,A,2014_Feb_17_1056,P06,
stim_fb/ques.jpg,stim_fb/negf.jpg,stim_fb/posf.jpg,stim_03/c.jpg,stim_03/d.jpg,2,2,j,1,21,81,35,j,1,1.18299030834,03,03,60.0144578706,PLT_learning_3,A,2014_Feb_17_1056,P06,
stim_fb/ques.jpg,stim_fb/negf.jpg,stim_fb/posf.jpg,stim_03/d.jpg,stim_03/c.jpg,1,2,f,1,22,82,21,f,1,1.28295767099,03,03,60.0144578706,PLT_learning_3,A,2014_Feb_17_1056,P06,
stim_fb/ques.jpg,stim_fb/posf.jpg,stim_fb/negf.jpg,stim_03/c.jpg,stim_03/d.jpg,2,2,j,1,23,83,39,j,1,1.06637106488,03,03,60.0144578706,PLT_learning_3,A,2014_Feb_17_1056,P06,
stim_fb/ques.jpg,stim_fb/negf.jpg,stim_fb/posf.jpg,stim_03/c.jpg,stim_03/d.jpg,2,2,j,1,24,84,32,j,1,0.883098975196,03,03,60.0144578706,PLT_learning_3,A,2014_Feb_17_1056,P06,
stim_fb/ques.jpg,stim_fb/negf.jpg,stim_fb/posf.jpg,stim_03/b.jpg,stim_03/a.jpg,1,1,f,1,25,85,4,f,1,1.09969920527,03,03,60.0144578706,PLT_learning_3,A,2014_Feb_17_1056,P06,
stim_fb/ques.jpg,stim_fb/negf.jpg,stim_fb/posf.jpg,stim_03/c.jpg,stim_03/d.jpg,2,2,j,1,26,86,33,j,1,0.916422195322,03,03,60.0144578706,PLT_learning_3,A,2014_Feb_17_1056,P06,
stim_fb/ques.jpg,stim_fb/posf.jpg,stim_fb/negf.jpg,stim_03/d.jpg,stim_03/c.jpg,1,2,f,1,27,87,27,f,1,1.19963347945,03,03,60.0144578706,PLT_learning_3,A,2014_Feb_17_1056,P06,
stim_fb/ques.jpg,stim_fb/negf.jpg,stim_fb/posf.jpg,stim_03/a.jpg,stim_03/b.jpg,2,1,j,1,28,88,13,j,1,0.816482197878,03,03,60.0144578706,PLT_learning_3,A,2014_Feb_17_1056,P06,
stim_fb/ques.jpg,stim_fb/negf.jpg,stim_fb/posf.jpg,stim_03/b.jpg,stim_03/a.jpg,1,1,f,1,29,89,5,f,1,0.649780422704,03,03,60.0144578706,PLT_learning_3,A,2014_Feb_17_1056,P06,
stim_fb/ques.jpg,stim_fb/negf.jpg,stim_fb/posf.jpg,stim_03/e.jpg,stim_03/f.jpg,2,3,j,1,30,90,55,f,0,1.23299641958,03,03,60.0144578706,PLT_learning_3,A,2014_Feb_17_1056,P06,
stim_fb/ques.jpg,stim_fb/posf.jpg,stim_fb/negf.jpg,stim_03/a.jpg,stim_03/b.jpg,2,1,j,1,31,91,19,j,1,1.28300634131,03,03,60.0144578706,PLT_learning_3,A,2014_Feb_17_1056,P06,
stim_fb/ques.jpg,stim_fb/posf.jpg,stim_fb/negf.jpg,stim_03/f.jpg,stim_03/e.jpg,1,3,f,1,32,92,48,f,1,1.26631404275,03,03,60.0144578706,PLT_learning_3,A,2014_Feb_17_1056,P06,
stim_fb/ques.jpg,stim_fb/negf.jpg,stim_fb/posf.jpg,stim_03/e.jpg,stim_03/f.jpg,2,3,j,1,33,93,54,j,1,1.2329474004,03,03,60.0144578706,PLT_learning_3,A,2014_Feb_17_1056,P06,
stim_fb/ques.jpg,stim_fb/negf.jpg,stim_fb/posf.jpg,stim_03/b.jpg,stim_03/a.jpg,1,1,f,1,34,94,0,f,1,0.883097678965,03,03,60.0144578706,PLT_learning_3,A,2014_Feb_17_1056,P06,
stim_fb/ques.jpg,stim_fb/posf.jpg,stim_fb/negf.jpg,stim_03/e.jpg,stim_03/f.jpg,2,3,j,1,35,95,59,j,1,1.0830185367,03,03,60.0144578706,PLT_learning_3,A,2014_Feb_17_1056,P06,
stim_fb/ques.jpg,stim_fb/negf.jpg,stim_fb/posf.jpg,stim_03/f.jpg,stim_03/e.jpg,1,3,f,1,36,96,41,f,1,1.19964629138,03,03,60.0144578706,PLT_learning_3,A,2014_Feb_17_1056,P06,
stim_fb/ques.jpg,stim_fb/negf.jpg,stim_fb/posf.jpg,stim_03/f.jpg,stim_03/e.jpg,1,3,f,1,37,97,43,j,0,0.983076181382,03,03,60.0144578706,PLT_learning_3,A,2014_Feb_17_1056,P06,
stim_fb/ques.jpg,stim_fb/posf.jpg,stim_fb/negf.jpg,stim_03/e.jpg,stim_03/f.jpg,2,3,j,1,38,98,57,j,1,1.18301363749,03,03,60.0144578706,PLT_learning_3,A,2014_Feb_17_1056,P06,
stim_fb/ques.jpg,stim_fb/posf.jpg,stim_fb/negf.jpg,stim_03/c.jpg,stim_03/d.jpg,2,2,j,1,39,99,37,j,1,1.26625457252,03,03,60.0144578706,PLT_learning_3,A,2014_Feb_17_1056,P06,
stim_fb/ques.jpg,stim_fb/negf.jpg,stim_fb/posf.jpg,stim_03/b.jpg,stim_03/a.jpg,1,1,f,1,40,100,1,f,1,0.783114199141,03,03,60.0144578706,PLT_learning_3,A,2014_Feb_17_1056,P06,
stim_fb/ques.jpg,stim_fb/negf.jpg,stim_fb/posf.jpg,stim_03/c.jpg,stim_03/d.jpg,2,2,j,1,41,101,36,j,1,0.733118241216,03,03,60.0144578706,PLT_learning_3,A,2014_Feb_17_1056,P06,
stim_fb/ques.jpg,stim_fb/negf.jpg,stim_fb/posf.jpg,stim_03/c.jpg,stim_03/d.jpg,2,2,j,1,42,102,30,j,1,1.06641116683,03,03,60.0144578706,PLT_learning_3,A,2014_Feb_17_1056,P06,
stim_fb/ques.jpg,stim_fb/negf.jpg,stim_fb/posf.jpg,stim_03/b.jpg,stim_03/a.jpg,1,1,f,1,43,103,6,f,1,0.66649634514,03,03,60.0144578706,PLT_learning_3,A,2014_Feb_17_1056,P06,
stim_fb/ques.jpg,stim_fb/negf.jpg,stim_fb/posf.jpg,stim_03/f.jpg,stim_03/e.jpg,1,3,f,1,44,104,40,f,1,1.16633280652,03,03,60.0144578706,PLT_learning_3,A,2014_Feb_17_1056,P06,
stim_fb/ques.jpg,stim_fb/negf.jpg,stim_fb/posf.jpg,stim_03/e.jpg,stim_03/f.jpg,2,3,j,1,45,105,51,j,1,1.2496349862,03,03,60.0144578706,PLT_learning_3,A,2014_Feb_17_1056,P06,
stim_fb/ques.jpg,stim_fb/negf.jpg,stim_fb/posf.jpg,stim_03/d.jpg,stim_03/c.jpg,1,2,f,1,46,106,20,f,1,1.23298494598,03,03,60.0144578706,PLT_learning_3,A,2014_Feb_17_1056,P06,
stim_fb/ques.jpg,stim_fb/negf.jpg,stim_fb/posf.jpg,stim_03/a.jpg,stim_03/b.jpg,2,1,j,1,47,107,12,j,1,1.53288747904,03,03,60.0144578706,PLT_learning_3,A,2014_Feb_17_1056,P06,
stim_fb/ques.jpg,stim_fb/negf.jpg,stim_fb/posf.jpg,stim_03/b.jpg,stim_03/a.jpg,1,1,f,1,48,108,3,f,1,0.683141173375,03,03,60.0144578706,PLT_learning_3,A,2014_Feb_17_1056,P06,
stim_fb/ques.jpg,stim_fb/negf.jpg,stim_fb/posf.jpg,stim_03/d.jpg,stim_03/c.jpg,1,2,f,1,49,109,25,f,1,0.933072006977,03,03,60.0144578706,PLT_learning_3,A,2014_Feb_17_1056,P06,
stim_fb/ques.jpg,stim_fb/posf.jpg,stim_fb/negf.jpg,stim_03/f.jpg,stim_03/e.jpg,1,3,f,1,50,110,49,f,1,1.28297851896,03,03,60.0144578706,PLT_learning_3,A,2014_Feb_17_1056,P06,
stim_fb/ques.jpg,stim_fb/posf.jpg,stim_fb/negf.jpg,stim_03/d.jpg,stim_03/c.jpg,1,2,f,1,51,111,28,f,1,0.999729147901,03,03,60.0144578706,PLT_learning_3,A,2014_Feb_17_1056,P06,
stim_fb/ques.jpg,stim_fb/posf.jpg,stim_fb/negf.jpg,stim_03/d.jpg,stim_03/c.jpg,1,2,f,1,52,112,29,f,1,0.816385636198,03,03,60.0144578706,PLT_learning_3,A,2014_Feb_17_1056,P06,
stim_fb/ques.jpg,stim_fb/negf.jpg,stim_fb/posf.jpg,stim_03/e.jpg,stim_03/f.jpg,2,3,j,1,53,113,52,j,1,1.38290722927,03,03,60.0144578706,PLT_learning_3,A,2014_Feb_17_1056,P06,
stim_fb/ques.jpg,stim_fb/posf.jpg,stim_fb/negf.jpg,stim_03/f.jpg,stim_03/e.jpg,1,3,f,1,54,114,47,j,0,1.38294241697,03,03,60.0144578706,PLT_learning_3,A,2014_Feb_17_1056,P06,
stim_fb/ques.jpg,stim_fb/posf.jpg,stim_fb/negf.jpg,stim_03/c.jpg,stim_03/d.jpg,2,2,j,1,55,115,38,j,1,0.799782401636,03,03,60.0144578706,PLT_learning_3,A,2014_Feb_17_1056,P06,
stim_fb/ques.jpg,stim_fb/posf.jpg,stim_fb/negf.jpg,stim_03/e.jpg,stim_03/f.jpg,2,3,j,1,56,116,56,j,1,1.21630269848,03,03,60.0144578706,PLT_learning_3,A,2014_Feb_17_1056,P06,
stim_fb/ques.jpg,stim_fb/posf.jpg,stim_fb/negf.jpg,stim_03/e.jpg,stim_03/f.jpg,2,3,j,1,57,117,58,j,1,0.766477569342,03,03,60.0144578706,PLT_learning_3,A,2014_Feb_17_1056,P06,
stim_fb/ques.jpg,stim_fb/negf.jpg,stim_fb/posf.jpg,stim_03/d.jpg,stim_03/c.jpg,1,2,f,1,58,118,26,f,1,0.833143618469,03,03,60.0144578706,PLT_learning_3,A,2014_Feb_17_1056,P06,
stim_fb/ques.jpg,stim_fb/negf.jpg,stim_fb/posf.jpg,stim_03/e.jpg,stim_03/f.jpg,2,3,j,1,59,119,53,j,1,0.966394153427,03,03,60.0144578706,PLT_learning_3,A,2014_Feb_17_1056,P06,
stim_fb/ques.jpg,stim_fb/negf.jpg,stim_fb/posf.jpg,stim_03/b.jpg,stim_03/a.jpg,1,1,f,2,0,120,1,f,1,1.28295267554,03,03,60.0144578706,PLT_learning_3,A,2014_Feb_17_1056,P06,
stim_fb/ques.jpg,stim_fb/negf.jpg,stim_fb/posf.jpg,stim_03/d.jpg,stim_03/c.jpg,1,2,f,2,1,121,23,f,1,0.86642341035,03,03,60.0144578706,PLT_learning_3,A,2014_Feb_17_1056,P06,
stim_fb/ques.jpg,stim_fb/negf.jpg,stim_fb/posf.jpg,stim_03/a.jpg,stim_03/b.jpg,2,1,j,2,2,122,16,j,1,0.94974198991,03,03,60.0144578706,PLT_learning_3,A,2014_Feb_17_1056,P06,
stim_fb/ques.jpg,stim_fb/negf.jpg,stim_fb/posf.jpg,stim_03/f.jpg,stim_03/e.jpg,1,3,f,2,3,123,43,f,1,1.16634029519,03,03,60.0144578706,PLT_learning_3,A,2014_Feb_17_1056,P06,
stim_fb/ques.jpg,stim_fb/negf.jpg,stim_fb/posf.jpg,stim_03/a.jpg,stim_03/b.jpg,2,1,j,2,4,124,11,j,1,0.849802046601,03,03,60.0144578706,PLT_learning_3,A,2014_Feb_17_1056,P06,
stim_fb/ques.jpg,stim_fb/negf.jpg,stim_fb/posf.jpg,stim_03/f.jpg,stim_03/e.jpg,1,3,f,2,5,125,44,f,1,0.966377137014,03,03,60.0144578706,PLT_learning_3,A,2014_Feb_17_1056,P06,
stim_fb/ques.jpg,stim_fb/negf.jpg,stim_fb/posf.jpg,stim_03/c.jpg,stim_03/d.jpg,2,2,j,2,6,126,33,j,1,0.983071976902,03,03,60.0144578706,PLT_learning_3,A,2014_Feb_17_1056,P06,
stim_fb/ques.jpg,stim_fb/posf.jpg,stim_fb/negf.jpg,stim_03/e.jpg,stim_03/f.jpg,2,3,j,2,7,127,58,j,1,1.3162854956,03,03,60.0144578706,PLT_learning_3,A,2014_Feb_17_1056,P06,
stim_fb/ques.jpg,stim_fb/posf.jpg,stim_fb/negf.jpg,stim_03/f.jpg,stim_03/e.jpg,1,3,f,2,8,128,47,f,1,0.78310951647,03,03,60.0144578706,PLT_learning_3,A,2014_Feb_17_1056,P06,
stim_fb/ques.jpg,stim_fb/negf.jpg,stim_fb/posf.jpg,stim_03/d.jpg,stim_03/c.jpg,1,2,f,2,9,129,21,f,1,1.31626604011,03,03,60.0144578706,PLT_learning_3,A,2014_Feb_17_1056,P06,
stim_fb/ques.jpg,stim_fb/posf.jpg,stim_fb/negf.jpg,stim_03/e.jpg,stim_03/f.jpg,2,3,j,2,10,130,57,j,1,0.733296170705,03,03,60.0144578706,PLT_learning_3,A,2014_Feb_17_1056,P06,
stim_fb/ques.jpg,stim_fb/posf.jpg,stim_fb/negf.jpg,stim_03/c.jpg,stim_03/d.jpg,2,2,j,2,11,131,39,j,1,0.716483166292,03,03,60.0144578706,PLT_learning_3,A,2014_Feb_17_1056,P06,
stim_fb/ques.jpg,stim_fb/posf.jpg,stim_fb/negf.jpg,stim_03/a.jpg,stim_03/b.jpg,2,1,j,2,12,132,19,j,1,1.03297724378,03,03,60.0144578706,PLT_learning_3,A,2014_Feb_17_1056,P06,
stim_fb/ques.jpg,stim_fb/posf.jpg,stim_fb/negf.jpg,stim_03/d.jpg,stim_03/c.jpg,1,2,f,2,13,133,27,f,1,0.849767484455,03,03,60.0144578706,PLT_learning_3,A,2014_Feb_17_1056,P06,
stim_fb/ques.jpg,stim_fb/negf.jpg,stim_fb/posf.jpg,stim_03/e.jpg,stim_03/f.jpg,2,3,j,2,14,134,50,j,1,1.43291204427,03,03,60.0144578706,PLT_learning_3,A,2014_Feb_17_1056,P06,
stim_fb/ques.jpg,stim_fb/posf.jpg,stim_fb/negf.jpg,stim_03/a.jpg,stim_03/b.jpg,2,1,j,2,15,135,18,j,1,0.699795619582,03,03,60.0144578706,PLT_learning_3,A,2014_Feb_17_1056,P06,
stim_fb/ques.jpg,stim_fb/negf.jpg,stim_fb/posf.jpg,stim_03/e.jpg,stim_03/f.jpg,2,3,j,2,16,136,54,f,0,0.883078689634,03,03,60.0144578706,PLT_learning_3,A,2014_Feb_17_1056,P06,
stim_fb/ques.jpg,stim_fb/negf.jpg,stim_fb/posf.jpg,stim_03/e.jpg,stim_03/f.jpg,2,3,j,2,17,137,51,j,1,1.24964101022,03,03,60.0144578706,PLT_learning_3,A,2014_Feb_17_1056,P06,
stim_fb/ques.jpg,stim_fb/negf.jpg,stim_fb/posf.jpg,stim_03/b.jpg,stim_03/a.jpg,1,1,f,2,18,138,4,f,1,0.916416679574,03,03,60.0144578706,PLT_learning_3,A,2014_Feb_17_1056,P06,
stim_fb/ques.jpg,stim_fb/negf.jpg,stim_fb/posf.jpg,stim_03/d.jpg,stim_03/c.jpg,1,2,f,2,19,139,22,f,1,0.799780961045,03,03,60.0144578706,PLT_learning_3,A,2014_Feb_17_1056,P06,
stim_fb/ques.jpg,stim_fb/posf.jpg,stim_fb/negf.jpg,stim_03/c.jpg,stim_03/d.jpg,2,2,j,2,20,140,38,j,1,0.716481355779,03,03,60.0144578706,PLT_learning_3,A,2014_Feb_17_1056,P06,
stim_fb/ques.jpg,stim_fb/posf.jpg,stim_fb/negf.jpg,stim_03/f.jpg,stim_03/e.jpg,1,3,f,2,21,141,49,j,0,0.733149702634,03,03,60.0144578706,PLT_learning_3,A,2014_Feb_17_1056,P06,
stim_fb/ques.jpg,stim_fb/negf.jpg,stim_fb/posf.jpg,stim_03/a.jpg,stim_03/b.jpg,2,1,j,2,22,142,13,j,1,0.716497081977,03,03,60.0144578706,PLT_learning_3,A,2014_Feb_17_1056,P06,
stim_fb/ques.jpg,stim_fb/posf.jpg,stim_fb/negf.jpg,stim_03/b.jpg,stim_03/a.jpg,1,1,f,2,23,143,8,f,1,0.883099958647,03,03,60.0144578706,PLT_learning_3,A,2014_Feb_17_1056,P06,
stim_fb/ques.jpg,stim_fb/negf.jpg,stim_fb/posf.jpg,stim_03/e.jpg,stim_03/f.jpg,2,3,j,2,24,144,52,j,1,1.33288471214,03,03,60.0144578706,PLT_learning_3,A,2014_Feb_17_1056,P06,
stim_fb/ques.jpg,stim_fb/negf.jpg,stim_fb/posf.jpg,stim_03/f.jpg,stim_03/e.jpg,1,3,f,2,25,145,45,j,0,1.39961802994,03,03,60.0144578706,PLT_learning_3,A,2014_Feb_17_1056,P06,
stim_fb/ques.jpg,stim_fb/negf.jpg,stim_fb/posf.jpg,stim_03/f.jpg,stim_03/e.jpg,1,3,f,2,26,146,40,f,1,1.16631250893,03,03,60.0144578706,PLT_learning_3,A,2014_Feb_17_1056,P06,
stim_fb/ques.jpg,stim_fb/posf.jpg,stim_fb/negf.jpg,stim_03/e.jpg,stim_03/f.jpg,2,3,j,2,27,147,56,j,1,0.849744131247,03,03,60.0144578706,PLT_learning_3,A,2014_Feb_17_1056,P06,
stim_fb/ques.jpg,stim_fb/negf.jpg,stim_fb/posf.jpg,stim_03/a.jpg,stim_03/b.jpg,2,1,j,2,28,148,14,j,1,1.06636629499,03,03,60.0144578706,PLT_learning_3,A,2014_Feb_17_1056,P06,
stim_fb/ques.jpg,stim_fb/posf.jpg,stim_fb/negf.jpg,stim_03/d.jpg,stim_03/c.jpg,1,2,f,2,29,149,29,f,1,0.833108322494,03,03,60.0144578706,PLT_learning_3,A,2014_Feb_17_1056,P06,
stim_fb/ques.jpg,stim_fb/posf.jpg,stim_fb/negf.jpg,stim_03/e.jpg,stim_03/f.jpg,2,3,j,2,30,150,59,f,0,0.849776672356,03,03,60.0144578706,PLT_learning_3,A,2014_Feb_17_1056,P06,
stim_fb/ques.jpg,stim_fb/posf.jpg,stim_fb/negf.jpg,stim_03/f.jpg,stim_03/e.jpg,1,3,f,2,31,151,46,f,1,1.38291546079,03,03,60.0144578706,PLT_learning_3,A,2014_Feb_17_1056,P06,
stim_fb/ques.jpg,stim_fb/negf.jpg,stim_fb/posf.jpg,stim_03/b.jpg,stim_03/a.jpg,1,1,f,2,32,152,5,j,0,1.34961502846,03,03,60.0144578706,PLT_learning_3,A,2014_Feb_17_1056,P06,
stim_fb/ques.jpg,stim_fb/negf.jpg,stim_fb/posf.jpg,stim_03/e.jpg,stim_03/f.jpg,2,3,j,2,33,153,53,f,0,1.18300839843,03,03,60.0144578706,PLT_learning_3,A,2014_Feb_17_1056,P06,
stim_fb/ques.jpg,stim_fb/negf.jpg,stim_fb/posf.jpg,stim_03/d.jpg,stim_03/c.jpg,1,2,f,2,34,154,20,f,1,1.049685455,03,03,60.0144578706,PLT_learning_3,A,2014_Feb_17_1056,P06,
stim_fb/ques.jpg,stim_fb/negf.jpg,stim_fb/posf.jpg,stim_03/f.jpg,stim_03/e.jpg,1,3,f,2,35,155,41,f,1,1.43287749115,03,03,60.0144578706,PLT_learning_3,A,2014_Feb_17_1056,P06,
stim_fb/ques.jpg,stim_fb/negf.jpg,stim_fb/posf.jpg,stim_03/b.jpg,stim_03/a.jpg,1,1,f,2,36,156,7,f,1,0.78313709521,03,03,60.0144578706,PLT_learning_3,A,2014_Feb_17_1056,P06,
stim_fb/ques.jpg,stim_fb/posf.jpg,stim_fb/negf.jpg,stim_03/c.jpg,stim_03/d.jpg,2,2,j,2,37,157,37,j,1,0.749837297464,03,03,60.0144578706,PLT_learning_3,A,2014_Feb_17_1056,P06,
stim_fb/ques.jpg,stim_fb/negf.jpg,stim_fb/posf.jpg,stim_03/c.jpg,stim_03/d.jpg,2,2,j,2,38,158,30,j,1,1.24964315156,03,03,60.0144578706,PLT_learning_3,A,2014_Feb_17_1056,P06,
stim_fb/ques.jpg,stim_fb/negf.jpg,stim_fb/posf.jpg,stim_03/a.jpg,stim_03/b.jpg,2,1,j,2,39,159,12,j,1,0.699836052361,03,03,60.0144578706,PLT_learning_3,A,2014_Feb_17_1056,P06,
stim_fb/ques.jpg,stim_fb/negf.jpg,stim_fb/posf.jpg,stim_03/e.jpg,stim_03/f.jpg,2,3,j,2,40,160,55,j,1,1.01639116999,03,03,60.0144578706,PLT_learning_3,A,2014_Feb_17_1056,P06,
stim_fb/ques.jpg,stim_fb/negf.jpg,stim_fb/posf.jpg,stim_03/f.jpg,stim_03/e.jpg,1,3,f,2,41,161,42,f,1,0.96641396982,03,03,60.0144578706,PLT_learning_3,A,2014_Feb_17_1056,P06,
stim_fb/ques.jpg,stim_fb/negf.jpg,stim_fb/posf.jpg,stim_03/d.jpg,stim_03/c.jpg,1,2,f,2,42,162,25,f,1,0.799799075195,03,03,60.0144578706,PLT_learning_3,A,2014_Feb_17_1056,P06,
stim_fb/ques.jpg,stim_fb/negf.jpg,stim_fb/posf.jpg,stim_03/b.jpg,stim_03/a.jpg,1,1,f,2,43,163,6,f,1,0.91640407215,03,03,60.0144578706,PLT_learning_3,A,2014_Feb_17_1056,P06,
stim_fb/ques.jpg,stim_fb/negf.jpg,stim_fb/posf.jpg,stim_03/c.jpg,stim_03/d.jpg,2,2,j,2,44,164,36,j,1,0.766406917241,03,03,60.0144578706,PLT_learning_3,A,2014_Feb_17_1056,P06,
stim_fb/ques.jpg,stim_fb/negf.jpg,stim_fb/posf.jpg,stim_03/b.jpg,stim_03/a.jpg,1,1,f,2,45,165,0,f,1,0.783119967519,03,03,60.0144578706,PLT_learning_3,A,2014_Feb_17_1056,P06,
stim_fb/ques.jpg,stim_fb/negf.jpg,stim_fb/posf.jpg,stim_03/c.jpg,stim_03/d.jpg,2,2,j,2,46,166,34,j,1,0.749798687228,03,03,60.0144578706,PLT_learning_3,A,2014_Feb_17_1056,P06,
stim_fb/ques.jpg,stim_fb/negf.jpg,stim_fb/posf.jpg,stim_03/a.jpg,stim_03/b.jpg,2,1,j,2,47,167,15,j,1,0.733100403756,03,03,60.0144578706,PLT_learning_3,A,2014_Feb_17_1056,P06,
stim_fb/ques.jpg,stim_fb/posf.jpg,stim_fb/negf.jpg,stim_03/d.jpg,stim_03/c.jpg,1,2,f,2,48,168,28,f,1,0.733158159713,03,03,60.0144578706,PLT_learning_3,A,2014_Feb_17_1056,P06,
stim_fb/ques.jpg,stim_fb/posf.jpg,stim_fb/negf.jpg,stim_03/b.jpg,stim_03/a.jpg,1,1,f,2,49,169,9,f,1,0.783129483237,03,03,60.0144578706,PLT_learning_3,A,2014_Feb_17_1056,P06,
stim_fb/ques.jpg,stim_fb/negf.jpg,stim_fb/posf.jpg,stim_03/d.jpg,stim_03/c.jpg,1,2,f,2,50,170,24,f,1,0.91641798182,03,03,60.0144578706,PLT_learning_3,A,2014_Feb_17_1056,P06,
stim_fb/ques.jpg,stim_fb/negf.jpg,stim_fb/posf.jpg,stim_03/b.jpg,stim_03/a.jpg,1,1,f,2,51,171,3,f,1,0.983066701754,03,03,60.0144578706,PLT_learning_3,A,2014_Feb_17_1056,P06,
stim_fb/ques.jpg,stim_fb/negf.jpg,stim_fb/posf.jpg,stim_03/c.jpg,stim_03/d.jpg,2,2,j,2,52,172,31,j,1,0.899745216953,03,03,60.0144578706,PLT_learning_3,A,2014_Feb_17_1056,P06,
stim_fb/ques.jpg,stim_fb/negf.jpg,stim_fb/posf.jpg,stim_03/a.jpg,stim_03/b.jpg,2,1,j,2,53,173,10,j,1,0.766464149894,03,03,60.0144578706,PLT_learning_3,A,2014_Feb_17_1056,P06,
stim_fb/ques.jpg,stim_fb/negf.jpg,stim_fb/posf.jpg,stim_03/c.jpg,stim_03/d.jpg,2,2,j,2,54,174,32,j,1,0.999703469899,03,03,60.0144578706,PLT_learning_3,A,2014_Feb_17_1056,P06,
stim_fb/ques.jpg,stim_fb/negf.jpg,stim_fb/posf.jpg,stim_03/b.jpg,stim_03/a.jpg,1,1,f,2,55,175,2,f,1,1.04973923204,03,03,60.0144578706,PLT_learning_3,A,2014_Feb_17_1056,P06,
stim_fb/ques.jpg,stim_fb/negf.jpg,stim_fb/posf.jpg,stim_03/c.jpg,stim_03/d.jpg,2,2,j,2,56,176,35,j,1,1.21630578717,03,03,60.0144578706,PLT_learning_3,A,2014_Feb_17_1056,P06,
stim_fb/ques.jpg,stim_fb/posf.jpg,stim_fb/negf.jpg,stim_03/f.jpg,stim_03/e.jpg,1,3,f,2,57,177,48,f,1,0.999680294133,03,03,60.0144578706,PLT_learning_3,A,2014_Feb_17_1056,P06,
stim_fb/ques.jpg,stim_fb/negf.jpg,stim_fb/posf.jpg,stim_03/d.jpg,stim_03/c.jpg,1,2,f,2,58,178,26,f,1,0.883093979745,03,03,60.0144578706,PLT_learning_3,A,2014_Feb_17_1056,P06,
stim_fb/ques.jpg,stim_fb/negf.jpg,stim_fb/posf.jpg,stim_03/a.jpg,stim_03/b.jpg,2,1,j,2,59,179,17,j,1,0.849786371531,03,03,60.0144578706,PLT_learning_3,A,2014_Feb_17_1056,P06,
stim_fb/ques.jpg,stim_fb/negf.jpg,stim_fb/posf.jpg,stim_03/a.jpg,stim_03/b.jpg,2,1,j,3,0,180,15,j,1,0.866433927564,03,03,60.0144578706,PLT_learning_3,A,2014_Feb_17_1056,P06,
stim_fb/ques.jpg,stim_fb/negf.jpg,stim_fb/posf.jpg,stim_03/e.jpg,stim_03/f.jpg,2,3,j,3,1,181,52,f,0,1.06634913422,03,03,60.0144578706,PLT_learning_3,A,2014_Feb_17_1056,P06,
stim_fb/ques.jpg,stim_fb/negf.jpg,stim_fb/posf.jpg,stim_03/c.jpg,stim_03/d.jpg,2,2,j,3,2,182,32,j,1,0.699816416418,03,03,60.0144578706,PLT_learning_3,A,2014_Feb_17_1056,P06,
stim_fb/ques.jpg,stim_fb/posf.jpg,stim_fb/negf.jpg,stim_03/e.jpg,stim_03/f.jpg,2,3,j,3,3,183,57,f,0,0.849759929625,03,03,60.0144578706,PLT_learning_3,A,2014_Feb_17_1056,P06,
stim_fb/ques.jpg,stim_fb/negf.jpg,stim_fb/posf.jpg,stim_03/d.jpg,stim_03/c.jpg,1,2,f,3,4,184,24,f,1,1.23294036586,03,03,60.0144578706,PLT_learning_3,A,2014_Feb_17_1056,P06,
stim_fb/ques.jpg,stim_fb/negf.jpg,stim_fb/posf.jpg,stim_03/b.jpg,stim_03/a.jpg,1,1,f,3,5,185,0,f,1,0.99974985752,03,03,60.0144578706,PLT_learning_3,A,2014_Feb_17_1056,P06,
stim_fb/ques.jpg,stim_fb/negf.jpg,stim_fb/posf.jpg,stim_03/e.jpg,stim_03/f.jpg,2,3,j,3,6,186,53,f,0,0.866427271976,03,03,60.0144578706,PLT_learning_3,A,2014_Feb_17_1056,P06,
stim_fb/ques.jpg,stim_fb/negf.jpg,stim_fb/posf.jpg,stim_03/e.jpg,stim_03/f.jpg,2,3,j,3,7,187,50,f,0,0.983061715325,03,03,60.0144578706,PLT_learning_3,A,2014_Feb_17_1056,P06,
stim_fb/ques.jpg,stim_fb/posf.jpg,stim_fb/negf.jpg,stim_03/e.jpg,stim_03/f.jpg,2,3,j,3,8,188,59,None,0,,03,03,60.0144578706,PLT_learning_3,A,2014_Feb_17_1056,P06,
stim_fb/ques.jpg,stim_fb/negf.jpg,stim_fb/posf.jpg,stim_03/b.jpg,stim_03/a.jpg,1,1,f,3,9,189,3,f,1,0.83311736002,03,03,60.0144578706,PLT_learning_3,A,2014_Feb_17_1056,P06,
stim_fb/ques.jpg,stim_fb/negf.jpg,stim_fb/posf.jpg,stim_03/d.jpg,stim_03/c.jpg,1,2,f,3,10,190,21,f,1,0.783122638175,03,03,60.0144578706,PLT_learning_3,A,2014_Feb_17_1056,P06,
stim_fb/ques.jpg,stim_fb/negf.jpg,stim_fb/posf.jpg,stim_03/b.jpg,stim_03/a.jpg,1,1,f,3,11,191,6,f,1,0.583192745919,03,03,60.0144578706,PLT_learning_3,A,2014_Feb_17_1056,P06,
stim_fb/ques.jpg,stim_fb/negf.jpg,stim_fb/posf.jpg,stim_03/b.jpg,stim_03/a.jpg,1,1,f,3,12,192,4,f,1,0.616514474327,03,03,60.0144578706,PLT_learning_3,A,2014_Feb_17_1056,P06,
stim_fb/ques.jpg,stim_fb/posf.jpg,stim_fb/negf.jpg,stim_03/c.jpg,stim_03/d.jpg,2,2,j,3,13,193,37,j,1,0.68315307103,03,03,60.0144578706,PLT_learning_3,A,2014_Feb_17_1056,P06,
stim_fb/ques.jpg,stim_fb/negf.jpg,stim_fb/posf.jpg,stim_03/f.jpg,stim_03/e.jpg,1,3,f,3,14,194,43,j,0,0.833111008188,03,03,60.0144578706,PLT_learning_3,A,2014_Feb_17_1056,P06,
stim_fb/ques.jpg,stim_fb/posf.jpg,stim_fb/negf.jpg,stim_03/d.jpg,stim_03/c.jpg,1,2,f,3,15,195,27,f,1,0.933072776897,03,03,60.0144578706,PLT_learning_3,A,2014_Feb_17_1056,P06,
stim_fb/ques.jpg,stim_fb/negf.jpg,stim_fb/posf.jpg,stim_03/f.jpg,stim_03/e.jpg,1,3,f,3,16,196,42,j,0,0.916417079571,03,03,60.0144578706,PLT_learning_3,A,2014_Feb_17_1056,P06,
stim_fb/ques.jpg,stim_fb/posf.jpg,stim_fb/negf.jpg,stim_03/a.jpg,stim_03/b.jpg,2,1,j,3,17,197,19,j,1,0.866430423831,03,03,60.0144578706,PLT_learning_3,A,2014_Feb_17_1056,P06,
stim_fb/ques.jpg,stim_fb/posf.jpg,stim_fb/negf.jpg,stim_03/e.jpg,stim_03/f.jpg,2,3,j,3,18,198,56,j,1,0.883079119706,03,03,60.0144578706,PLT_learning_3,A,2014_Feb_17_1056,P06,
stim_fb/ques.jpg,stim_fb/negf.jpg,stim_fb/posf.jpg,stim_03/e.jpg,stim_03/f.jpg,2,3,j,3,19,199,55,j,1,1.21630112556,03,03,60.0144578706,PLT_learning_3,A,2014_Feb_17_1056,P06,
stim_fb/ques.jpg,stim_fb/negf.jpg,stim_fb/posf.jpg,stim_03/c.jpg,stim_03/d.jpg,2,2,j,3,20,200,36,j,1,0.749828163698,03,03,60.0144578706,PLT_learning_3,A,2014_Feb_17_1056,P06,
stim_fb/ques.jpg,stim_fb/posf.jpg,stim_fb/negf.jpg,stim_03/c.jpg,stim_03/d.jpg,2,2,j,3,21,201,38,j,1,0.816415551763,03,03,60.0144578706,PLT_learning_3,A,2014_Feb_17_1056,P06,
stim_fb/ques.jpg,stim_fb/posf.jpg,stim_fb/negf.jpg,stim_03/a.jpg,stim_03/b.jpg,2,1,j,3,22,202,18,j,1,0.783117510395,03,03,60.0144578706,PLT_learning_3,A,2014_Feb_17_1056,P06,
stim_fb/ques.jpg,stim_fb/negf.jpg,stim_fb/posf.jpg,stim_03/c.jpg,stim_03/d.jpg,2,2,j,3,23,203,34,j,1,0.749797496259,03,03,60.0144578706,PLT_learning_3,A,2014_Feb_17_1056,P06,
stim_fb/ques.jpg,stim_fb/negf.jpg,stim_fb/posf.jpg,stim_03/a.jpg,stim_03/b.jpg,2,1,j,3,24,204,14,j,1,0.549813977338,03,03,60.0144578706,PLT_learning_3,A,2014_Feb_17_1056,P06,
stim_fb/ques.jpg,stim_fb/negf.jpg,stim_fb/posf.jpg,stim_03/f.jpg,stim_03/e.jpg,1,3,f,3,25,205,40,f,1,0.916425629882,03,03,60.0144578706,PLT_learning_3,A,2014_Feb_17_1056,P06,
stim_fb/ques.jpg,stim_fb/posf.jpg,stim_fb/negf.jpg,stim_03/f.jpg,stim_03/e.jpg,1,3,f,3,26,206,46,f,1,0.883076307697,03,03,60.0144578706,PLT_learning_3,A,2014_Feb_17_1056,P06,
stim_fb/ques.jpg,stim_fb/negf.jpg,stim_fb/posf.jpg,stim_03/a.jpg,stim_03/b.jpg,2,1,j,3,27,207,12,j,1,1.23297207089,03,03,60.0144578706,PLT_learning_3,A,2014_Feb_17_1056,P06,
stim_fb/ques.jpg,stim_fb/posf.jpg,stim_fb/negf.jpg,stim_03/b.jpg,stim_03/a.jpg,1,1,f,3,28,208,9,j,0,1.21631029541,03,03,60.0144578706,PLT_learning_3,A,2014_Feb_17_1056,P06,
stim_fb/ques.jpg,stim_fb/negf.jpg,stim_fb/posf.jpg,stim_03/a.jpg,stim_03/b.jpg,2,1,j,3,29,209,13,j,1,0.966502026301,03,03,60.0144578706,PLT_learning_3,A,2014_Feb_17_1056,P06,
stim_fb/ques.jpg,stim_fb/negf.jpg,stim_fb/posf.jpg,stim_03/b.jpg,stim_03/a.jpg,1,1,f,3,30,210,5,f,1,0.549954304103,03,03,60.0144578706,PLT_learning_3,A,2014_Feb_17_1056,P06,
stim_fb/ques.jpg,stim_fb/negf.jpg,stim_fb/posf.jpg,stim_03/b.jpg,stim_03/a.jpg,1,1,f,3,31,211,7,f,1,0.883119850227,03,03,60.0144578706,PLT_learning_3,A,2014_Feb_17_1056,P06,
stim_fb/ques.jpg,stim_fb/negf.jpg,stim_fb/posf.jpg,stim_03/c.jpg,stim_03/d.jpg,2,2,j,3,32,212,31,j,1,0.849757502575,03,03,60.0144578706,PLT_learning_3,A,2014_Feb_17_1056,P06,
stim_fb/ques.jpg,stim_fb/posf.jpg,stim_fb/negf.jpg,stim_03/d.jpg,stim_03/c.jpg,1,2,f,3,33,213,29,f,1,1.01638547981,03,03,60.0144578706,PLT_learning_3,A,2014_Feb_17_1056,P06,
stim_fb/ques.jpg,stim_fb/negf.jpg,stim_fb/posf.jpg,stim_03/a.jpg,stim_03/b.jpg,2,1,j,3,34,214,16,j,1,0.916450357516,03,03,60.0144578706,PLT_learning_3,A,2014_Feb_17_1056,P06,
stim_fb/ques.jpg,stim_fb/negf.jpg,stim_fb/posf.jpg,stim_03/f.jpg,stim_03/e.jpg,1,3,f,3,35,215,44,j,0,1.33293868467,03,03,60.0144578706,PLT_learning_3,A,2014_Feb_17_1056,P06,
stim_fb/ques.jpg,stim_fb/negf.jpg,stim_fb/posf.jpg,stim_03/d.jpg,stim_03/c.jpg,1,2,f,3,36,216,26,f,1,1.06632695393,03,03,60.0144578706,PLT_learning_3,A,2014_Feb_17_1056,P06,
stim_fb/ques.jpg,stim_fb/negf.jpg,stim_fb/posf.jpg,stim_03/d.jpg,stim_03/c.jpg,1,2,f,3,37,217,25,f,1,0.949754877031,03,03,60.0144578706,PLT_learning_3,A,2014_Feb_17_1056,P06,
stim_fb/ques.jpg,stim_fb/negf.jpg,stim_fb/posf.jpg,stim_03/f.jpg,stim_03/e.jpg,1,3,f,3,38,218,41,f,1,1.36625967925,03,03,60.0144578706,PLT_learning_3,A,2014_Feb_17_1056,P06,
stim_fb/ques.jpg,stim_fb/posf.jpg,stim_fb/negf.jpg,stim_03/f.jpg,stim_03/e.jpg,1,3,f,3,39,219,48,f,1,1.16629220231,03,03,60.0144578706,PLT_learning_3,A,2014_Feb_17_1056,P06,
stim_fb/ques.jpg,stim_fb/posf.jpg,stim_fb/negf.jpg,stim_03/b.jpg,stim_03/a.jpg,1,1,f,3,40,220,8,f,1,0.766480643003,03,03,60.0144578706,PLT_learning_3,A,2014_Feb_17_1056,P06,
stim_fb/ques.jpg,stim_fb/posf.jpg,stim_fb/negf.jpg,stim_03/f.jpg,stim_03/e.jpg,1,3,f,3,41,221,47,None,0,,03,03,60.0144578706,PLT_learning_3,A,2014_Feb_17_1056,P06,
stim_fb/ques.jpg,stim_fb/negf.jpg,stim_fb/posf.jpg,stim_03/e.jpg,stim_03/f.jpg,2,3,j,3,42,222,51,j,1,0.899739105721,03,03,60.0144578706,PLT_learning_3,A,2014_Feb_17_1056,P06,
stim_fb/ques.jpg,stim_fb/posf.jpg,stim_fb/negf.jpg,stim_03/c.jpg,stim_03/d.jpg,2,2,j,3,43,223,39,j,1,0.666511400666,03,03,60.0144578706,PLT_learning_3,A,2014_Feb_17_1056,P06,
stim_fb/ques.jpg,stim_fb/negf.jpg,stim_fb/posf.jpg,stim_03/a.jpg,stim_03/b.jpg,2,1,j,3,44,224,11,j,1,0.799782290359,03,03,60.0144578706,PLT_learning_3,A,2014_Feb_17_1056,P06,
stim_fb/ques.jpg,stim_fb/negf.jpg,stim_fb/posf.jpg,stim_03/e.jpg,stim_03/f.jpg,2,3,j,3,45,225,54,f,0,0.883114283351,03,03,60.0144578706,PLT_learning_3,A,2014_Feb_17_1056,P06,
stim_fb/ques.jpg,stim_fb/posf.jpg,stim_fb/negf.jpg,stim_03/f.jpg,stim_03/e.jpg,1,3,f,3,46,226,49,j,0,0.883087197841,03,03,60.0144578706,PLT_learning_3,A,2014_Feb_17_1056,P06,
stim_fb/ques.jpg,stim_fb/negf.jpg,stim_fb/posf.jpg,stim_03/b.jpg,stim_03/a.jpg,1,1,f,3,47,227,2,j,0,0.916478372343,03,03,60.0144578706,PLT_learning_3,A,2014_Feb_17_1056,P06,
stim_fb/ques.jpg,stim_fb/negf.jpg,stim_fb/posf.jpg,stim_03/c.jpg,stim_03/d.jpg,2,2,j,3,48,228,30,j,1,0.683153678544,03,03,60.0144578706,PLT_learning_3,A,2014_Feb_17_1056,P06,
stim_fb/ques.jpg,stim_fb/posf.jpg,stim_fb/negf.jpg,stim_03/e.jpg,stim_03/f.jpg,2,3,j,3,49,229,58,j,1,1.04970139172,03,03,60.0144578706,PLT_learning_3,A,2014_Feb_17_1056,P06,
stim_fb/ques.jpg,stim_fb/negf.jpg,stim_fb/posf.jpg,stim_03/d.jpg,stim_03/c.jpg,1,2,f,3,50,230,22,f,1,0.933086412884,03,03,60.0144578706,PLT_learning_3,A,2014_Feb_17_1056,P06,
stim_fb/ques.jpg,stim_fb/negf.jpg,stim_fb/posf.jpg,stim_03/d.jpg,stim_03/c.jpg,1,2,f,3,51,231,23,f,1,0.93306850926,03,03,60.0144578706,PLT_learning_3,A,2014_Feb_17_1056,P06,
stim_fb/ques.jpg,stim_fb/negf.jpg,stim_fb/posf.jpg,stim_03/a.jpg,stim_03/b.jpg,2,1,j,3,52,232,10,j,1,0.766446556041,03,03,60.0144578706,PLT_learning_3,A,2014_Feb_17_1056,P06,
stim_fb/ques.jpg,stim_fb/negf.jpg,stim_fb/posf.jpg,stim_03/f.jpg,stim_03/e.jpg,1,3,f,3,53,233,45,f,1,0.883102963136,03,03,60.0144578706,PLT_learning_3,A,2014_Feb_17_1056,P06,
stim_fb/ques.jpg,stim_fb/negf.jpg,stim_fb/posf.jpg,stim_03/c.jpg,stim_03/d.jpg,2,2,j,3,54,234,33,j,1,0.666558904068,03,03,60.0144578706,PLT_learning_3,A,2014_Feb_17_1056,P06,
stim_fb/ques.jpg,stim_fb/posf.jpg,stim_fb/negf.jpg,stim_03/d.jpg,stim_03/c.jpg,1,2,f,3,55,235,28,f,1,1.18299099706,03,03,60.0144578706,PLT_learning_3,A,2014_Feb_17_1056,P06,
stim_fb/ques.jpg,stim_fb/negf.jpg,stim_fb/posf.jpg,stim_03/a.jpg,stim_03/b.jpg,2,1,j,3,56,236,17,j,1,0.916386165518,03,03,60.0144578706,PLT_learning_3,A,2014_Feb_17_1056,P06,
stim_fb/ques.jpg,stim_fb/negf.jpg,stim_fb/posf.jpg,stim_03/b.jpg,stim_03/a.jpg,1,1,f,3,57,237,1,f,1,0.799773403207,03,03,60.0144578706,PLT_learning_3,A,2014_Feb_17_1056,P06,
stim_fb/ques.jpg,stim_fb/negf.jpg,stim_fb/posf.jpg,stim_03/c.jpg,stim_03/d.jpg,2,2,j,3,58,238,35,j,1,0.649839237299,03,03,60.0144578706,PLT_learning_3,A,2014_Feb_17_1056,P06,
stim_fb/ques.jpg,stim_fb/negf.jpg,stim_fb/posf.jpg,stim_03/d.jpg,stim_03/c.jpg,1,2,f,3,59,239,20,f,1,0.916491232396,03,03,60.0144578706,PLT_learning_3,A,2014_Feb_17_1056,P06,
stim_fb/ques.jpg,stim_fb/posf.jpg,stim_fb/negf.jpg,stim_03/e.jpg,stim_03/f.jpg,2,3,j,4,0,240,57,f,0,1.21637027391,03,03,60.0144578706,PLT_learning_3,A,2014_Feb_17_1056,P06,
stim_fb/ques.jpg,stim_fb/negf.jpg,stim_fb/posf.jpg,stim_03/f.jpg,stim_03/e.jpg,1,3,f,4,1,241,42,f,1,1.01637767235,03,03,60.0144578706,PLT_learning_3,A,2014_Feb_17_1056,P06,
stim_fb/ques.jpg,stim_fb/negf.jpg,stim_fb/posf.jpg,stim_03/f.jpg,stim_03/e.jpg,1,3,f,4,2,242,45,f,1,1.11632699303,03,03,60.0144578706,PLT_learning_3,A,2014_Feb_17_1056,P06,
stim_fb/ques.jpg,stim_fb/posf.jpg,stim_fb/negf.jpg,stim_03/d.jpg,stim_03/c.jpg,1,2,f,4,3,243,29,f,1,0.98306011233,03,03,60.0144578706,PLT_learning_3,A,2014_Feb_17_1056,P06,
stim_fb/ques.jpg,stim_fb/negf.jpg,stim_fb/posf.jpg,stim_03/c.jpg,stim_03/d.jpg,2,2,j,4,4,244,35,j,1,0.966401058638,03,03,60.0144578706,PLT_learning_3,A,2014_Feb_17_1056,P06,
stim_fb/ques.jpg,stim_fb/negf.jpg,stim_fb/posf.jpg,stim_03/b.jpg,stim_03/a.jpg,1,1,f,4,5,245,3,f,1,0.666498754144,03,03,60.0144578706,PLT_learning_3,A,2014_Feb_17_1056,P06,
stim_fb/ques.jpg,stim_fb/posf.jpg,stim_fb/negf.jpg,stim_03/f.jpg,stim_03/e.jpg,1,3,f,4,6,246,46,j,0,1.21630642176,03,03,60.0144578706,PLT_learning_3,A,2014_Feb_17_1056,P06,
stim_fb/ques.jpg,stim_fb/negf.jpg,stim_fb/posf.jpg,stim_03/a.jpg,stim_03/b.jpg,2,1,j,4,7,247,12,j,1,0.766477388892,03,03,60.0144578706,PLT_learning_3,A,2014_Feb_17_1056,P06,
stim_fb/ques.jpg,stim_fb/posf.jpg,stim_fb/negf.jpg,stim_03/f.jpg,stim_03/e.jpg,1,3,f,4,8,248,48,j,0,0.849786717393,03,03,60.0144578706,PLT_learning_3,A,2014_Feb_17_1056,P06,
stim_fb/ques.jpg,stim_fb/negf.jpg,stim_fb/posf.jpg,stim_03/c.jpg,stim_03/d.jpg,2,2,j,4,9,249,30,j,1,0.666510561575,03,03,60.0144578706,PLT_learning_3,A,2014_Feb_17_1056,P06,
stim_fb/ques.jpg,stim_fb/posf.jpg,stim_fb/negf.jpg,stim_03/f.jpg,stim_03/e.jpg,1,3,f,4,10,250,49,f,1,1.19960618642,03,03,60.0144578706,PLT_learning_3,A,2014_Feb_17_1056,P06,
stim_fb/ques.jpg,stim_fb/negf.jpg,stim_fb/posf.jpg,stim_03/d.jpg,stim_03/c.jpg,1,2,f,4,11,251,24,f,1,0.899909438275,03,03,60.0144578706,PLT_learning_3,A,2014_Feb_17_1056,P06,
stim_fb/ques.jpg,stim_fb/negf.jpg,stim_fb/posf.jpg,stim_03/d.jpg,stim_03/c.jpg,1,2,f,4,12,252,25,f,1,0.866440871873,03,03,60.0144578706,PLT_learning_3,A,2014_Feb_17_1056,P06,
stim_fb/ques.jpg,stim_fb/negf.jpg,stim_fb/posf.jpg,stim_03/d.jpg,stim_03/c.jpg,1,2,f,4,13,253,21,f,1,0.816481217434,03,03,60.0144578706,PLT_learning_3,A,2014_Feb_17_1056,P06,
stim_fb/ques.jpg,stim_fb/negf.jpg,stim_fb/posf.jpg,stim_03/c.jpg,stim_03/d.jpg,2,2,j,4,14,254,31,j,1,0.69983082834,03,03,60.0144578706,PLT_learning_3,A,2014_Feb_17_1056,P06,
stim_fb/ques.jpg,stim_fb/negf.jpg,stim_fb/posf.jpg,stim_03/a.jpg,stim_03/b.jpg,2,1,j,4,15,255,10,j,1,0.849772224269,03,03,60.0144578706,PLT_learning_3,A,2014_Feb_17_1056,P06,
stim_fb/ques.jpg,stim_fb/posf.jpg,stim_fb/negf.jpg,stim_03/b.jpg,stim_03/a.jpg,1,1,f,4,16,256,9,f,1,0.649817580319,03,03,60.0144578706,PLT_learning_3,A,2014_Feb_17_1056,P06,
stim_fb/ques.jpg,stim_fb/negf.jpg,stim_fb/posf.jpg,stim_03/f.jpg,stim_03/e.jpg,1,3,f,4,17,257,41,j,0,0.883079627973,03,03,60.0144578706,PLT_learning_3,A,2014_Feb_17_1056,P06,
stim_fb/ques.jpg,stim_fb/posf.jpg,stim_fb/negf.jpg,stim_03/d.jpg,stim_03/c.jpg,1,2,f,4,18,258,27,f,1,0.683167434831,03,03,60.0144578706,PLT_learning_3,A,2014_Feb_17_1056,P06,
stim_fb/ques.jpg,stim_fb/negf.jpg,stim_fb/posf.jpg,stim_03/b.jpg,stim_03/a.jpg,1,1,f,4,19,259,0,f,1,0.616383979067,03,03,60.0144578706,PLT_learning_3,A,2014_Feb_17_1056,P06,
stim_fb/ques.jpg,stim_fb/negf.jpg,stim_fb/posf.jpg,stim_03/b.jpg,stim_03/a.jpg,1,1,f,4,20,260,4,f,1,0.499851471794,03,03,60.0144578706,PLT_learning_3,A,2014_Feb_17_1056,P06,
stim_fb/ques.jpg,stim_fb/negf.jpg,stim_fb/posf.jpg,stim_03/b.jpg,stim_03/a.jpg,1,1,f,4,21,261,1,f,1,0.54986407621,03,03,60.0144578706,PLT_learning_3,A,2014_Feb_17_1056,P06,
stim_fb/ques.jpg,stim_fb/negf.jpg,stim_fb/posf.jpg,stim_03/d.jpg,stim_03/c.jpg,1,2,f,4,22,262,20,f,1,0.749803351855,03,03,60.0144578706,PLT_learning_3,A,2014_Feb_17_1056,P06,
stim_fb/ques.jpg,stim_fb/negf.jpg,stim_fb/posf.jpg,stim_03/a.jpg,stim_03/b.jpg,2,1,j,4,23,263,11,j,1,0.649843513958,03,03,60.0144578706,PLT_learning_3,A,2014_Feb_17_1056,P06,
stim_fb/ques.jpg,stim_fb/negf.jpg,stim_fb/posf.jpg,stim_03/e.jpg,stim_03/f.jpg,2,3,j,4,24,264,54,j,1,0.849769192713,03,03,60.0144578706,PLT_learning_3,A,2014_Feb_17_1056,P06,
stim_fb/ques.jpg,stim_fb/negf.jpg,stim_fb/posf.jpg,stim_03/d.jpg,stim_03/c.jpg,1,2,f,4,25,265,26,f,1,0.999753968767,03,03,60.0144578706,PLT_learning_3,A,2014_Feb_17_1056,P06,
stim_fb/ques.jpg,stim_fb/negf.jpg,stim_fb/posf.jpg,stim_03/c.jpg,stim_03/d.jpg,2,2,j,4,26,266,34,j,1,0.716495737626,03,03,60.0144578706,PLT_learning_3,A,2014_Feb_17_1056,P06,
stim_fb/ques.jpg,stim_fb/negf.jpg,stim_fb/posf.jpg,stim_03/c.jpg,stim_03/d.jpg,2,2,j,4,27,267,32,j,1,0.799751595853,03,03,60.0144578706,PLT_learning_3,A,2014_Feb_17_1056,P06,
stim_fb/ques.jpg,stim_fb/posf.jpg,stim_fb/negf.jpg,stim_03/a.jpg,stim_03/b.jpg,2,1,j,4,28,268,19,j,1,0.79977773701,03,03,60.0144578706,PLT_learning_3,A,2014_Feb_17_1056,P06,
stim_fb/ques.jpg,stim_fb/posf.jpg,stim_fb/negf.jpg,stim_03/e.jpg,stim_03/f.jpg,2,3,j,4,29,269,58,f,0,0.916430032857,03,03,60.0144578706,PLT_learning_3,A,2014_Feb_17_1056,P06,
stim_fb/ques.jpg,stim_fb/posf.jpg,stim_fb/negf.jpg,stim_03/c.jpg,stim_03/d.jpg,2,2,j,4,30,270,37,j,1,0.816442345546,03,03,60.0144578706,PLT_learning_3,A,2014_Feb_17_1056,P06,
stim_fb/ques.jpg,stim_fb/posf.jpg,stim_fb/negf.jpg,stim_03/d.jpg,stim_03/c.jpg,1,2,f,4,31,271,28,f,1,0.699833634334,03,03,60.0144578706,PLT_learning_3,A,2014_Feb_17_1056,P06,
stim_fb/ques.jpg,stim_fb/posf.jpg,stim_fb/negf.jpg,stim_03/e.jpg,stim_03/f.jpg,2,3,j,4,32,272,59,j,1,0.833096033864,03,03,60.0144578706,PLT_learning_3,A,2014_Feb_17_1056,P06,
stim_fb/ques.jpg,stim_fb/negf.jpg,stim_fb/posf.jpg,stim_03/a.jpg,stim_03/b.jpg,2,1,j,4,33,273,17,j,1,0.61653982752,03,03,60.0144578706,PLT_learning_3,A,2014_Feb_17_1056,P06,
stim_fb/ques.jpg,stim_fb/negf.jpg,stim_fb/posf.jpg,stim_03/e.jpg,stim_03/f.jpg,2,3,j,4,34,274,53,j,1,1.19967565056,03,03,60.0144578706,PLT_learning_3,A,2014_Feb_17_1056,P06,
stim_fb/ques.jpg,stim_fb/negf.jpg,stim_fb/posf.jpg,stim_03/d.jpg,stim_03/c.jpg,1,2,f,4,35,275,23,f,1,0.79977358065,03,03,60.0144578706,PLT_learning_3,A,2014_Feb_17_1056,P06,
stim_fb/ques.jpg,stim_fb/negf.jpg,stim_fb/posf.jpg,stim_03/c.jpg,stim_03/d.jpg,2,2,j,4,36,276,36,j,1,0.733145895144,03,03,60.0144578706,PLT_learning_3,A,2014_Feb_17_1056,P06,
stim_fb/ques.jpg,stim_fb/negf.jpg,stim_fb/posf.jpg,stim_03/a.jpg,stim_03/b.jpg,2,1,j,4,37,277,14,j,1,0.933051613146,03,03,60.0144578706,PLT_learning_3,A,2014_Feb_17_1056,P06,
stim_fb/ques.jpg,stim_fb/posf.jpg,stim_fb/negf.jpg,stim_03/f.jpg,stim_03/e.jpg,1,3,f,4,38,278,47,f,1,0.949770828791,03,03,60.0144578706,PLT_learning_3,A,2014_Feb_17_1056,P06,
stim_fb/ques.jpg,stim_fb/negf.jpg,stim_fb/posf.jpg,stim_03/b.jpg,stim_03/a.jpg,1,1,f,4,39,279,5,f,1,0.849780479846,03,03,60.0144578706,PLT_learning_3,A,2014_Feb_17_1056,P06,
stim_fb/ques.jpg,stim_fb/negf.jpg,stim_fb/posf.jpg,stim_03/a.jpg,stim_03/b.jpg,2,1,j,4,40,280,16,j,1,0.666528711814,03,03,60.0144578706,PLT_learning_3,A,2014_Feb_17_1056,P06,
stim_fb/ques.jpg,stim_fb/negf.jpg,stim_fb/posf.jpg,stim_03/b.jpg,stim_03/a.jpg,1,1,f,4,41,281,6,f,1,0.966383431703,03,03,60.0144578706,PLT_learning_3,A,2014_Feb_17_1056,P06,
stim_fb/ques.jpg,stim_fb/posf.jpg,stim_fb/negf.jpg,stim_03/e.jpg,stim_03/f.jpg,2,3,j,4,42,282,56,j,1,1.04971612845,03,03,60.0144578706,PLT_learning_3,A,2014_Feb_17_1056,P06,
stim_fb/ques.jpg,stim_fb/negf.jpg,stim_fb/posf.jpg,stim_03/e.jpg,stim_03/f.jpg,2,3,j,4,43,283,51,f,0,1.41625466876,03,03,60.0144578706,PLT_learning_3,A,2014_Feb_17_1056,P06,
stim_fb/ques.jpg,stim_fb/negf.jpg,stim_fb/posf.jpg,stim_03/f.jpg,stim_03/e.jpg,1,3,f,4,44,284,40,j,0,1.23297717761,03,03,60.0144578706,PLT_learning_3,A,2014_Feb_17_1056,P06,
stim_fb/ques.jpg,stim_fb/posf.jpg,stim_fb/negf.jpg,stim_03/c.jpg,stim_03/d.jpg,2,2,j,4,45,285,38,j,1,1.23296483786,03,03,60.0144578706,PLT_learning_3,A,2014_Feb_17_1056,P06,
stim_fb/ques.jpg,stim_fb/negf.jpg,stim_fb/posf.jpg,stim_03/a.jpg,stim_03/b.jpg,2,1,j,4,46,286,13,j,1,0.766476988895,03,03,60.0144578706,PLT_learning_3,A,2014_Feb_17_1056,P06,
stim_fb/ques.jpg,stim_fb/posf.jpg,stim_fb/negf.jpg,stim_03/c.jpg,stim_03/d.jpg,2,2,j,4,47,287,39,j,1,0.766457566484,03,03,60.0144578706,PLT_learning_3,A,2014_Feb_17_1056,P06,
stim_fb/ques.jpg,stim_fb/negf.jpg,stim_fb/posf.jpg,stim_03/e.jpg,stim_03/f.jpg,2,3,j,4,48,288,50,j,1,1.3329057586,03,03,60.0144578706,PLT_learning_3,A,2014_Feb_17_1056,P06,
stim_fb/ques.jpg,stim_fb/negf.jpg,stim_fb/posf.jpg,stim_03/f.jpg,stim_03/e.jpg,1,3,f,4,49,289,43,j,0,0.999747183856,03,03,60.0144578706,PLT_learning_3,A,2014_Feb_17_1056,P06,
stim_fb/ques.jpg,stim_fb/negf.jpg,stim_fb/posf.jpg,stim_03/a.jpg,stim_03/b.jpg,2,1,j,4,50,290,15,j,1,0.699835962136,03,03,60.0144578706,PLT_learning_3,A,2014_Feb_17_1056,P06,
stim_fb/ques.jpg,stim_fb/negf.jpg,stim_fb/posf.jpg,stim_03/c.jpg,stim_03/d.jpg,2,2,j,4,51,291,33,j,1,0.716476405441,03,03,60.0144578706,PLT_learning_3,A,2014_Feb_17_1056,P06,
stim_fb/ques.jpg,stim_fb/posf.jpg,stim_fb/negf.jpg,stim_03/a.jpg,stim_03/b.jpg,2,1,j,4,52,292,18,j,1,0.533200824054,03,03,60.0144578706,PLT_learning_3,A,2014_Feb_17_1056,P06,
stim_fb/ques.jpg,stim_fb/posf.jpg,stim_fb/negf.jpg,stim_03/b.jpg,stim_03/a.jpg,1,1,f,4,53,293,8,f,1,0.733094566207,03,03,60.0144578706,PLT_learning_3,A,2014_Feb_17_1056,P06,
stim_fb/ques.jpg,stim_fb/negf.jpg,stim_fb/posf.jpg,stim_03/e.jpg,stim_03/f.jpg,2,3,j,4,54,294,55,f,0,1.16635932361,03,03,60.0144578706,PLT_learning_3,A,2014_Feb_17_1056,P06,
stim_fb/ques.jpg,stim_fb/negf.jpg,stim_fb/posf.jpg,stim_03/f.jpg,stim_03/e.jpg,1,3,f,4,55,295,44,f,1,0.966417593853,03,03,60.0144578706,PLT_learning_3,A,2014_Feb_17_1056,P06,
stim_fb/ques.jpg,stim_fb/negf.jpg,stim_fb/posf.jpg,stim_03/d.jpg,stim_03/c.jpg,1,2,f,4,56,296,22,f,1,1.49955820483,03,03,60.0144578706,PLT_learning_3,A,2014_Feb_17_1056,P06,
stim_fb/ques.jpg,stim_fb/negf.jpg,stim_fb/posf.jpg,stim_03/b.jpg,stim_03/a.jpg,1,1,f,4,57,297,2,f,1,0.84975182743,03,03,60.0144578706,PLT_learning_3,A,2014_Feb_17_1056,P06,
stim_fb/ques.jpg,stim_fb/negf.jpg,stim_fb/posf.jpg,stim_03/b.jpg,stim_03/a.jpg,1,1,f,4,58,298,7,f,1,0.566537403478,03,03,60.0144578706,PLT_learning_3,A,2014_Feb_17_1056,P06,
stim_fb/ques.jpg,stim_fb/negf.jpg,stim_fb/posf.jpg,stim_03/e.jpg,stim_03/f.jpg,2,3,j,4,59,299,52,j,1,0.883054127412,03,03,60.0144578706,PLT_learning_3,A,2014_Feb_17_1056,P06,
stim_fb/ques.jpg,stim_fb/negf.jpg,stim_fb/posf.jpg,stim_03/a.jpg,stim_03/b.jpg,2,1,j,5,0,300,10,j,1,0.78315068007,03,03,60.0144578706,PLT_learning_3,A,2014_Feb_17_1056,P06,
stim_fb/ques.jpg,stim_fb/posf.jpg,stim_fb/negf.jpg,stim_03/d.jpg,stim_03/c.jpg,1,2,f,5,1,301,27,f,1,0.949717445734,03,03,60.0144578706,PLT_learning_3,A,2014_Feb_17_1056,P06,
stim_fb/ques.jpg,stim_fb/posf.jpg,stim_fb/negf.jpg,stim_03/d.jpg,stim_03/c.jpg,1,2,f,5,2,302,28,f,1,1.29962095924,03,03,60.0144578706,PLT_learning_3,A,2014_Feb_17_1056,P06,
stim_fb/ques.jpg,stim_fb/negf.jpg,stim_fb/posf.jpg,stim_03/b.jpg,stim_03/a.jpg,1,1,f,5,3,303,5,f,1,0.883093366216,03,03,60.0144578706,PLT_learning_3,A,2014_Feb_17_1056,P06,
stim_fb/ques.jpg,stim_fb/negf.jpg,stim_fb/posf.jpg,stim_03/c.jpg,stim_03/d.jpg,2,2,j,5,4,304,34,j,1,0.849755460486,03,03,60.0144578706,PLT_learning_3,A,2014_Feb_17_1056,P06,
stim_fb/ques.jpg,stim_fb/negf.jpg,stim_fb/posf.jpg,stim_03/a.jpg,stim_03/b.jpg,2,1,j,5,5,305,15,j,1,0.799785547477,03,03,60.0144578706,PLT_learning_3,A,2014_Feb_17_1056,P06,
stim_fb/ques.jpg,stim_fb/negf.jpg,stim_fb/posf.jpg,stim_03/e.jpg,stim_03/f.jpg,2,3,j,5,6,306,51,j,1,1.31630237667,03,03,60.0144578706,PLT_learning_3,A,2014_Feb_17_1056,P06,
stim_fb/ques.jpg,stim_fb/posf.jpg,stim_fb/negf.jpg,stim_03/b.jpg,stim_03/a.jpg,1,1,f,5,7,307,8,f,1,1.04962557575,03,03,60.0144578706,PLT_learning_3,A,2014_Feb_17_1056,P06,
stim_fb/ques.jpg,stim_fb/negf.jpg,stim_fb/posf.jpg,stim_03/d.jpg,stim_03/c.jpg,1,2,f,5,8,308,23,j,0,0.599865622063,03,03,60.0144578706,PLT_learning_3,A,2014_Feb_17_1056,P06,
stim_fb/ques.jpg,stim_fb/negf.jpg,stim_fb/posf.jpg,stim_03/c.jpg,stim_03/d.jpg,2,2,j,5,9,309,35,j,1,0.699802332314,03,03,60.0144578706,PLT_learning_3,A,2014_Feb_17_1056,P06,
stim_fb/ques.jpg,stim_fb/negf.jpg,stim_fb/posf.jpg,stim_03/f.jpg,stim_03/e.jpg,1,3,f,5,10,310,45,f,1,1.24972180059,03,03,60.0144578706,PLT_learning_3,A,2014_Feb_17_1056,P06,
stim_fb/ques.jpg,stim_fb/negf.jpg,stim_fb/posf.jpg,stim_03/e.jpg,stim_03/f.jpg,2,3,j,5,11,311,53,f,0,0.933075414471,03,03,60.0144578706,PLT_learning_3,A,2014_Feb_17_1056,P06,
stim_fb/ques.jpg,stim_fb/posf.jpg,stim_fb/negf.jpg,stim_03/e.jpg,stim_03/f.jpg,2,3,j,5,12,312,59,j,1,1.24962885693,03,03,60.0144578706,PLT_learning_3,A,2014_Feb_17_1056,P06,
stim_fb/ques.jpg,stim_fb/negf.jpg,stim_fb/posf.jpg,stim_03/f.jpg,stim_03/e.jpg,1,3,f,5,13,313,41,f,1,1.18297756558,03,03,60.0144578706,PLT_learning_3,A,2014_Feb_17_1056,P06,
stim_fb/ques.jpg,stim_fb/negf.jpg,stim_fb/posf.jpg,stim_03/f.jpg,stim_03/e.jpg,1,3,f,5,14,314,42,f,1,1.29961636379,03,03,60.0144578706,PLT_learning_3,A,2014_Feb_17_1056,P06,
stim_fb/ques.jpg,stim_fb/posf.jpg,stim_fb/negf.jpg,stim_03/b.jpg,stim_03/a.jpg,1,1,f,5,15,315,9,f,1,1.31629712258,03,03,60.0144578706,PLT_learning_3,A,2014_Feb_17_1056,P06,
stim_fb/ques.jpg,stim_fb/negf.jpg,stim_fb/posf.jpg,stim_03/f.jpg,stim_03/e.jpg,1,3,f,5,16,316,43,j,0,1.19963125691,03,03,60.0144578706,PLT_learning_3,A,2014_Feb_17_1056,P06,
stim_fb/ques.jpg,stim_fb/negf.jpg,stim_fb/posf.jpg,stim_03/f.jpg,stim_03/e.jpg,1,3,f,5,17,317,40,f,1,1.31629586845,03,03,60.0144578706,PLT_learning_3,A,2014_Feb_17_1056,P06,
stim_fb/ques.jpg,stim_fb/posf.jpg,stim_fb/negf.jpg,stim_03/c.jpg,stim_03/d.jpg,2,2,j,5,18,318,37,j,1,1.06638123623,03,03,60.0144578706,PLT_learning_3,A,2014_Feb_17_1056,P06,
stim_fb/ques.jpg,stim_fb/posf.jpg,stim_fb/negf.jpg,stim_03/f.jpg,stim_03/e.jpg,1,3,f,5,19,319,46,f,1,1.11635642439,03,03,60.0144578706,PLT_learning_3,A,2014_Feb_17_1056,P06,
stim_fb/ques.jpg,stim_fb/negf.jpg,stim_fb/posf.jpg,stim_03/a.jpg,stim_03/b.jpg,2,1,j,5,20,320,17,j,1,0.949712687875,03,03,60.0144578706,PLT_learning_3,A,2014_Feb_17_1056,P06,
stim_fb/ques.jpg,stim_fb/negf.jpg,stim_fb/posf.jpg,stim_03/b.jpg,stim_03/a.jpg,1,1,f,5,21,321,7,f,1,0.849775592665,03,03,60.0144578706,PLT_learning_3,A,2014_Feb_17_1056,P06,
stim_fb/ques.jpg,stim_fb/negf.jpg,stim_fb/posf.jpg,stim_03/d.jpg,stim_03/c.jpg,1,2,f,5,22,322,20,f,1,1.11636399426,03,03,60.0144578706,PLT_learning_3,A,2014_Feb_17_1056,P06,
stim_fb/ques.jpg,stim_fb/negf.jpg,stim_fb/posf.jpg,stim_03/b.jpg,stim_03/a.jpg,1,1,f,5,23,323,4,f,1,0.733129549402,03,03,60.0144578706,PLT_learning_3,A,2014_Feb_17_1056,P06,
stim_fb/ques.jpg,stim_fb/negf.jpg,stim_fb/posf.jpg,stim_03/b.jpg,stim_03/a.jpg,1,1,f,5,24,324,1,f,1,0.599869883685,03,03,60.0144578706,PLT_learning_3,A,2014_Feb_17_1056,P06,
stim_fb/ques.jpg,stim_fb/posf.jpg,stim_fb/negf.jpg,stim_03/e.jpg,stim_03/f.jpg,2,3,j,5,25,325,57,j,1,0.933040214735,03,03,60.0144578706,PLT_learning_3,A,2014_Feb_17_1056,P06,
stim_fb/ques.jpg,stim_fb/negf.jpg,stim_fb/posf.jpg,stim_03/a.jpg,stim_03/b.jpg,2,1,j,5,26,326,11,j,1,0.649847399644,03,03,60.0144578706,PLT_learning_3,A,2014_Feb_17_1056,P06,
stim_fb/ques.jpg,stim_fb/negf.jpg,stim_fb/posf.jpg,stim_03/d.jpg,stim_03/c.jpg,1,2,f,5,27,327,21,f,1,0.76646257998,03,03,60.0144578706,PLT_learning_3,A,2014_Feb_17_1056,P06,
stim_fb/ques.jpg,stim_fb/negf.jpg,stim_fb/posf.jpg,stim_03/b.jpg,stim_03/a.jpg,1,1,f,5,28,328,0,f,1,0.61651194803,03,03,60.0144578706,PLT_learning_3,A,2014_Feb_17_1056,P06,
stim_fb/ques.jpg,stim_fb/posf.jpg,stim_fb/negf.jpg,stim_03/a.jpg,stim_03/b.jpg,2,1,j,5,29,329,19,j,1,0.583199181961,03,03,60.0144578706,PLT_learning_3,A,2014_Feb_17_1056,P06,
stim_fb/ques.jpg,stim_fb/negf.jpg,stim_fb/posf.jpg,stim_03/d.jpg,stim_03/c.jpg,1,2,f,5,30,330,26,f,1,0.766459734889,03,03,60.0144578706,PLT_learning_3,A,2014_Feb_17_1056,P06,
stim_fb/ques.jpg,stim_fb/negf.jpg,stim_fb/posf.jpg,stim_03/b.jpg,stim_03/a.jpg,1,1,f,5,31,331,3,f,1,0.616501066909,03,03,60.0144578706,PLT_learning_3,A,2014_Feb_17_1056,P06,
stim_fb/ques.jpg,stim_fb/posf.jpg,stim_fb/negf.jpg,stim_03/c.jpg,stim_03/d.jpg,2,2,j,5,32,332,39,j,1,0.633205224021,03,03,60.0144578706,PLT_learning_3,A,2014_Feb_17_1056,P06,
stim_fb/ques.jpg,stim_fb/negf.jpg,stim_fb/posf.jpg,stim_03/c.jpg,stim_03/d.jpg,2,2,j,5,33,333,36,j,1,0.599863327343,03,03,60.0144578706,PLT_learning_3,A,2014_Feb_17_1056,P06,
stim_fb/ques.jpg,stim_fb/negf.jpg,stim_fb/posf.jpg,stim_03/a.jpg,stim_03/b.jpg,2,1,j,5,34,334,16,j,1,0.733134893723,03,03,60.0144578706,PLT_learning_3,A,2014_Feb_17_1056,P06,
stim_fb/ques.jpg,stim_fb/posf.jpg,stim_fb/negf.jpg,stim_03/e.jpg,stim_03/f.jpg,2,3,j,5,35,335,56,j,1,0.983077336261,03,03,60.0144578706,PLT_learning_3,A,2014_Feb_17_1056,P06,
stim_fb/ques.jpg,stim_fb/negf.jpg,stim_fb/posf.jpg,stim_03/c.jpg,stim_03/d.jpg,2,2,j,5,36,336,31,j,1,0.933075113721,03,03,60.0144578706,PLT_learning_3,A,2014_Feb_17_1056,P06,
stim_fb/ques.jpg,stim_fb/posf.jpg,stim_fb/negf.jpg,stim_03/c.jpg,stim_03/d.jpg,2,2,j,5,37,337,38,j,1,0.666550233457,03,03,60.0144578706,PLT_learning_3,A,2014_Feb_17_1056,P06,
stim_fb/ques.jpg,stim_fb/posf.jpg,stim_fb/negf.jpg,stim_03/f.jpg,stim_03/e.jpg,1,3,f,5,38,338,47,f,1,0.933086277547,03,03,60.0144578706,PLT_learning_3,A,2014_Feb_17_1056,P06,
stim_fb/ques.jpg,stim_fb/negf.jpg,stim_fb/posf.jpg,stim_03/b.jpg,stim_03/a.jpg,1,1,f,5,39,339,6,f,1,0.649865625071,03,03,60.0144578706,PLT_learning_3,A,2014_Feb_17_1056,P06,
stim_fb/ques.jpg,stim_fb/posf.jpg,stim_fb/negf.jpg,stim_03/f.jpg,stim_03/e.jpg,1,3,f,5,40,340,48,f,1,1.09964818009,03,03,60.0144578706,PLT_learning_3,A,2014_Feb_17_1056,P06,
stim_fb/ques.jpg,stim_fb/negf.jpg,stim_fb/posf.jpg,stim_03/e.jpg,stim_03/f.jpg,2,3,j,5,41,341,50,j,1,1.11636324238,03,03,60.0144578706,PLT_learning_3,A,2014_Feb_17_1056,P06,
stim_fb/ques.jpg,stim_fb/negf.jpg,stim_fb/posf.jpg,stim_03/f.jpg,stim_03/e.jpg,1,3,f,5,42,342,44,j,0,0.849789682784,03,03,60.0144578706,PLT_learning_3,A,2014_Feb_17_1056,P06,
stim_fb/ques.jpg,stim_fb/negf.jpg,stim_fb/posf.jpg,stim_03/a.jpg,stim_03/b.jpg,2,1,j,5,43,343,12,j,1,0.916406766866,03,03,60.0144578706,PLT_learning_3,A,2014_Feb_17_1056,P06,
stim_fb/ques.jpg,stim_fb/posf.jpg,stim_fb/negf.jpg,stim_03/a.jpg,stim_03/b.jpg,2,1,j,5,44,344,18,j,1,0.633179407674,03,03,60.0144578706,PLT_learning_3,A,2014_Feb_17_1056,P06,
stim_fb/ques.jpg,stim_fb/negf.jpg,stim_fb/posf.jpg,stim_03/a.jpg,stim_03/b.jpg,2,1,j,5,45,345,14,j,1,0.533166529575,03,03,60.0144578706,PLT_learning_3,A,2014_Feb_17_1056,P06,
stim_fb/ques.jpg,stim_fb/posf.jpg,stim_fb/negf.jpg,stim_03/e.jpg,stim_03/f.jpg,2,3,j,5,46,346,58,f,0,1.11625888226,03,03,60.0144578706,PLT_learning_3,A,2014_Feb_17_1056,P06,
stim_fb/ques.jpg,stim_fb/negf.jpg,stim_fb/posf.jpg,stim_03/d.jpg,stim_03/c.jpg,1,2,f,5,47,347,25,f,1,0.749758290539,03,03,60.0144578706,PLT_learning_3,A,2014_Feb_17_1056,P06,
stim_fb/ques.jpg,stim_fb/negf.jpg,stim_fb/posf.jpg,stim_03/e.jpg,stim_03/f.jpg,2,3,j,5,48,348,52,j,1,1.29962794565,03,03,60.0144578706,PLT_learning_3,A,2014_Feb_17_1056,P06,
stim_fb/ques.jpg,stim_fb/negf.jpg,stim_fb/posf.jpg,stim_03/d.jpg,stim_03/c.jpg,1,2,f,5,49,349,22,f,1,1.08292525019,03,03,60.0144578706,PLT_learning_3,A,2014_Feb_17_1056,P06,
stim_fb/ques.jpg,stim_fb/negf.jpg,stim_fb/posf.jpg,stim_03/e.jpg,stim_03/f.jpg,2,3,j,5,50,350,54,j,1,0.749812085623,03,03,60.0144578706,PLT_learning_3,A,2014_Feb_17_1056,P06,
stim_fb/ques.jpg,stim_fb/negf.jpg,stim_fb/posf.jpg,stim_03/c.jpg,stim_03/d.jpg,2,2,j,5,51,351,32,j,1,0.666523238171,03,03,60.0144578706,PLT_learning_3,A,2014_Feb_17_1056,P06,
stim_fb/ques.jpg,stim_fb/posf.jpg,stim_fb/negf.jpg,stim_03/f.jpg,stim_03/e.jpg,1,3,f,5,52,352,49,f,1,0.866441013225,03,03,60.0144578706,PLT_learning_3,A,2014_Feb_17_1056,P06,
stim_fb/ques.jpg,stim_fb/negf.jpg,stim_fb/posf.jpg,stim_03/a.jpg,stim_03/b.jpg,2,1,j,5,53,353,13,j,1,0.733132343366,03,03,60.0144578706,PLT_learning_3,A,2014_Feb_17_1056,P06,
stim_fb/ques.jpg,stim_fb/negf.jpg,stim_fb/posf.jpg,stim_03/c.jpg,stim_03/d.jpg,2,2,j,5,54,354,30,j,1,0.966416718671,03,03,60.0144578706,PLT_learning_3,A,2014_Feb_17_1056,P06,
stim_fb/ques.jpg,stim_fb/posf.jpg,stim_fb/negf.jpg,stim_03/d.jpg,stim_03/c.jpg,1,2,f,5,55,355,29,f,1,0.866473644559,03,03,60.0144578706,PLT_learning_3,A,2014_Feb_17_1056,P06,
stim_fb/ques.jpg,stim_fb/negf.jpg,stim_fb/posf.jpg,stim_03/c.jpg,stim_03/d.jpg,2,2,j,5,56,356,33,j,1,0.933061411568,03,03,60.0144578706,PLT_learning_3,A,2014_Feb_17_1056,P06,
stim_fb/ques.jpg,stim_fb/negf.jpg,stim_fb/posf.jpg,stim_03/d.jpg,stim_03/c.jpg,1,2,f,5,57,357,24,f,1,0.683145774844,03,03,60.0144578706,PLT_learning_3,A,2014_Feb_17_1056,P06,
stim_fb/ques.jpg,stim_fb/negf.jpg,stim_fb/posf.jpg,stim_03/b.jpg,stim_03/a.jpg,1,1,f,5,58,358,2,f,1,0.683152571785,03,03,60.0144578706,PLT_learning_3,A,2014_Feb_17_1056,P06,
stim_fb/ques.jpg,stim_fb/negf.jpg,stim_fb/posf.jpg,stim_03/e.jpg,stim_03/f.jpg,2,3,j,5,59,359,55,j,1,0.583192670732,03,03,60.0144578706,PLT_learning_3,A,2014_Feb_17_1056,P06,
