Fb3,Fb2,Fb1,Symbol2,Symbol1,PosCond,Pair,Correct,trials.thisRepN,trials.thisTrialN,trials.thisN,trials.thisIndex,Response.keys,Response.corr,Response.rt,Version,Session Number,frameRate,expName,StimCondition,date,Participant,
stim_fb/ques.jpg,stim_fb/negf.jpg,stim_fb/posf.jpg,stim_03/a.jpg,stim_03/b.jpg,2,1,j,0,0,0,12,j,1,1.19966138728,03,02,60.0273479709,PLT_learning_3,A,2014_Feb_19_1805,P07,
stim_fb/ques.jpg,stim_fb/posf.jpg,stim_fb/negf.jpg,stim_03/a.jpg,stim_03/b.jpg,2,1,j,0,1,1,18,f,0,1.1996707977,03,02,60.0273479709,PLT_learning_3,A,2014_Feb_19_1805,P07,
stim_fb/ques.jpg,stim_fb/negf.jpg,stim_fb/posf.jpg,stim_03/e.jpg,stim_03/f.jpg,2,3,j,0,2,2,54,None,0,,03,02,60.0273479709,PLT_learning_3,A,2014_Feb_19_1805,P07,
stim_fb/ques.jpg,stim_fb/negf.jpg,stim_fb/posf.jpg,stim_03/c.jpg,stim_03/d.jpg,2,2,j,0,3,3,32,j,1,0.98301045928,03,02,60.0273479709,PLT_learning_3,A,2014_Feb_19_1805,P07,
stim_fb/ques.jpg,stim_fb/negf.jpg,stim_fb/posf.jpg,stim_03/c.jpg,stim_03/d.jpg,2,2,j,0,4,4,34,j,1,1.46619417976,03,02,60.0273479709,PLT_learning_3,A,2014_Feb_19_1805,P07,
stim_fb/ques.jpg,stim_fb/negf.jpg,stim_fb/posf.jpg,stim_03/a.jpg,stim_03/b.jpg,2,1,j,0,5,5,10,f,0,1.33293583005,03,02,60.0273479709,PLT_learning_3,A,2014_Feb_19_1805,P07,
stim_fb/ques.jpg,stim_fb/posf.jpg,stim_fb/negf.jpg,stim_03/b.jpg,stim_03/a.jpg,1,1,f,0,6,6,9,j,0,1.33310250787,03,02,60.0273479709,PLT_learning_3,A,2014_Feb_19_1805,P07,
stim_fb/ques.jpg,stim_fb/negf.jpg,stim_fb/posf.jpg,stim_03/b.jpg,stim_03/a.jpg,1,1,f,0,7,7,6,j,0,1.23298739638,03,02,60.0273479709,PLT_learning_3,A,2014_Feb_19_1805,P07,
stim_fb/ques.jpg,stim_fb/posf.jpg,stim_fb/negf.jpg,stim_03/e.jpg,stim_03/f.jpg,2,3,j,0,8,8,56,f,0,0.483218601294,03,02,60.0273479709,PLT_learning_3,A,2014_Feb_19_1805,P07,
stim_fb/ques.jpg,stim_fb/negf.jpg,stim_fb/posf.jpg,stim_03/d.jpg,stim_03/c.jpg,1,2,f,0,9,9,26,f,1,0.866416547181,03,02,60.0273479709,PLT_learning_3,A,2014_Feb_19_1805,P07,
stim_fb/ques.jpg,stim_fb/negf.jpg,stim_fb/posf.jpg,stim_03/a.jpg,stim_03/b.jpg,2,1,j,0,10,10,13,j,1,1.11634508784,03,02,60.0273479709,PLT_learning_3,A,2014_Feb_19_1805,P07,
stim_fb/ques.jpg,stim_fb/negf.jpg,stim_fb/posf.jpg,stim_03/c.jpg,stim_03/d.jpg,2,2,j,0,11,11,33,j,1,0.999700195863,03,02,60.0273479709,PLT_learning_3,A,2014_Feb_19_1805,P07,
stim_fb/ques.jpg,stim_fb/posf.jpg,stim_fb/negf.jpg,stim_03/e.jpg,stim_03/f.jpg,2,3,j,0,12,12,57,f,0,0.899755843355,03,02,60.0273479709,PLT_learning_3,A,2014_Feb_19_1805,P07,
stim_fb/ques.jpg,stim_fb/negf.jpg,stim_fb/posf.jpg,stim_03/d.jpg,stim_03/c.jpg,1,2,f,0,13,13,24,f,1,1.2163131273,03,02,60.0273479709,PLT_learning_3,A,2014_Feb_19_1805,P07,
stim_fb/ques.jpg,stim_fb/posf.jpg,stim_fb/negf.jpg,stim_03/e.jpg,stim_03/f.jpg,2,3,j,0,14,14,59,j,1,1.23298964899,03,02,60.0273479709,PLT_learning_3,A,2014_Feb_19_1805,P07,
stim_fb/ques.jpg,stim_fb/negf.jpg,stim_fb/posf.jpg,stim_03/b.jpg,stim_03/a.jpg,1,1,f,0,15,15,5,f,1,0.916366013917,03,02,60.0273479709,PLT_learning_3,A,2014_Feb_19_1805,P07,
stim_fb/ques.jpg,stim_fb/negf.jpg,stim_fb/posf.jpg,stim_03/e.jpg,stim_03/f.jpg,2,3,j,0,16,16,50,f,0,1.09966973004,03,02,60.0273479709,PLT_learning_3,A,2014_Feb_19_1805,P07,
stim_fb/ques.jpg,stim_fb/negf.jpg,stim_fb/posf.jpg,stim_03/a.jpg,stim_03/b.jpg,2,1,j,0,17,17,11,f,0,1.18286038278,03,02,60.0273479709,PLT_learning_3,A,2014_Feb_19_1805,P07,
stim_fb/ques.jpg,stim_fb/posf.jpg,stim_fb/negf.jpg,stim_03/c.jpg,stim_03/d.jpg,2,2,j,0,18,18,38,j,1,0.899710180713,03,02,60.0273479709,PLT_learning_3,A,2014_Feb_19_1805,P07,
stim_fb/ques.jpg,stim_fb/negf.jpg,stim_fb/posf.jpg,stim_03/a.jpg,stim_03/b.jpg,2,1,j,0,19,19,17,f,0,0.749801432315,03,02,60.0273479709,PLT_learning_3,A,2014_Feb_19_1805,P07,
stim_fb/ques.jpg,stim_fb/negf.jpg,stim_fb/posf.jpg,stim_03/d.jpg,stim_03/c.jpg,1,2,f,0,20,20,22,f,1,0.999716598685,03,02,60.0273479709,PLT_learning_3,A,2014_Feb_19_1805,P07,
stim_fb/ques.jpg,stim_fb/posf.jpg,stim_fb/negf.jpg,stim_03/f.jpg,stim_03/e.jpg,1,3,f,0,21,21,47,j,0,1.23295774559,03,02,60.0273479709,PLT_learning_3,A,2014_Feb_19_1805,P07,
stim_fb/ques.jpg,stim_fb/negf.jpg,stim_fb/posf.jpg,stim_03/d.jpg,stim_03/c.jpg,1,2,f,0,22,22,25,f,1,0.933086363687,03,02,60.0273479709,PLT_learning_3,A,2014_Feb_19_1805,P07,
stim_fb/ques.jpg,stim_fb/posf.jpg,stim_fb/negf.jpg,stim_03/f.jpg,stim_03/e.jpg,1,3,f,0,23,23,46,j,0,0.949730994011,03,02,60.0273479709,PLT_learning_3,A,2014_Feb_19_1805,P07,
stim_fb/ques.jpg,stim_fb/posf.jpg,stim_fb/negf.jpg,stim_03/c.jpg,stim_03/d.jpg,2,2,j,0,24,24,39,j,1,0.99972459258,03,02,60.0273479709,PLT_learning_3,A,2014_Feb_19_1805,P07,
stim_fb/ques.jpg,stim_fb/negf.jpg,stim_fb/posf.jpg,stim_03/e.jpg,stim_03/f.jpg,2,3,j,0,25,25,55,f,0,0.499890987696,03,02,60.0273479709,PLT_learning_3,A,2014_Feb_19_1805,P07,
stim_fb/ques.jpg,stim_fb/negf.jpg,stim_fb/posf.jpg,stim_03/b.jpg,stim_03/a.jpg,1,1,f,0,26,26,0,f,1,0.766441846145,03,02,60.0273479709,PLT_learning_3,A,2014_Feb_19_1805,P07,
stim_fb/ques.jpg,stim_fb/posf.jpg,stim_fb/negf.jpg,stim_03/b.jpg,stim_03/a.jpg,1,1,f,0,27,27,8,j,0,0.733149707334,03,02,60.0273479709,PLT_learning_3,A,2014_Feb_19_1805,P07,
stim_fb/ques.jpg,stim_fb/negf.jpg,stim_fb/posf.jpg,stim_03/a.jpg,stim_03/b.jpg,2,1,j,0,28,28,16,j,1,1.14964467017,03,02,60.0273479709,PLT_learning_3,A,2014_Feb_19_1805,P07,
stim_fb/ques.jpg,stim_fb/negf.jpg,stim_fb/posf.jpg,stim_03/c.jpg,stim_03/d.jpg,2,2,j,0,29,29,35,j,1,1.51619777521,03,02,60.0273479709,PLT_learning_3,A,2014_Feb_19_1805,P07,
stim_fb/ques.jpg,stim_fb/negf.jpg,stim_fb/posf.jpg,stim_03/f.jpg,stim_03/e.jpg,1,3,f,0,30,30,43,j,0,1.29958806179,03,02,60.0273479709,PLT_learning_3,A,2014_Feb_19_1805,P07,
stim_fb/ques.jpg,stim_fb/negf.jpg,stim_fb/posf.jpg,stim_03/b.jpg,stim_03/a.jpg,1,1,f,0,31,31,7,f,1,0.766479860754,03,02,60.0273479709,PLT_learning_3,A,2014_Feb_19_1805,P07,
stim_fb/ques.jpg,stim_fb/negf.jpg,stim_fb/posf.jpg,stim_03/b.jpg,stim_03/a.jpg,1,1,f,0,32,32,1,f,1,1.11636331921,03,02,60.0273479709,PLT_learning_3,A,2014_Feb_19_1805,P07,
stim_fb/ques.jpg,stim_fb/negf.jpg,stim_fb/posf.jpg,stim_03/a.jpg,stim_03/b.jpg,2,1,j,0,33,33,14,j,1,0.949744951748,03,02,60.0273479709,PLT_learning_3,A,2014_Feb_19_1805,P07,
stim_fb/ques.jpg,stim_fb/negf.jpg,stim_fb/posf.jpg,stim_03/c.jpg,stim_03/d.jpg,2,2,j,0,34,34,36,j,1,1.13298106262,03,02,60.0273479709,PLT_learning_3,A,2014_Feb_19_1805,P07,
stim_fb/ques.jpg,stim_fb/negf.jpg,stim_fb/posf.jpg,stim_03/c.jpg,stim_03/d.jpg,2,2,j,0,35,35,31,j,1,1.21629892896,03,02,60.0273479709,PLT_learning_3,A,2014_Feb_19_1805,P07,
stim_fb/ques.jpg,stim_fb/negf.jpg,stim_fb/posf.jpg,stim_03/f.jpg,stim_03/e.jpg,1,3,f,0,36,36,42,f,1,0.583227316985,03,02,60.0273479709,PLT_learning_3,A,2014_Feb_19_1805,P07,
stim_fb/ques.jpg,stim_fb/negf.jpg,stim_fb/posf.jpg,stim_03/e.jpg,stim_03/f.jpg,2,3,j,0,37,37,51,f,0,1.03303313121,03,02,60.0273479709,PLT_learning_3,A,2014_Feb_19_1805,P07,
stim_fb/ques.jpg,stim_fb/posf.jpg,stim_fb/negf.jpg,stim_03/d.jpg,stim_03/c.jpg,1,2,f,0,38,38,28,f,1,0.733147523901,03,02,60.0273479709,PLT_learning_3,A,2014_Feb_19_1805,P07,
stim_fb/ques.jpg,stim_fb/negf.jpg,stim_fb/posf.jpg,stim_03/f.jpg,stim_03/e.jpg,1,3,f,0,39,39,45,j,0,1.18298159645,03,02,60.0273479709,PLT_learning_3,A,2014_Feb_19_1805,P07,
stim_fb/ques.jpg,stim_fb/negf.jpg,stim_fb/posf.jpg,stim_03/b.jpg,stim_03/a.jpg,1,1,f,0,40,40,4,j,0,1.18298907606,03,02,60.0273479709,PLT_learning_3,A,2014_Feb_19_1805,P07,
stim_fb/ques.jpg,stim_fb/negf.jpg,stim_fb/posf.jpg,stim_03/a.jpg,stim_03/b.jpg,2,1,j,0,41,41,15,j,1,0.949712552115,03,02,60.0273479709,PLT_learning_3,A,2014_Feb_19_1805,P07,
stim_fb/ques.jpg,stim_fb/posf.jpg,stim_fb/negf.jpg,stim_03/a.jpg,stim_03/b.jpg,2,1,j,0,42,42,19,j,1,1.21632828201,03,02,60.0273479709,PLT_learning_3,A,2014_Feb_19_1805,P07,
stim_fb/ques.jpg,stim_fb/negf.jpg,stim_fb/posf.jpg,stim_03/f.jpg,stim_03/e.jpg,1,3,f,0,43,43,44,f,1,1.48289248768,03,02,60.0273479709,PLT_learning_3,A,2014_Feb_19_1805,P07,
stim_fb/ques.jpg,stim_fb/posf.jpg,stim_fb/negf.jpg,stim_03/c.jpg,stim_03/d.jpg,2,2,j,0,44,44,37,f,0,0.899731353406,03,02,60.0273479709,PLT_learning_3,A,2014_Feb_19_1805,P07,
stim_fb/ques.jpg,stim_fb/posf.jpg,stim_fb/negf.jpg,stim_03/d.jpg,stim_03/c.jpg,1,2,f,0,45,45,27,f,1,1.33295384488,03,02,60.0273479709,PLT_learning_3,A,2014_Feb_19_1805,P07,
stim_fb/ques.jpg,stim_fb/negf.jpg,stim_fb/posf.jpg,stim_03/b.jpg,stim_03/a.jpg,1,1,f,0,46,46,2,f,1,0.699813439698,03,02,60.0273479709,PLT_learning_3,A,2014_Feb_19_1805,P07,
stim_fb/ques.jpg,stim_fb/posf.jpg,stim_fb/negf.jpg,stim_03/e.jpg,stim_03/f.jpg,2,3,j,0,47,47,58,f,0,0.583194806073,03,02,60.0273479709,PLT_learning_3,A,2014_Feb_19_1805,P07,
stim_fb/ques.jpg,stim_fb/posf.jpg,stim_fb/negf.jpg,stim_03/f.jpg,stim_03/e.jpg,1,3,f,0,48,48,48,f,1,0.483193861724,03,02,60.0273479709,PLT_learning_3,A,2014_Feb_19_1805,P07,
stim_fb/ques.jpg,stim_fb/negf.jpg,stim_fb/posf.jpg,stim_03/f.jpg,stim_03/e.jpg,1,3,f,0,49,49,40,j,0,0.966406811953,03,02,60.0273479709,PLT_learning_3,A,2014_Feb_19_1805,P07,
stim_fb/ques.jpg,stim_fb/negf.jpg,stim_fb/posf.jpg,stim_03/e.jpg,stim_03/f.jpg,2,3,j,0,50,50,53,j,1,1.16633852701,03,02,60.0273479709,PLT_learning_3,A,2014_Feb_19_1805,P07,
stim_fb/ques.jpg,stim_fb/negf.jpg,stim_fb/posf.jpg,stim_03/d.jpg,stim_03/c.jpg,1,2,f,0,51,51,20,f,1,1.19965518284,03,02,60.0273479709,PLT_learning_3,A,2014_Feb_19_1805,P07,
stim_fb/ques.jpg,stim_fb/negf.jpg,stim_fb/posf.jpg,stim_03/b.jpg,stim_03/a.jpg,1,1,f,0,52,52,3,f,1,1.49955325015,03,02,60.0273479709,PLT_learning_3,A,2014_Feb_19_1805,P07,
stim_fb/ques.jpg,stim_fb/negf.jpg,stim_fb/posf.jpg,stim_03/f.jpg,stim_03/e.jpg,1,3,f,0,53,53,41,f,1,1.4495693838,03,02,60.0273479709,PLT_learning_3,A,2014_Feb_19_1805,P07,
stim_fb/ques.jpg,stim_fb/posf.jpg,stim_fb/negf.jpg,stim_03/f.jpg,stim_03/e.jpg,1,3,f,0,54,54,49,f,1,1.19964973628,03,02,60.0273479709,PLT_learning_3,A,2014_Feb_19_1805,P07,
stim_fb/ques.jpg,stim_fb/negf.jpg,stim_fb/posf.jpg,stim_03/e.jpg,stim_03/f.jpg,2,3,j,0,55,55,52,None,0,,03,02,60.0273479709,PLT_learning_3,A,2014_Feb_19_1805,P07,
stim_fb/ques.jpg,stim_fb/posf.jpg,stim_fb/negf.jpg,stim_03/d.jpg,stim_03/c.jpg,1,2,f,0,56,56,29,f,1,1.0330717834,03,02,60.0273479709,PLT_learning_3,A,2014_Feb_19_1805,P07,
stim_fb/ques.jpg,stim_fb/negf.jpg,stim_fb/posf.jpg,stim_03/c.jpg,stim_03/d.jpg,2,2,j,0,57,57,30,j,1,1.4495884693,03,02,60.0273479709,PLT_learning_3,A,2014_Feb_19_1805,P07,
stim_fb/ques.jpg,stim_fb/negf.jpg,stim_fb/posf.jpg,stim_03/d.jpg,stim_03/c.jpg,1,2,f,0,58,58,23,j,0,1.53284466416,03,02,60.0273479709,PLT_learning_3,A,2014_Feb_19_1805,P07,
stim_fb/ques.jpg,stim_fb/negf.jpg,stim_fb/posf.jpg,stim_03/d.jpg,stim_03/c.jpg,1,2,f,0,59,59,21,f,1,0.466541312692,03,02,60.0273479709,PLT_learning_3,A,2014_Feb_19_1805,P07,
stim_fb/ques.jpg,stim_fb/negf.jpg,stim_fb/posf.jpg,stim_03/d.jpg,stim_03/c.jpg,1,2,f,1,0,60,24,j,0,0.533193252708,03,02,60.0273479709,PLT_learning_3,A,2014_Feb_19_1805,P07,
stim_fb/ques.jpg,stim_fb/posf.jpg,stim_fb/negf.jpg,stim_03/e.jpg,stim_03/f.jpg,2,3,j,1,1,61,59,f,0,0.633178443853,03,02,60.0273479709,PLT_learning_3,A,2014_Feb_19_1805,P07,
stim_fb/ques.jpg,stim_fb/negf.jpg,stim_fb/posf.jpg,stim_03/b.jpg,stim_03/a.jpg,1,1,f,1,2,62,0,f,1,1.28295098927,03,02,60.0273479709,PLT_learning_3,A,2014_Feb_19_1805,P07,
stim_fb/ques.jpg,stim_fb/negf.jpg,stim_fb/posf.jpg,stim_03/e.jpg,stim_03/f.jpg,2,3,j,1,3,63,52,j,1,1.26627603147,03,02,60.0273479709,PLT_learning_3,A,2014_Feb_19_1805,P07,
stim_fb/ques.jpg,stim_fb/negf.jpg,stim_fb/posf.jpg,stim_03/f.jpg,stim_03/e.jpg,1,3,f,1,4,64,41,j,0,0.933038144683,03,02,60.0273479709,PLT_learning_3,A,2014_Feb_19_1805,P07,
stim_fb/ques.jpg,stim_fb/negf.jpg,stim_fb/posf.jpg,stim_03/d.jpg,stim_03/c.jpg,1,2,f,1,5,65,26,f,1,0.616501883062,03,02,60.0273479709,PLT_learning_3,A,2014_Feb_19_1805,P07,
stim_fb/ques.jpg,stim_fb/negf.jpg,stim_fb/posf.jpg,stim_03/c.jpg,stim_03/d.jpg,2,2,j,1,6,66,31,j,1,1.11631979489,03,02,60.0273479709,PLT_learning_3,A,2014_Feb_19_1805,P07,
stim_fb/ques.jpg,stim_fb/negf.jpg,stim_fb/posf.jpg,stim_03/b.jpg,stim_03/a.jpg,1,1,f,1,7,67,7,f,1,0.733146796089,03,02,60.0273479709,PLT_learning_3,A,2014_Feb_19_1805,P07,
stim_fb/ques.jpg,stim_fb/negf.jpg,stim_fb/posf.jpg,stim_03/b.jpg,stim_03/a.jpg,1,1,f,1,8,68,3,f,1,0.683110725819,03,02,60.0273479709,PLT_learning_3,A,2014_Feb_19_1805,P07,
stim_fb/ques.jpg,stim_fb/posf.jpg,stim_fb/negf.jpg,stim_03/c.jpg,stim_03/d.jpg,2,2,j,1,9,69,37,j,1,1.11630471235,03,02,60.0273479709,PLT_learning_3,A,2014_Feb_19_1805,P07,
stim_fb/ques.jpg,stim_fb/negf.jpg,stim_fb/posf.jpg,stim_03/d.jpg,stim_03/c.jpg,1,2,f,1,10,70,20,f,1,1.04969079597,03,02,60.0273479709,PLT_learning_3,A,2014_Feb_19_1805,P07,
stim_fb/ques.jpg,stim_fb/posf.jpg,stim_fb/negf.jpg,stim_03/a.jpg,stim_03/b.jpg,2,1,j,1,11,71,19,f,0,0.833147172024,03,02,60.0273479709,PLT_learning_3,A,2014_Feb_19_1805,P07,
stim_fb/ques.jpg,stim_fb/negf.jpg,stim_fb/posf.jpg,stim_03/c.jpg,stim_03/d.jpg,2,2,j,1,12,72,32,j,1,0.799785304677,03,02,60.0273479709,PLT_learning_3,A,2014_Feb_19_1805,P07,
stim_fb/ques.jpg,stim_fb/posf.jpg,stim_fb/negf.jpg,stim_03/b.jpg,stim_03/a.jpg,1,1,f,1,13,73,9,f,1,0.78314171795,03,02,60.0273479709,PLT_learning_3,A,2014_Feb_19_1805,P07,
stim_fb/ques.jpg,stim_fb/negf.jpg,stim_fb/posf.jpg,stim_03/d.jpg,stim_03/c.jpg,1,2,f,1,14,74,25,j,0,0.533186882855,03,02,60.0273479709,PLT_learning_3,A,2014_Feb_19_1805,P07,
stim_fb/ques.jpg,stim_fb/posf.jpg,stim_fb/negf.jpg,stim_03/d.jpg,stim_03/c.jpg,1,2,f,1,15,75,27,f,1,0.716500595858,03,02,60.0273479709,PLT_learning_3,A,2014_Feb_19_1805,P07,
stim_fb/ques.jpg,stim_fb/posf.jpg,stim_fb/negf.jpg,stim_03/f.jpg,stim_03/e.jpg,1,3,f,1,16,76,46,j,0,1.18295671853,03,02,60.0273479709,PLT_learning_3,A,2014_Feb_19_1805,P07,
stim_fb/ques.jpg,stim_fb/posf.jpg,stim_fb/negf.jpg,stim_03/f.jpg,stim_03/e.jpg,1,3,f,1,17,77,49,j,0,1.19966872554,03,02,60.0273479709,PLT_learning_3,A,2014_Feb_19_1805,P07,
stim_fb/ques.jpg,stim_fb/negf.jpg,stim_fb/posf.jpg,stim_03/a.jpg,stim_03/b.jpg,2,1,j,1,18,78,10,f,0,0.816464109052,03,02,60.0273479709,PLT_learning_3,A,2014_Feb_19_1805,P07,
stim_fb/ques.jpg,stim_fb/negf.jpg,stim_fb/posf.jpg,stim_03/e.jpg,stim_03/f.jpg,2,3,j,1,19,79,54,f,0,0.949714293448,03,02,60.0273479709,PLT_learning_3,A,2014_Feb_19_1805,P07,
stim_fb/ques.jpg,stim_fb/negf.jpg,stim_fb/posf.jpg,stim_03/e.jpg,stim_03/f.jpg,2,3,j,1,20,80,55,f,0,1.19960592023,03,02,60.0273479709,PLT_learning_3,A,2014_Feb_19_1805,P07,
stim_fb/ques.jpg,stim_fb/negf.jpg,stim_fb/posf.jpg,stim_03/f.jpg,stim_03/e.jpg,1,3,f,1,21,81,44,f,1,1.06637350707,03,02,60.0273479709,PLT_learning_3,A,2014_Feb_19_1805,P07,
stim_fb/ques.jpg,stim_fb/negf.jpg,stim_fb/posf.jpg,stim_03/b.jpg,stim_03/a.jpg,1,1,f,1,22,82,6,f,1,1.33294016083,03,02,60.0273479709,PLT_learning_3,A,2014_Feb_19_1805,P07,
stim_fb/ques.jpg,stim_fb/negf.jpg,stim_fb/posf.jpg,stim_03/c.jpg,stim_03/d.jpg,2,2,j,1,23,83,36,j,1,1.13301052394,03,02,60.0273479709,PLT_learning_3,A,2014_Feb_19_1805,P07,
stim_fb/ques.jpg,stim_fb/negf.jpg,stim_fb/posf.jpg,stim_03/a.jpg,stim_03/b.jpg,2,1,j,1,24,84,17,f,0,0.916420650895,03,02,60.0273479709,PLT_learning_3,A,2014_Feb_19_1805,P07,
stim_fb/ques.jpg,stim_fb/negf.jpg,stim_fb/posf.jpg,stim_03/b.jpg,stim_03/a.jpg,1,1,f,1,25,85,2,None,0,,03,02,60.0273479709,PLT_learning_3,A,2014_Feb_19_1805,P07,
stim_fb/ques.jpg,stim_fb/posf.jpg,stim_fb/negf.jpg,stim_03/f.jpg,stim_03/e.jpg,1,3,f,1,26,86,47,j,0,1.31628929298,03,02,60.0273479709,PLT_learning_3,A,2014_Feb_19_1805,P07,
stim_fb/ques.jpg,stim_fb/negf.jpg,stim_fb/posf.jpg,stim_03/e.jpg,stim_03/f.jpg,2,3,j,1,27,87,53,f,0,1.14966491656,03,02,60.0273479709,PLT_learning_3,A,2014_Feb_19_1805,P07,
stim_fb/ques.jpg,stim_fb/negf.jpg,stim_fb/posf.jpg,stim_03/f.jpg,stim_03/e.jpg,1,3,f,1,28,88,43,f,1,1.36622226967,03,02,60.0273479709,PLT_learning_3,A,2014_Feb_19_1805,P07,
stim_fb/ques.jpg,stim_fb/posf.jpg,stim_fb/negf.jpg,stim_03/e.jpg,stim_03/f.jpg,2,3,j,1,29,89,58,j,1,1.43440660143,03,02,60.0273479709,PLT_learning_3,A,2014_Feb_19_1805,P07,
stim_fb/ques.jpg,stim_fb/posf.jpg,stim_fb/negf.jpg,stim_03/d.jpg,stim_03/c.jpg,1,2,f,1,30,90,28,f,1,1.01637931903,03,02,60.0273479709,PLT_learning_3,A,2014_Feb_19_1805,P07,
stim_fb/ques.jpg,stim_fb/negf.jpg,stim_fb/posf.jpg,stim_03/b.jpg,stim_03/a.jpg,1,1,f,1,31,91,1,f,1,0.966452083623,03,02,60.0273479709,PLT_learning_3,A,2014_Feb_19_1805,P07,
stim_fb/ques.jpg,stim_fb/posf.jpg,stim_fb/negf.jpg,stim_03/c.jpg,stim_03/d.jpg,2,2,j,1,32,92,39,j,1,1.18301163821,03,02,60.0273479709,PLT_learning_3,A,2014_Feb_19_1805,P07,
stim_fb/ques.jpg,stim_fb/posf.jpg,stim_fb/negf.jpg,stim_03/b.jpg,stim_03/a.jpg,1,1,f,1,33,93,8,f,1,0.833101777048,03,02,60.0273479709,PLT_learning_3,A,2014_Feb_19_1805,P07,
stim_fb/ques.jpg,stim_fb/negf.jpg,stim_fb/posf.jpg,stim_03/a.jpg,stim_03/b.jpg,2,1,j,1,34,94,16,f,0,0.683085273474,03,02,60.0273479709,PLT_learning_3,A,2014_Feb_19_1805,P07,
stim_fb/ques.jpg,stim_fb/negf.jpg,stim_fb/posf.jpg,stim_03/c.jpg,stim_03/d.jpg,2,2,j,1,35,95,34,j,1,0.64983374774,03,02,60.0273479709,PLT_learning_3,A,2014_Feb_19_1805,P07,
stim_fb/ques.jpg,stim_fb/negf.jpg,stim_fb/posf.jpg,stim_03/b.jpg,stim_03/a.jpg,1,1,f,1,36,96,5,j,0,1.232996885,03,02,60.0273479709,PLT_learning_3,A,2014_Feb_19_1805,P07,
stim_fb/ques.jpg,stim_fb/posf.jpg,stim_fb/negf.jpg,stim_03/c.jpg,stim_03/d.jpg,2,2,j,1,37,97,38,f,0,0.733137190182,03,02,60.0273479709,PLT_learning_3,A,2014_Feb_19_1805,P07,
stim_fb/ques.jpg,stim_fb/posf.jpg,stim_fb/negf.jpg,stim_03/f.jpg,stim_03/e.jpg,1,3,f,1,38,98,48,j,0,1.54954926975,03,02,60.0273479709,PLT_learning_3,A,2014_Feb_19_1805,P07,
stim_fb/ques.jpg,stim_fb/negf.jpg,stim_fb/posf.jpg,stim_03/d.jpg,stim_03/c.jpg,1,2,f,1,39,99,21,f,1,0.749852583617,03,02,60.0273479709,PLT_learning_3,A,2014_Feb_19_1805,P07,
stim_fb/ques.jpg,stim_fb/negf.jpg,stim_fb/posf.jpg,stim_03/c.jpg,stim_03/d.jpg,2,2,j,1,40,100,30,f,0,0.933098937982,03,02,60.0273479709,PLT_learning_3,A,2014_Feb_19_1805,P07,
stim_fb/ques.jpg,stim_fb/negf.jpg,stim_fb/posf.jpg,stim_03/b.jpg,stim_03/a.jpg,1,1,f,1,41,101,4,j,0,0.699805051822,03,02,60.0273479709,PLT_learning_3,A,2014_Feb_19_1805,P07,
stim_fb/ques.jpg,stim_fb/negf.jpg,stim_fb/posf.jpg,stim_03/a.jpg,stim_03/b.jpg,2,1,j,1,42,102,11,j,1,0.983100698864,03,02,60.0273479709,PLT_learning_3,A,2014_Feb_19_1805,P07,
stim_fb/ques.jpg,stim_fb/negf.jpg,stim_fb/posf.jpg,stim_03/c.jpg,stim_03/d.jpg,2,2,j,1,43,103,35,None,0,,03,02,60.0273479709,PLT_learning_3,A,2014_Feb_19_1805,P07,
stim_fb/ques.jpg,stim_fb/negf.jpg,stim_fb/posf.jpg,stim_03/d.jpg,stim_03/c.jpg,1,2,f,1,44,104,22,f,1,0.616521708402,03,02,60.0273479709,PLT_learning_3,A,2014_Feb_19_1805,P07,
stim_fb/ques.jpg,stim_fb/negf.jpg,stim_fb/posf.jpg,stim_03/a.jpg,stim_03/b.jpg,2,1,j,1,45,105,13,j,1,1.06634997049,03,02,60.0273479709,PLT_learning_3,A,2014_Feb_19_1805,P07,
stim_fb/ques.jpg,stim_fb/negf.jpg,stim_fb/posf.jpg,stim_03/d.jpg,stim_03/c.jpg,1,2,f,1,46,106,23,f,1,0.683153098274,03,02,60.0273479709,PLT_learning_3,A,2014_Feb_19_1805,P07,
stim_fb/ques.jpg,stim_fb/posf.jpg,stim_fb/negf.jpg,stim_03/e.jpg,stim_03/f.jpg,2,3,j,1,47,107,57,f,0,1.13300929087,03,02,60.0273479709,PLT_learning_3,A,2014_Feb_19_1805,P07,
stim_fb/ques.jpg,stim_fb/posf.jpg,stim_fb/negf.jpg,stim_03/d.jpg,stim_03/c.jpg,1,2,f,1,48,108,29,j,0,0.916376116059,03,02,60.0273479709,PLT_learning_3,A,2014_Feb_19_1805,P07,
stim_fb/ques.jpg,stim_fb/negf.jpg,stim_fb/posf.jpg,stim_03/a.jpg,stim_03/b.jpg,2,1,j,1,49,109,12,f,0,0.299966436469,03,02,60.0273479709,PLT_learning_3,A,2014_Feb_19_1805,P07,
stim_fb/ques.jpg,stim_fb/negf.jpg,stim_fb/posf.jpg,stim_03/a.jpg,stim_03/b.jpg,2,1,j,1,50,110,14,j,1,0.516541193896,03,02,60.0273479709,PLT_learning_3,A,2014_Feb_19_1805,P07,
stim_fb/ques.jpg,stim_fb/negf.jpg,stim_fb/posf.jpg,stim_03/f.jpg,stim_03/e.jpg,1,3,f,1,51,111,45,j,0,0.699834474047,03,02,60.0273479709,PLT_learning_3,A,2014_Feb_19_1805,P07,
stim_fb/ques.jpg,stim_fb/negf.jpg,stim_fb/posf.jpg,stim_03/c.jpg,stim_03/d.jpg,2,2,j,1,52,112,33,j,1,0.749787889611,03,02,60.0273479709,PLT_learning_3,A,2014_Feb_19_1805,P07,
stim_fb/ques.jpg,stim_fb/posf.jpg,stim_fb/negf.jpg,stim_03/e.jpg,stim_03/f.jpg,2,3,j,1,53,113,56,f,0,0.833103734921,03,02,60.0273479709,PLT_learning_3,A,2014_Feb_19_1805,P07,
stim_fb/ques.jpg,stim_fb/negf.jpg,stim_fb/posf.jpg,stim_03/f.jpg,stim_03/e.jpg,1,3,f,1,54,114,40,j,0,1.08297987316,03,02,60.0273479709,PLT_learning_3,A,2014_Feb_19_1805,P07,
stim_fb/ques.jpg,stim_fb/negf.jpg,stim_fb/posf.jpg,stim_03/e.jpg,stim_03/f.jpg,2,3,j,1,55,115,51,f,0,0.516562201178,03,02,60.0273479709,PLT_learning_3,A,2014_Feb_19_1805,P07,
stim_fb/ques.jpg,stim_fb/negf.jpg,stim_fb/posf.jpg,stim_03/f.jpg,stim_03/e.jpg,1,3,f,1,56,116,42,j,0,0.383235271783,03,02,60.0273479709,PLT_learning_3,A,2014_Feb_19_1805,P07,
stim_fb/ques.jpg,stim_fb/negf.jpg,stim_fb/posf.jpg,stim_03/e.jpg,stim_03/f.jpg,2,3,j,1,57,117,50,j,1,0.68315857791,03,02,60.0273479709,PLT_learning_3,A,2014_Feb_19_1805,P07,
stim_fb/ques.jpg,stim_fb/posf.jpg,stim_fb/negf.jpg,stim_03/a.jpg,stim_03/b.jpg,2,1,j,1,58,118,18,f,0,1.06636587407,03,02,60.0273479709,PLT_learning_3,A,2014_Feb_19_1805,P07,
stim_fb/ques.jpg,stim_fb/negf.jpg,stim_fb/posf.jpg,stim_03/a.jpg,stim_03/b.jpg,2,1,j,1,59,119,15,f,0,0.899745548734,03,02,60.0273479709,PLT_learning_3,A,2014_Feb_19_1805,P07,
stim_fb/ques.jpg,stim_fb/posf.jpg,stim_fb/negf.jpg,stim_03/c.jpg,stim_03/d.jpg,2,2,j,2,0,120,38,j,1,1.09964407018,03,02,60.0273479709,PLT_learning_3,A,2014_Feb_19_1805,P07,
stim_fb/ques.jpg,stim_fb/negf.jpg,stim_fb/posf.jpg,stim_03/a.jpg,stim_03/b.jpg,2,1,j,2,1,121,13,f,0,0.816446701729,03,02,60.0273479709,PLT_learning_3,A,2014_Feb_19_1805,P07,
stim_fb/ques.jpg,stim_fb/negf.jpg,stim_fb/posf.jpg,stim_03/e.jpg,stim_03/f.jpg,2,3,j,2,2,122,50,f,0,0.96642853201,03,02,60.0273479709,PLT_learning_3,A,2014_Feb_19_1805,P07,
stim_fb/ques.jpg,stim_fb/negf.jpg,stim_fb/posf.jpg,stim_03/b.jpg,stim_03/a.jpg,1,1,f,2,3,123,2,f,1,1.14965319639,03,02,60.0273479709,PLT_learning_3,A,2014_Feb_19_1805,P07,
stim_fb/ques.jpg,stim_fb/posf.jpg,stim_fb/negf.jpg,stim_03/c.jpg,stim_03/d.jpg,2,2,j,2,4,124,39,j,1,1.06633107747,03,02,60.0273479709,PLT_learning_3,A,2014_Feb_19_1805,P07,
stim_fb/ques.jpg,stim_fb/negf.jpg,stim_fb/posf.jpg,stim_03/c.jpg,stim_03/d.jpg,2,2,j,2,5,125,30,f,0,0.383241283746,03,02,60.0273479709,PLT_learning_3,A,2014_Feb_19_1805,P07,
stim_fb/ques.jpg,stim_fb/negf.jpg,stim_fb/posf.jpg,stim_03/a.jpg,stim_03/b.jpg,2,1,j,2,6,126,14,j,1,0.799765485352,03,02,60.0273479709,PLT_learning_3,A,2014_Feb_19_1805,P07,
stim_fb/ques.jpg,stim_fb/negf.jpg,stim_fb/posf.jpg,stim_03/e.jpg,stim_03/f.jpg,2,3,j,2,7,127,52,f,0,0.533228656819,03,02,60.0273479709,PLT_learning_3,A,2014_Feb_19_1805,P07,
stim_fb/ques.jpg,stim_fb/posf.jpg,stim_fb/negf.jpg,stim_03/f.jpg,stim_03/e.jpg,1,3,f,2,8,128,47,j,0,1.23296819058,03,02,60.0273479709,PLT_learning_3,A,2014_Feb_19_1805,P07,
stim_fb/ques.jpg,stim_fb/posf.jpg,stim_fb/negf.jpg,stim_03/e.jpg,stim_03/f.jpg,2,3,j,2,9,129,57,f,0,1.23293088574,03,02,60.0273479709,PLT_learning_3,A,2014_Feb_19_1805,P07,
stim_fb/ques.jpg,stim_fb/negf.jpg,stim_fb/posf.jpg,stim_03/b.jpg,stim_03/a.jpg,1,1,f,2,10,130,4,f,1,0.949951857686,03,02,60.0273479709,PLT_learning_3,A,2014_Feb_19_1805,P07,
stim_fb/ques.jpg,stim_fb/posf.jpg,stim_fb/negf.jpg,stim_03/a.jpg,stim_03/b.jpg,2,1,j,2,11,131,19,j,1,0.883096521467,03,02,60.0273479709,PLT_learning_3,A,2014_Feb_19_1805,P07,
stim_fb/ques.jpg,stim_fb/posf.jpg,stim_fb/negf.jpg,stim_03/e.jpg,stim_03/f.jpg,2,3,j,2,12,132,59,f,0,0.766472946546,03,02,60.0273479709,PLT_learning_3,A,2014_Feb_19_1805,P07,
stim_fb/ques.jpg,stim_fb/posf.jpg,stim_fb/negf.jpg,stim_03/b.jpg,stim_03/a.jpg,1,1,f,2,13,133,9,f,1,0.866425175656,03,02,60.0273479709,PLT_learning_3,A,2014_Feb_19_1805,P07,
stim_fb/ques.jpg,stim_fb/negf.jpg,stim_fb/posf.jpg,stim_03/c.jpg,stim_03/d.jpg,2,2,j,2,14,134,33,j,1,1.58286196171,03,02,60.0273479709,PLT_learning_3,A,2014_Feb_19_1805,P07,
stim_fb/ques.jpg,stim_fb/negf.jpg,stim_fb/posf.jpg,stim_03/a.jpg,stim_03/b.jpg,2,1,j,2,15,135,17,f,0,1.0330564332,03,02,60.0273479709,PLT_learning_3,A,2014_Feb_19_1805,P07,
stim_fb/ques.jpg,stim_fb/posf.jpg,stim_fb/negf.jpg,stim_03/b.jpg,stim_03/a.jpg,1,1,f,2,16,136,8,j,0,0.916338820239,03,02,60.0273479709,PLT_learning_3,A,2014_Feb_19_1805,P07,
stim_fb/ques.jpg,stim_fb/negf.jpg,stim_fb/posf.jpg,stim_03/b.jpg,stim_03/a.jpg,1,1,f,2,17,137,5,f,1,1.09968549227,03,02,60.0273479709,PLT_learning_3,A,2014_Feb_19_1805,P07,
stim_fb/ques.jpg,stim_fb/negf.jpg,stim_fb/posf.jpg,stim_03/b.jpg,stim_03/a.jpg,1,1,f,2,18,138,3,f,1,1.29960990515,03,02,60.0273479709,PLT_learning_3,A,2014_Feb_19_1805,P07,
stim_fb/ques.jpg,stim_fb/negf.jpg,stim_fb/posf.jpg,stim_03/a.jpg,stim_03/b.jpg,2,1,j,2,19,139,11,j,1,1.04971356564,03,02,60.0273479709,PLT_learning_3,A,2014_Feb_19_1805,P07,
stim_fb/ques.jpg,stim_fb/negf.jpg,stim_fb/posf.jpg,stim_03/a.jpg,stim_03/b.jpg,2,1,j,2,20,140,12,f,0,1.24963091995,03,02,60.0273479709,PLT_learning_3,A,2014_Feb_19_1805,P07,
stim_fb/ques.jpg,stim_fb/negf.jpg,stim_fb/posf.jpg,stim_03/f.jpg,stim_03/e.jpg,1,3,f,2,21,141,45,j,0,0.966434426679,03,02,60.0273479709,PLT_learning_3,A,2014_Feb_19_1805,P07,
stim_fb/ques.jpg,stim_fb/posf.jpg,stim_fb/negf.jpg,stim_03/a.jpg,stim_03/b.jpg,2,1,j,2,22,142,18,f,0,0.54987646004,03,02,60.0273479709,PLT_learning_3,A,2014_Feb_19_1805,P07,
stim_fb/ques.jpg,stim_fb/negf.jpg,stim_fb/posf.jpg,stim_03/e.jpg,stim_03/f.jpg,2,3,j,2,23,143,55,f,0,0.716474054804,03,02,60.0273479709,PLT_learning_3,A,2014_Feb_19_1805,P07,
stim_fb/ques.jpg,stim_fb/negf.jpg,stim_fb/posf.jpg,stim_03/a.jpg,stim_03/b.jpg,2,1,j,2,24,144,16,f,0,0.7498287493,03,02,60.0273479709,PLT_learning_3,A,2014_Feb_19_1805,P07,
stim_fb/ques.jpg,stim_fb/posf.jpg,stim_fb/negf.jpg,stim_03/e.jpg,stim_03/f.jpg,2,3,j,2,25,145,58,f,0,0.934083107333,03,02,60.0273479709,PLT_learning_3,A,2014_Feb_19_1805,P07,
stim_fb/ques.jpg,stim_fb/negf.jpg,stim_fb/posf.jpg,stim_03/a.jpg,stim_03/b.jpg,2,1,j,2,26,146,10,j,1,1.0996843795,03,02,60.0273479709,PLT_learning_3,A,2014_Feb_19_1805,P07,
stim_fb/ques.jpg,stim_fb/negf.jpg,stim_fb/posf.jpg,stim_03/a.jpg,stim_03/b.jpg,2,1,j,2,27,147,15,j,1,0.899755509524,03,02,60.0273479709,PLT_learning_3,A,2014_Feb_19_1805,P07,
stim_fb/ques.jpg,stim_fb/posf.jpg,stim_fb/negf.jpg,stim_03/f.jpg,stim_03/e.jpg,1,3,f,2,28,148,49,j,0,1.29961306602,03,02,60.0273479709,PLT_learning_3,A,2014_Feb_19_1805,P07,
stim_fb/ques.jpg,stim_fb/negf.jpg,stim_fb/posf.jpg,stim_03/f.jpg,stim_03/e.jpg,1,3,f,2,29,149,42,f,1,1.13300498415,03,02,60.0273479709,PLT_learning_3,A,2014_Feb_19_1805,P07,
stim_fb/ques.jpg,stim_fb/posf.jpg,stim_fb/negf.jpg,stim_03/d.jpg,stim_03/c.jpg,1,2,f,2,30,150,28,f,1,1.23293987511,03,02,60.0273479709,PLT_learning_3,A,2014_Feb_19_1805,P07,
stim_fb/ques.jpg,stim_fb/negf.jpg,stim_fb/posf.jpg,stim_03/b.jpg,stim_03/a.jpg,1,1,f,2,31,151,7,j,0,1.06635670425,03,02,60.0273479709,PLT_learning_3,A,2014_Feb_19_1805,P07,
stim_fb/ques.jpg,stim_fb/negf.jpg,stim_fb/posf.jpg,stim_03/d.jpg,stim_03/c.jpg,1,2,f,2,32,152,26,j,0,1.46622123811,03,02,60.0273479709,PLT_learning_3,A,2014_Feb_19_1805,P07,
stim_fb/ques.jpg,stim_fb/negf.jpg,stim_fb/posf.jpg,stim_03/c.jpg,stim_03/d.jpg,2,2,j,2,33,153,31,j,1,1.59956581242,03,02,60.0273479709,PLT_learning_3,A,2014_Feb_19_1805,P07,
stim_fb/ques.jpg,stim_fb/negf.jpg,stim_fb/posf.jpg,stim_03/e.jpg,stim_03/f.jpg,2,3,j,2,34,154,53,f,0,1.41625216257,03,02,60.0273479709,PLT_learning_3,A,2014_Feb_19_1805,P07,
stim_fb/ques.jpg,stim_fb/negf.jpg,stim_fb/posf.jpg,stim_03/b.jpg,stim_03/a.jpg,1,1,f,2,35,155,6,f,1,0.74981532088,03,02,60.0273479709,PLT_learning_3,A,2014_Feb_19_1805,P07,
stim_fb/ques.jpg,stim_fb/negf.jpg,stim_fb/posf.jpg,stim_03/f.jpg,stim_03/e.jpg,1,3,f,2,36,156,41,j,0,0.783128151186,03,02,60.0273479709,PLT_learning_3,A,2014_Feb_19_1805,P07,
stim_fb/ques.jpg,stim_fb/negf.jpg,stim_fb/posf.jpg,stim_03/d.jpg,stim_03/c.jpg,1,2,f,2,37,157,20,f,1,0.649844956636,03,02,60.0273479709,PLT_learning_3,A,2014_Feb_19_1805,P07,
stim_fb/ques.jpg,stim_fb/negf.jpg,stim_fb/posf.jpg,stim_03/f.jpg,stim_03/e.jpg,1,3,f,2,38,158,43,f,1,1.21634175254,03,02,60.0273479709,PLT_learning_3,A,2014_Feb_19_1805,P07,
stim_fb/ques.jpg,stim_fb/negf.jpg,stim_fb/posf.jpg,stim_03/e.jpg,stim_03/f.jpg,2,3,j,2,39,159,54,f,0,0.999730150412,03,02,60.0273479709,PLT_learning_3,A,2014_Feb_19_1805,P07,
stim_fb/ques.jpg,stim_fb/posf.jpg,stim_fb/negf.jpg,stim_03/e.jpg,stim_03/f.jpg,2,3,j,2,40,160,56,j,1,1.03307895926,03,02,60.0273479709,PLT_learning_3,A,2014_Feb_19_1805,P07,
stim_fb/ques.jpg,stim_fb/posf.jpg,stim_fb/negf.jpg,stim_03/f.jpg,stim_03/e.jpg,1,3,f,2,41,161,46,f,1,1.21632490761,03,02,60.0273479709,PLT_learning_3,A,2014_Feb_19_1805,P07,
stim_fb/ques.jpg,stim_fb/posf.jpg,stim_fb/negf.jpg,stim_03/d.jpg,stim_03/c.jpg,1,2,f,2,42,162,27,f,1,1.33295429901,03,02,60.0273479709,PLT_learning_3,A,2014_Feb_19_1805,P07,
stim_fb/ques.jpg,stim_fb/negf.jpg,stim_fb/posf.jpg,stim_03/f.jpg,stim_03/e.jpg,1,3,f,2,43,163,40,j,0,0.683164385365,03,02,60.0273479709,PLT_learning_3,A,2014_Feb_19_1805,P07,
stim_fb/ques.jpg,stim_fb/negf.jpg,stim_fb/posf.jpg,stim_03/c.jpg,stim_03/d.jpg,2,2,j,2,44,164,32,j,1,1.39957512058,03,02,60.0273479709,PLT_learning_3,A,2014_Feb_19_1805,P07,
stim_fb/ques.jpg,stim_fb/negf.jpg,stim_fb/posf.jpg,stim_03/c.jpg,stim_03/d.jpg,2,2,j,2,45,165,34,j,1,1.08301318707,03,02,60.0273479709,PLT_learning_3,A,2014_Feb_19_1805,P07,
stim_fb/ques.jpg,stim_fb/posf.jpg,stim_fb/negf.jpg,stim_03/c.jpg,stim_03/d.jpg,2,2,j,2,46,166,37,j,1,1.08300304583,03,02,60.0273479709,PLT_learning_3,A,2014_Feb_19_1805,P07,
stim_fb/ques.jpg,stim_fb/negf.jpg,stim_fb/posf.jpg,stim_03/d.jpg,stim_03/c.jpg,1,2,f,2,47,167,21,f,1,1.3496378101,03,02,60.0273479709,PLT_learning_3,A,2014_Feb_19_1805,P07,
stim_fb/ques.jpg,stim_fb/negf.jpg,stim_fb/posf.jpg,stim_03/d.jpg,stim_03/c.jpg,1,2,f,2,48,168,23,f,1,0.833104616114,03,02,60.0273479709,PLT_learning_3,A,2014_Feb_19_1805,P07,
stim_fb/ques.jpg,stim_fb/negf.jpg,stim_fb/posf.jpg,stim_03/d.jpg,stim_03/c.jpg,1,2,f,2,49,169,25,f,1,0.899759196701,03,02,60.0273479709,PLT_learning_3,A,2014_Feb_19_1805,P07,
stim_fb/ques.jpg,stim_fb/negf.jpg,stim_fb/posf.jpg,stim_03/c.jpg,stim_03/d.jpg,2,2,j,2,50,170,35,j,1,1.0497853934,03,02,60.0273479709,PLT_learning_3,A,2014_Feb_19_1805,P07,
stim_fb/ques.jpg,stim_fb/negf.jpg,stim_fb/posf.jpg,stim_03/e.jpg,stim_03/f.jpg,2,3,j,2,51,171,51,f,0,1.08302065766,03,02,60.0273479709,PLT_learning_3,A,2014_Feb_19_1805,P07,
stim_fb/ques.jpg,stim_fb/negf.jpg,stim_fb/posf.jpg,stim_03/b.jpg,stim_03/a.jpg,1,1,f,2,52,172,0,f,1,0.716474767578,03,02,60.0273479709,PLT_learning_3,A,2014_Feb_19_1805,P07,
stim_fb/ques.jpg,stim_fb/negf.jpg,stim_fb/posf.jpg,stim_03/d.jpg,stim_03/c.jpg,1,2,f,2,53,173,24,f,1,1.382921546,03,02,60.0273479709,PLT_learning_3,A,2014_Feb_19_1805,P07,
stim_fb/ques.jpg,stim_fb/posf.jpg,stim_fb/negf.jpg,stim_03/d.jpg,stim_03/c.jpg,1,2,f,2,54,174,29,j,0,0.733184061834,03,02,60.0273479709,PLT_learning_3,A,2014_Feb_19_1805,P07,
stim_fb/ques.jpg,stim_fb/negf.jpg,stim_fb/posf.jpg,stim_03/c.jpg,stim_03/d.jpg,2,2,j,2,55,175,36,f,0,1.13298334229,03,02,60.0273479709,PLT_learning_3,A,2014_Feb_19_1805,P07,
stim_fb/ques.jpg,stim_fb/negf.jpg,stim_fb/posf.jpg,stim_03/b.jpg,stim_03/a.jpg,1,1,f,2,56,176,1,j,0,0.766527917354,03,02,60.0273479709,PLT_learning_3,A,2014_Feb_19_1805,P07,
stim_fb/ques.jpg,stim_fb/negf.jpg,stim_fb/posf.jpg,stim_03/f.jpg,stim_03/e.jpg,1,3,f,2,57,177,44,j,0,0.933067822543,03,02,60.0273479709,PLT_learning_3,A,2014_Feb_19_1805,P07,
stim_fb/ques.jpg,stim_fb/negf.jpg,stim_fb/posf.jpg,stim_03/d.jpg,stim_03/c.jpg,1,2,f,2,58,178,22,f,1,0.783162514708,03,02,60.0273479709,PLT_learning_3,A,2014_Feb_19_1805,P07,
stim_fb/ques.jpg,stim_fb/posf.jpg,stim_fb/negf.jpg,stim_03/f.jpg,stim_03/e.jpg,1,3,f,2,59,179,48,f,1,0.816434374048,03,02,60.0273479709,PLT_learning_3,A,2014_Feb_19_1805,P07,
stim_fb/ques.jpg,stim_fb/negf.jpg,stim_fb/posf.jpg,stim_03/d.jpg,stim_03/c.jpg,1,2,f,3,0,180,22,j,0,0.966390165524,03,02,60.0273479709,PLT_learning_3,A,2014_Feb_19_1805,P07,
stim_fb/ques.jpg,stim_fb/negf.jpg,stim_fb/posf.jpg,stim_03/a.jpg,stim_03/b.jpg,2,1,j,3,1,181,10,f,0,0.749764488371,03,02,60.0273479709,PLT_learning_3,A,2014_Feb_19_1805,P07,
stim_fb/ques.jpg,stim_fb/negf.jpg,stim_fb/posf.jpg,stim_03/a.jpg,stim_03/b.jpg,2,1,j,3,2,182,12,j,1,0.916402287192,03,02,60.0273479709,PLT_learning_3,A,2014_Feb_19_1805,P07,
stim_fb/ques.jpg,stim_fb/negf.jpg,stim_fb/posf.jpg,stim_03/d.jpg,stim_03/c.jpg,1,2,f,3,3,183,26,f,1,1.09964491528,03,02,60.0273479709,PLT_learning_3,A,2014_Feb_19_1805,P07,
stim_fb/ques.jpg,stim_fb/negf.jpg,stim_fb/posf.jpg,stim_03/d.jpg,stim_03/c.jpg,1,2,f,3,4,184,24,f,1,0.71645182949,03,02,60.0273479709,PLT_learning_3,A,2014_Feb_19_1805,P07,
stim_fb/ques.jpg,stim_fb/negf.jpg,stim_fb/posf.jpg,stim_03/c.jpg,stim_03/d.jpg,2,2,j,3,5,185,33,j,1,0.816459715116,03,02,60.0273479709,PLT_learning_3,A,2014_Feb_19_1805,P07,
stim_fb/ques.jpg,stim_fb/posf.jpg,stim_fb/negf.jpg,stim_03/a.jpg,stim_03/b.jpg,2,1,j,3,6,186,19,f,0,0.783119146777,03,02,60.0273479709,PLT_learning_3,A,2014_Feb_19_1805,P07,
stim_fb/ques.jpg,stim_fb/negf.jpg,stim_fb/posf.jpg,stim_03/f.jpg,stim_03/e.jpg,1,3,f,3,7,187,43,j,0,1.18306094593,03,02,60.0273479709,PLT_learning_3,A,2014_Feb_19_1805,P07,
stim_fb/ques.jpg,stim_fb/posf.jpg,stim_fb/negf.jpg,stim_03/d.jpg,stim_03/c.jpg,1,2,f,3,8,188,27,f,1,1.28296529287,03,02,60.0273479709,PLT_learning_3,A,2014_Feb_19_1805,P07,
stim_fb/ques.jpg,stim_fb/negf.jpg,stim_fb/posf.jpg,stim_03/b.jpg,stim_03/a.jpg,1,1,f,3,9,189,5,f,1,0.916416181772,03,02,60.0273479709,PLT_learning_3,A,2014_Feb_19_1805,P07,
stim_fb/ques.jpg,stim_fb/negf.jpg,stim_fb/posf.jpg,stim_03/a.jpg,stim_03/b.jpg,2,1,j,3,10,190,13,j,1,1.11632054375,03,02,60.0273479709,PLT_learning_3,A,2014_Feb_19_1805,P07,
stim_fb/ques.jpg,stim_fb/negf.jpg,stim_fb/posf.jpg,stim_03/e.jpg,stim_03/f.jpg,2,3,j,3,11,191,51,j,1,1.39959768273,03,02,60.0273479709,PLT_learning_3,A,2014_Feb_19_1805,P07,
stim_fb/ques.jpg,stim_fb/negf.jpg,stim_fb/posf.jpg,stim_03/f.jpg,stim_03/e.jpg,1,3,f,3,12,192,44,f,1,1.03302827412,03,02,60.0273479709,PLT_learning_3,A,2014_Feb_19_1805,P07,
stim_fb/ques.jpg,stim_fb/posf.jpg,stim_fb/negf.jpg,stim_03/b.jpg,stim_03/a.jpg,1,1,f,3,13,193,8,f,1,0.949768704864,03,02,60.0273479709,PLT_learning_3,A,2014_Feb_19_1805,P07,
stim_fb/ques.jpg,stim_fb/negf.jpg,stim_fb/posf.jpg,stim_03/b.jpg,stim_03/a.jpg,1,1,f,3,14,194,7,f,1,0.649801546599,03,02,60.0273479709,PLT_learning_3,A,2014_Feb_19_1805,P07,
stim_fb/ques.jpg,stim_fb/negf.jpg,stim_fb/posf.jpg,stim_03/c.jpg,stim_03/d.jpg,2,2,j,3,15,195,36,j,1,1.01624547092,03,02,60.0273479709,PLT_learning_3,A,2014_Feb_19_1805,P07,
stim_fb/ques.jpg,stim_fb/posf.jpg,stim_fb/negf.jpg,stim_03/a.jpg,stim_03/b.jpg,2,1,j,3,16,196,18,f,0,0.899739236023,03,02,60.0273479709,PLT_learning_3,A,2014_Feb_19_1805,P07,
stim_fb/ques.jpg,stim_fb/negf.jpg,stim_fb/posf.jpg,stim_03/e.jpg,stim_03/f.jpg,2,3,j,3,17,197,50,f,0,0.983067072176,03,02,60.0273479709,PLT_learning_3,A,2014_Feb_19_1805,P07,
stim_fb/ques.jpg,stim_fb/posf.jpg,stim_fb/negf.jpg,stim_03/c.jpg,stim_03/d.jpg,2,2,j,3,18,198,37,j,1,0.466557983181,03,02,60.0273479709,PLT_learning_3,A,2014_Feb_19_1805,P07,
stim_fb/ques.jpg,stim_fb/negf.jpg,stim_fb/posf.jpg,stim_03/a.jpg,stim_03/b.jpg,2,1,j,3,19,199,16,f,0,0.349920336237,03,02,60.0273479709,PLT_learning_3,A,2014_Feb_19_1805,P07,
stim_fb/ques.jpg,stim_fb/negf.jpg,stim_fb/posf.jpg,stim_03/b.jpg,stim_03/a.jpg,1,1,f,3,20,200,3,f,1,0.999721924941,03,02,60.0273479709,PLT_learning_3,A,2014_Feb_19_1805,P07,
stim_fb/ques.jpg,stim_fb/posf.jpg,stim_fb/negf.jpg,stim_03/f.jpg,stim_03/e.jpg,1,3,f,3,21,201,47,j,0,1.11638734601,03,02,60.0273479709,PLT_learning_3,A,2014_Feb_19_1805,P07,
stim_fb/ques.jpg,stim_fb/negf.jpg,stim_fb/posf.jpg,stim_03/f.jpg,stim_03/e.jpg,1,3,f,3,22,202,41,j,0,1.19961881633,03,02,60.0273479709,PLT_learning_3,A,2014_Feb_19_1805,P07,
stim_fb/ques.jpg,stim_fb/negf.jpg,stim_fb/posf.jpg,stim_03/f.jpg,stim_03/e.jpg,1,3,f,3,23,203,40,f,1,1.23290582136,03,02,60.0273479709,PLT_learning_3,A,2014_Feb_19_1805,P07,
stim_fb/ques.jpg,stim_fb/negf.jpg,stim_fb/posf.jpg,stim_03/b.jpg,stim_03/a.jpg,1,1,f,3,24,204,6,f,1,0.816449742296,03,02,60.0273479709,PLT_learning_3,A,2014_Feb_19_1805,P07,
stim_fb/ques.jpg,stim_fb/negf.jpg,stim_fb/posf.jpg,stim_03/a.jpg,stim_03/b.jpg,2,1,j,3,25,205,15,j,1,0.833114447581,03,02,60.0273479709,PLT_learning_3,A,2014_Feb_19_1805,P07,
stim_fb/ques.jpg,stim_fb/negf.jpg,stim_fb/posf.jpg,stim_03/c.jpg,stim_03/d.jpg,2,2,j,3,26,206,31,j,1,1.46629143882,03,02,60.0273479709,PLT_learning_3,A,2014_Feb_19_1805,P07,
stim_fb/ques.jpg,stim_fb/negf.jpg,stim_fb/posf.jpg,stim_03/a.jpg,stim_03/b.jpg,2,1,j,3,27,207,17,f,0,1.4495889505,03,02,60.0273479709,PLT_learning_3,A,2014_Feb_19_1805,P07,
stim_fb/ques.jpg,stim_fb/posf.jpg,stim_fb/negf.jpg,stim_03/d.jpg,stim_03/c.jpg,1,2,f,3,28,208,28,f,1,1.24963925369,03,02,60.0273479709,PLT_learning_3,A,2014_Feb_19_1805,P07,
stim_fb/ques.jpg,stim_fb/negf.jpg,stim_fb/posf.jpg,stim_03/b.jpg,stim_03/a.jpg,1,1,f,3,29,209,2,f,1,1.08302849817,03,02,60.0273479709,PLT_learning_3,A,2014_Feb_19_1805,P07,
stim_fb/ques.jpg,stim_fb/posf.jpg,stim_fb/negf.jpg,stim_03/f.jpg,stim_03/e.jpg,1,3,f,3,30,210,49,f,1,1.23300560069,03,02,60.0273479709,PLT_learning_3,A,2014_Feb_19_1805,P07,
stim_fb/ques.jpg,stim_fb/negf.jpg,stim_fb/posf.jpg,stim_03/c.jpg,stim_03/d.jpg,2,2,j,3,31,211,32,j,1,1.0330532994,03,02,60.0273479709,PLT_learning_3,A,2014_Feb_19_1805,P07,
stim_fb/ques.jpg,stim_fb/negf.jpg,stim_fb/posf.jpg,stim_03/e.jpg,stim_03/f.jpg,2,3,j,3,32,212,54,f,0,1.34960184058,03,02,60.0273479709,PLT_learning_3,A,2014_Feb_19_1805,P07,
stim_fb/ques.jpg,stim_fb/negf.jpg,stim_fb/posf.jpg,stim_03/e.jpg,stim_03/f.jpg,2,3,j,3,33,213,52,f,0,1.09967767582,03,02,60.0273479709,PLT_learning_3,A,2014_Feb_19_1805,P07,
stim_fb/ques.jpg,stim_fb/posf.jpg,stim_fb/negf.jpg,stim_03/f.jpg,stim_03/e.jpg,1,3,f,3,34,214,46,j,0,1.48296282974,03,02,60.0273479709,PLT_learning_3,A,2014_Feb_19_1805,P07,
stim_fb/ques.jpg,stim_fb/negf.jpg,stim_fb/posf.jpg,stim_03/a.jpg,stim_03/b.jpg,2,1,j,3,35,215,14,j,1,0.883095198174,03,02,60.0273479709,PLT_learning_3,A,2014_Feb_19_1805,P07,
stim_fb/ques.jpg,stim_fb/negf.jpg,stim_fb/posf.jpg,stim_03/e.jpg,stim_03/f.jpg,2,3,j,3,36,216,53,f,0,1.28292968124,03,02,60.0273479709,PLT_learning_3,A,2014_Feb_19_1805,P07,
stim_fb/ques.jpg,stim_fb/negf.jpg,stim_fb/posf.jpg,stim_03/d.jpg,stim_03/c.jpg,1,2,f,3,37,217,23,f,1,1.49956358387,03,02,60.0273479709,PLT_learning_3,A,2014_Feb_19_1805,P07,
stim_fb/ques.jpg,stim_fb/posf.jpg,stim_fb/negf.jpg,stim_03/c.jpg,stim_03/d.jpg,2,2,j,3,38,218,38,j,1,1.46622628767,03,02,60.0273479709,PLT_learning_3,A,2014_Feb_19_1805,P07,
stim_fb/ques.jpg,stim_fb/negf.jpg,stim_fb/posf.jpg,stim_03/c.jpg,stim_03/d.jpg,2,2,j,3,39,219,35,f,0,0.783123667026,03,02,60.0273479709,PLT_learning_3,A,2014_Feb_19_1805,P07,
stim_fb/ques.jpg,stim_fb/negf.jpg,stim_fb/posf.jpg,stim_03/b.jpg,stim_03/a.jpg,1,1,f,3,40,220,4,f,1,0.883122070052,03,02,60.0273479709,PLT_learning_3,A,2014_Feb_19_1805,P07,
stim_fb/ques.jpg,stim_fb/negf.jpg,stim_fb/posf.jpg,stim_03/c.jpg,stim_03/d.jpg,2,2,j,3,41,221,30,j,1,0.949738506709,03,02,60.0273479709,PLT_learning_3,A,2014_Feb_19_1805,P07,
stim_fb/ques.jpg,stim_fb/negf.jpg,stim_fb/posf.jpg,stim_03/d.jpg,stim_03/c.jpg,1,2,f,3,42,222,21,f,1,0.999722102382,03,02,60.0273479709,PLT_learning_3,A,2014_Feb_19_1805,P07,
stim_fb/ques.jpg,stim_fb/negf.jpg,stim_fb/posf.jpg,stim_03/b.jpg,stim_03/a.jpg,1,1,f,3,43,223,1,f,1,0.866451608441,03,02,60.0273479709,PLT_learning_3,A,2014_Feb_19_1805,P07,
stim_fb/ques.jpg,stim_fb/negf.jpg,stim_fb/posf.jpg,stim_03/d.jpg,stim_03/c.jpg,1,2,f,3,44,224,20,f,1,0.999691943324,03,02,60.0273479709,PLT_learning_3,A,2014_Feb_19_1805,P07,
stim_fb/ques.jpg,stim_fb/negf.jpg,stim_fb/posf.jpg,stim_03/b.jpg,stim_03/a.jpg,1,1,f,3,45,225,0,f,1,0.916412660007,03,02,60.0273479709,PLT_learning_3,A,2014_Feb_19_1805,P07,
stim_fb/ques.jpg,stim_fb/negf.jpg,stim_fb/posf.jpg,stim_03/c.jpg,stim_03/d.jpg,2,2,j,3,46,226,34,j,1,1.46621250738,03,02,60.0273479709,PLT_learning_3,A,2014_Feb_19_1805,P07,
stim_fb/ques.jpg,stim_fb/negf.jpg,stim_fb/posf.jpg,stim_03/e.jpg,stim_03/f.jpg,2,3,j,3,47,227,55,f,0,1.24966674812,03,02,60.0273479709,PLT_learning_3,A,2014_Feb_19_1805,P07,
stim_fb/ques.jpg,stim_fb/posf.jpg,stim_fb/negf.jpg,stim_03/f.jpg,stim_03/e.jpg,1,3,f,3,48,228,48,j,0,0.799790639955,03,02,60.0273479709,PLT_learning_3,A,2014_Feb_19_1805,P07,
stim_fb/ques.jpg,stim_fb/posf.jpg,stim_fb/negf.jpg,stim_03/c.jpg,stim_03/d.jpg,2,2,j,3,49,229,39,None,0,,03,02,60.0273479709,PLT_learning_3,A,2014_Feb_19_1805,P07,
stim_fb/ques.jpg,stim_fb/posf.jpg,stim_fb/negf.jpg,stim_03/e.jpg,stim_03/f.jpg,2,3,j,3,50,230,57,j,1,0.83310340109,03,02,60.0273479709,PLT_learning_3,A,2014_Feb_19_1805,P07,
stim_fb/ques.jpg,stim_fb/negf.jpg,stim_fb/posf.jpg,stim_03/f.jpg,stim_03/e.jpg,1,3,f,3,51,231,42,j,0,1.03304461078,03,02,60.0273479709,PLT_learning_3,A,2014_Feb_19_1805,P07,
stim_fb/ques.jpg,stim_fb/negf.jpg,stim_fb/posf.jpg,stim_03/d.jpg,stim_03/c.jpg,1,2,f,3,52,232,25,f,1,1.11635620049,03,02,60.0273479709,PLT_learning_3,A,2014_Feb_19_1805,P07,
stim_fb/ques.jpg,stim_fb/posf.jpg,stim_fb/negf.jpg,stim_03/b.jpg,stim_03/a.jpg,1,1,f,3,53,233,9,f,1,0.99977095296,03,02,60.0273479709,PLT_learning_3,A,2014_Feb_19_1805,P07,
stim_fb/ques.jpg,stim_fb/posf.jpg,stim_fb/negf.jpg,stim_03/e.jpg,stim_03/f.jpg,2,3,j,3,54,234,56,f,0,1.01643782363,03,02,60.0273479709,PLT_learning_3,A,2014_Feb_19_1805,P07,
stim_fb/ques.jpg,stim_fb/negf.jpg,stim_fb/posf.jpg,stim_03/f.jpg,stim_03/e.jpg,1,3,f,3,55,235,45,j,0,1.28297910625,03,02,60.0273479709,PLT_learning_3,A,2014_Feb_19_1805,P07,
stim_fb/ques.jpg,stim_fb/posf.jpg,stim_fb/negf.jpg,stim_03/e.jpg,stim_03/f.jpg,2,3,j,3,56,236,58,f,0,0.449909999512,03,02,60.0273479709,PLT_learning_3,A,2014_Feb_19_1805,P07,
stim_fb/ques.jpg,stim_fb/posf.jpg,stim_fb/negf.jpg,stim_03/e.jpg,stim_03/f.jpg,2,3,j,3,57,237,59,j,1,0.883110813036,03,02,60.0273479709,PLT_learning_3,A,2014_Feb_19_1805,P07,
stim_fb/ques.jpg,stim_fb/posf.jpg,stim_fb/negf.jpg,stim_03/d.jpg,stim_03/c.jpg,1,2,f,3,58,238,29,j,0,1.28295030958,03,02,60.0273479709,PLT_learning_3,A,2014_Feb_19_1805,P07,
stim_fb/ques.jpg,stim_fb/negf.jpg,stim_fb/posf.jpg,stim_03/a.jpg,stim_03/b.jpg,2,1,j,3,59,239,11,j,1,0.783092434296,03,02,60.0273479709,PLT_learning_3,A,2014_Feb_19_1805,P07,
stim_fb/ques.jpg,stim_fb/negf.jpg,stim_fb/posf.jpg,stim_03/a.jpg,stim_03/b.jpg,2,1,j,4,0,240,16,j,1,0.633176825824,03,02,60.0273479709,PLT_learning_3,A,2014_Feb_19_1805,P07,
stim_fb/ques.jpg,stim_fb/negf.jpg,stim_fb/posf.jpg,stim_03/e.jpg,stim_03/f.jpg,2,3,j,4,1,241,53,j,1,0.966416586278,03,02,60.0273479709,PLT_learning_3,A,2014_Feb_19_1805,P07,
stim_fb/ques.jpg,stim_fb/negf.jpg,stim_fb/posf.jpg,stim_03/d.jpg,stim_03/c.jpg,1,2,f,4,2,242,24,j,0,1.08300851043,03,02,60.0273479709,PLT_learning_3,A,2014_Feb_19_1805,P07,
stim_fb/ques.jpg,stim_fb/negf.jpg,stim_fb/posf.jpg,stim_03/f.jpg,stim_03/e.jpg,1,3,f,4,3,243,45,f,1,0.683157041085,03,02,60.0273479709,PLT_learning_3,A,2014_Feb_19_1805,P07,
stim_fb/ques.jpg,stim_fb/negf.jpg,stim_fb/posf.jpg,stim_03/d.jpg,stim_03/c.jpg,1,2,f,4,4,244,20,j,0,0.383244679195,03,02,60.0273479709,PLT_learning_3,A,2014_Feb_19_1805,P07,
stim_fb/ques.jpg,stim_fb/posf.jpg,stim_fb/negf.jpg,stim_03/f.jpg,stim_03/e.jpg,1,3,f,4,5,245,49,j,0,0.683133390226,03,02,60.0273479709,PLT_learning_3,A,2014_Feb_19_1805,P07,
stim_fb/ques.jpg,stim_fb/posf.jpg,stim_fb/negf.jpg,stim_03/f.jpg,stim_03/e.jpg,1,3,f,4,6,246,47,j,0,1.03301449683,03,02,60.0273479709,PLT_learning_3,A,2014_Feb_19_1805,P07,
stim_fb/ques.jpg,stim_fb/negf.jpg,stim_fb/posf.jpg,stim_03/f.jpg,stim_03/e.jpg,1,3,f,4,7,247,42,j,0,1.13302960343,03,02,60.0273479709,PLT_learning_3,A,2014_Feb_19_1805,P07,
stim_fb/ques.jpg,stim_fb/negf.jpg,stim_fb/posf.jpg,stim_03/b.jpg,stim_03/a.jpg,1,1,f,4,8,248,0,f,1,0.799780032556,03,02,60.0273479709,PLT_learning_3,A,2014_Feb_19_1805,P07,
stim_fb/ques.jpg,stim_fb/negf.jpg,stim_fb/posf.jpg,stim_03/c.jpg,stim_03/d.jpg,2,2,j,4,9,249,32,j,1,0.816431757536,03,02,60.0273479709,PLT_learning_3,A,2014_Feb_19_1805,P07,
stim_fb/ques.jpg,stim_fb/negf.jpg,stim_fb/posf.jpg,stim_03/a.jpg,stim_03/b.jpg,2,1,j,4,10,250,11,j,1,1.01638783923,03,02,60.0273479709,PLT_learning_3,A,2014_Feb_19_1805,P07,
stim_fb/ques.jpg,stim_fb/posf.jpg,stim_fb/negf.jpg,stim_03/f.jpg,stim_03/e.jpg,1,3,f,4,11,251,46,j,0,0.749814147959,03,02,60.0273479709,PLT_learning_3,A,2014_Feb_19_1805,P07,
stim_fb/ques.jpg,stim_fb/posf.jpg,stim_fb/negf.jpg,stim_03/e.jpg,stim_03/f.jpg,2,3,j,4,12,252,57,f,0,0.649843110039,03,02,60.0273479709,PLT_learning_3,A,2014_Feb_19_1805,P07,
stim_fb/ques.jpg,stim_fb/posf.jpg,stim_fb/negf.jpg,stim_03/e.jpg,stim_03/f.jpg,2,3,j,4,13,253,58,f,0,0.933072210464,03,02,60.0273479709,PLT_learning_3,A,2014_Feb_19_1805,P07,
stim_fb/ques.jpg,stim_fb/negf.jpg,stim_fb/posf.jpg,stim_03/c.jpg,stim_03/d.jpg,2,2,j,4,14,254,33,j,1,0.666474074353,03,02,60.0273479709,PLT_learning_3,A,2014_Feb_19_1805,P07,
stim_fb/ques.jpg,stim_fb/posf.jpg,stim_fb/negf.jpg,stim_03/d.jpg,stim_03/c.jpg,1,2,f,4,15,255,28,f,1,0.933080444956,03,02,60.0273479709,PLT_learning_3,A,2014_Feb_19_1805,P07,
stim_fb/ques.jpg,stim_fb/negf.jpg,stim_fb/posf.jpg,stim_03/c.jpg,stim_03/d.jpg,2,2,j,4,16,256,35,j,1,0.616525645199,03,02,60.0273479709,PLT_learning_3,A,2014_Feb_19_1805,P07,
stim_fb/ques.jpg,stim_fb/negf.jpg,stim_fb/posf.jpg,stim_03/d.jpg,stim_03/c.jpg,1,2,f,4,17,257,25,j,0,1.21631095589,03,02,60.0273479709,PLT_learning_3,A,2014_Feb_19_1805,P07,
stim_fb/ques.jpg,stim_fb/posf.jpg,stim_fb/negf.jpg,stim_03/c.jpg,stim_03/d.jpg,2,2,j,4,18,258,39,f,0,0.54988289305,03,02,60.0273479709,PLT_learning_3,A,2014_Feb_19_1805,P07,
stim_fb/ques.jpg,stim_fb/negf.jpg,stim_fb/posf.jpg,stim_03/a.jpg,stim_03/b.jpg,2,1,j,4,19,259,17,f,0,1.29957927392,03,02,60.0273479709,PLT_learning_3,A,2014_Feb_19_1805,P07,
stim_fb/ques.jpg,stim_fb/negf.jpg,stim_fb/posf.jpg,stim_03/c.jpg,stim_03/d.jpg,2,2,j,4,20,260,36,j,1,0.866436450717,03,02,60.0273479709,PLT_learning_3,A,2014_Feb_19_1805,P07,
stim_fb/ques.jpg,stim_fb/negf.jpg,stim_fb/posf.jpg,stim_03/e.jpg,stim_03/f.jpg,2,3,j,4,21,261,55,j,1,1.06637783784,03,02,60.0273479709,PLT_learning_3,A,2014_Feb_19_1805,P07,
stim_fb/ques.jpg,stim_fb/negf.jpg,stim_fb/posf.jpg,stim_03/b.jpg,stim_03/a.jpg,1,1,f,4,22,262,5,f,1,1.49947569614,03,02,60.0273479709,PLT_learning_3,A,2014_Feb_19_1805,P07,
stim_fb/ques.jpg,stim_fb/negf.jpg,stim_fb/posf.jpg,stim_03/c.jpg,stim_03/d.jpg,2,2,j,4,23,263,34,f,0,1.68278496709,03,02,60.0273479709,PLT_learning_3,A,2014_Feb_19_1805,P07,
stim_fb/ques.jpg,stim_fb/negf.jpg,stim_fb/posf.jpg,stim_03/c.jpg,stim_03/d.jpg,2,2,j,4,24,264,30,j,1,0.699804982651,03,02,60.0273479709,PLT_learning_3,A,2014_Feb_19_1805,P07,
stim_fb/ques.jpg,stim_fb/posf.jpg,stim_fb/negf.jpg,stim_03/c.jpg,stim_03/d.jpg,2,2,j,4,25,265,37,f,0,1.23299659327,03,02,60.0273479709,PLT_learning_3,A,2014_Feb_19_1805,P07,
stim_fb/ques.jpg,stim_fb/negf.jpg,stim_fb/posf.jpg,stim_03/f.jpg,stim_03/e.jpg,1,3,f,4,26,266,40,f,1,1.34959174445,03,02,60.0273479709,PLT_learning_3,A,2014_Feb_19_1805,P07,
stim_fb/ques.jpg,stim_fb/negf.jpg,stim_fb/posf.jpg,stim_03/f.jpg,stim_03/e.jpg,1,3,f,4,27,267,43,f,1,0.833076273577,03,02,60.0273479709,PLT_learning_3,A,2014_Feb_19_1805,P07,
stim_fb/ques.jpg,stim_fb/negf.jpg,stim_fb/posf.jpg,stim_03/b.jpg,stim_03/a.jpg,1,1,f,4,28,268,7,j,0,0.399882975755,03,02,60.0273479709,PLT_learning_3,A,2014_Feb_19_1805,P07,
stim_fb/ques.jpg,stim_fb/posf.jpg,stim_fb/negf.jpg,stim_03/a.jpg,stim_03/b.jpg,2,1,j,4,29,269,18,j,1,1.18300572851,03,02,60.0273479709,PLT_learning_3,A,2014_Feb_19_1805,P07,
stim_fb/ques.jpg,stim_fb/negf.jpg,stim_fb/posf.jpg,stim_03/d.jpg,stim_03/c.jpg,1,2,f,4,30,270,22,j,0,1.24961166904,03,02,60.0273479709,PLT_learning_3,A,2014_Feb_19_1805,P07,
stim_fb/ques.jpg,stim_fb/posf.jpg,stim_fb/negf.jpg,stim_03/d.jpg,stim_03/c.jpg,1,2,f,4,31,271,27,f,1,0.683156776427,03,02,60.0273479709,PLT_learning_3,A,2014_Feb_19_1805,P07,
stim_fb/ques.jpg,stim_fb/negf.jpg,stim_fb/posf.jpg,stim_03/a.jpg,stim_03/b.jpg,2,1,j,4,32,272,13,j,1,1.5162282681,03,02,60.0273479709,PLT_learning_3,A,2014_Feb_19_1805,P07,
stim_fb/ques.jpg,stim_fb/negf.jpg,stim_fb/posf.jpg,stim_03/e.jpg,stim_03/f.jpg,2,3,j,4,33,273,52,f,0,1.54947851866,03,02,60.0273479709,PLT_learning_3,A,2014_Feb_19_1805,P07,
stim_fb/ques.jpg,stim_fb/posf.jpg,stim_fb/negf.jpg,stim_03/b.jpg,stim_03/a.jpg,1,1,f,4,34,274,9,j,0,0.833102968012,03,02,60.0273479709,PLT_learning_3,A,2014_Feb_19_1805,P07,
stim_fb/ques.jpg,stim_fb/negf.jpg,stim_fb/posf.jpg,stim_03/a.jpg,stim_03/b.jpg,2,1,j,4,35,275,12,f,0,1.04972049187,03,02,60.0273479709,PLT_learning_3,A,2014_Feb_19_1805,P07,
stim_fb/ques.jpg,stim_fb/negf.jpg,stim_fb/posf.jpg,stim_03/c.jpg,stim_03/d.jpg,2,2,j,4,36,276,31,f,0,1.58286795562,03,02,60.0273479709,PLT_learning_3,A,2014_Feb_19_1805,P07,
stim_fb/ques.jpg,stim_fb/posf.jpg,stim_fb/negf.jpg,stim_03/e.jpg,stim_03/f.jpg,2,3,j,4,37,277,59,j,1,0.749786187374,03,02,60.0273479709,PLT_learning_3,A,2014_Feb_19_1805,P07,
stim_fb/ques.jpg,stim_fb/negf.jpg,stim_fb/posf.jpg,stim_03/a.jpg,stim_03/b.jpg,2,1,j,4,38,278,14,j,1,1.09966593459,03,02,60.0273479709,PLT_learning_3,A,2014_Feb_19_1805,P07,
stim_fb/ques.jpg,stim_fb/posf.jpg,stim_fb/negf.jpg,stim_03/e.jpg,stim_03/f.jpg,2,3,j,4,39,279,56,f,0,0.983110927322,03,02,60.0273479709,PLT_learning_3,A,2014_Feb_19_1805,P07,
stim_fb/ques.jpg,stim_fb/negf.jpg,stim_fb/posf.jpg,stim_03/e.jpg,stim_03/f.jpg,2,3,j,4,40,280,50,f,0,1.01638282877,03,02,60.0273479709,PLT_learning_3,A,2014_Feb_19_1805,P07,
stim_fb/ques.jpg,stim_fb/negf.jpg,stim_fb/posf.jpg,stim_03/a.jpg,stim_03/b.jpg,2,1,j,4,41,281,15,j,1,0.799797157175,03,02,60.0273479709,PLT_learning_3,A,2014_Feb_19_1805,P07,
stim_fb/ques.jpg,stim_fb/negf.jpg,stim_fb/posf.jpg,stim_03/b.jpg,stim_03/a.jpg,1,1,f,4,42,282,1,f,1,1.31629100123,03,02,60.0273479709,PLT_learning_3,A,2014_Feb_19_1805,P07,
stim_fb/ques.jpg,stim_fb/negf.jpg,stim_fb/posf.jpg,stim_03/e.jpg,stim_03/f.jpg,2,3,j,4,43,283,51,f,0,1.28296122375,03,02,60.0273479709,PLT_learning_3,A,2014_Feb_19_1805,P07,
stim_fb/ques.jpg,stim_fb/posf.jpg,stim_fb/negf.jpg,stim_03/f.jpg,stim_03/e.jpg,1,3,f,4,44,284,48,j,0,1.08302242907,03,02,60.0273479709,PLT_learning_3,A,2014_Feb_19_1805,P07,
stim_fb/ques.jpg,stim_fb/negf.jpg,stim_fb/posf.jpg,stim_03/b.jpg,stim_03/a.jpg,1,1,f,4,45,285,6,f,1,0.983048140059,03,02,60.0273479709,PLT_learning_3,A,2014_Feb_19_1805,P07,
stim_fb/ques.jpg,stim_fb/negf.jpg,stim_fb/posf.jpg,stim_03/f.jpg,stim_03/e.jpg,1,3,f,4,46,286,41,j,0,0.999719410684,03,02,60.0273479709,PLT_learning_3,A,2014_Feb_19_1805,P07,
stim_fb/ques.jpg,stim_fb/negf.jpg,stim_fb/posf.jpg,stim_03/b.jpg,stim_03/a.jpg,1,1,f,4,47,287,3,f,1,0.916389998611,03,02,60.0273479709,PLT_learning_3,A,2014_Feb_19_1805,P07,
stim_fb/ques.jpg,stim_fb/posf.jpg,stim_fb/negf.jpg,stim_03/a.jpg,stim_03/b.jpg,2,1,j,4,48,288,19,f,0,0.933096808683,03,02,60.0273479709,PLT_learning_3,A,2014_Feb_19_1805,P07,
stim_fb/ques.jpg,stim_fb/posf.jpg,stim_fb/negf.jpg,stim_03/b.jpg,stim_03/a.jpg,1,1,f,4,49,289,8,f,1,1.36627192325,03,02,60.0273479709,PLT_learning_3,A,2014_Feb_19_1805,P07,
stim_fb/ques.jpg,stim_fb/posf.jpg,stim_fb/negf.jpg,stim_03/c.jpg,stim_03/d.jpg,2,2,j,4,50,290,38,j,1,1.33290695819,03,02,60.0273479709,PLT_learning_3,A,2014_Feb_19_1805,P07,
stim_fb/ques.jpg,stim_fb/negf.jpg,stim_fb/posf.jpg,stim_03/d.jpg,stim_03/c.jpg,1,2,f,4,51,291,26,f,1,0.933139487901,03,02,60.0273479709,PLT_learning_3,A,2014_Feb_19_1805,P07,
stim_fb/ques.jpg,stim_fb/negf.jpg,stim_fb/posf.jpg,stim_03/d.jpg,stim_03/c.jpg,1,2,f,4,52,292,21,j,0,1.03306784961,03,02,60.0273479709,PLT_learning_3,A,2014_Feb_19_1805,P07,
stim_fb/ques.jpg,stim_fb/negf.jpg,stim_fb/posf.jpg,stim_03/b.jpg,stim_03/a.jpg,1,1,f,4,53,293,2,f,1,0.416549696056,03,02,60.0273479709,PLT_learning_3,A,2014_Feb_19_1805,P07,
stim_fb/ques.jpg,stim_fb/posf.jpg,stim_fb/negf.jpg,stim_03/d.jpg,stim_03/c.jpg,1,2,f,4,54,294,29,f,1,0.866438222125,03,02,60.0273479709,PLT_learning_3,A,2014_Feb_19_1805,P07,
stim_fb/ques.jpg,stim_fb/negf.jpg,stim_fb/posf.jpg,stim_03/b.jpg,stim_03/a.jpg,1,1,f,4,55,295,4,f,1,0.716436768005,03,02,60.0273479709,PLT_learning_3,A,2014_Feb_19_1805,P07,
stim_fb/ques.jpg,stim_fb/negf.jpg,stim_fb/posf.jpg,stim_03/e.jpg,stim_03/f.jpg,2,3,j,4,56,296,54,f,0,1.11641159836,03,02,60.0273479709,PLT_learning_3,A,2014_Feb_19_1805,P07,
stim_fb/ques.jpg,stim_fb/negf.jpg,stim_fb/posf.jpg,stim_03/f.jpg,stim_03/e.jpg,1,3,f,4,57,297,44,j,0,1.24958812645,03,02,60.0273479709,PLT_learning_3,A,2014_Feb_19_1805,P07,
stim_fb/ques.jpg,stim_fb/negf.jpg,stim_fb/posf.jpg,stim_03/a.jpg,stim_03/b.jpg,2,1,j,4,58,298,10,j,1,0.483185771589,03,02,60.0273479709,PLT_learning_3,A,2014_Feb_19_1805,P07,
stim_fb/ques.jpg,stim_fb/negf.jpg,stim_fb/posf.jpg,stim_03/d.jpg,stim_03/c.jpg,1,2,f,4,59,299,23,j,0,0.69979118431,03,02,60.0273479709,PLT_learning_3,A,2014_Feb_19_1805,P07,
stim_fb/ques.jpg,stim_fb/negf.jpg,stim_fb/posf.jpg,stim_03/d.jpg,stim_03/c.jpg,1,2,f,5,0,300,26,f,1,1.24965491367,03,02,60.0273479709,PLT_learning_3,A,2014_Feb_19_1805,P07,
stim_fb/ques.jpg,stim_fb/posf.jpg,stim_fb/negf.jpg,stim_03/f.jpg,stim_03/e.jpg,1,3,f,5,1,301,47,j,0,1.14968767721,03,02,60.0273479709,PLT_learning_3,A,2014_Feb_19_1805,P07,
stim_fb/ques.jpg,stim_fb/posf.jpg,stim_fb/negf.jpg,stim_03/e.jpg,stim_03/f.jpg,2,3,j,5,2,302,56,f,0,0.782980140824,03,02,60.0273479709,PLT_learning_3,A,2014_Feb_19_1805,P07,
stim_fb/ques.jpg,stim_fb/negf.jpg,stim_fb/posf.jpg,stim_03/a.jpg,stim_03/b.jpg,2,1,j,5,3,303,16,j,1,1.23297903257,03,02,60.0273479709,PLT_learning_3,A,2014_Feb_19_1805,P07,
stim_fb/ques.jpg,stim_fb/negf.jpg,stim_fb/posf.jpg,stim_03/c.jpg,stim_03/d.jpg,2,2,j,5,4,304,31,None,0,,03,02,60.0273479709,PLT_learning_3,A,2014_Feb_19_1805,P07,
stim_fb/ques.jpg,stim_fb/negf.jpg,stim_fb/posf.jpg,stim_03/d.jpg,stim_03/c.jpg,1,2,f,5,5,305,21,f,1,0.699824053112,03,02,60.0273479709,PLT_learning_3,A,2014_Feb_19_1805,P07,
stim_fb/ques.jpg,stim_fb/negf.jpg,stim_fb/posf.jpg,stim_03/c.jpg,stim_03/d.jpg,2,2,j,5,6,306,33,j,1,1.39959430533,03,02,60.0273479709,PLT_learning_3,A,2014_Feb_19_1805,P07,
stim_fb/ques.jpg,stim_fb/posf.jpg,stim_fb/negf.jpg,stim_03/c.jpg,stim_03/d.jpg,2,2,j,5,7,307,39,j,1,1.13303677026,03,02,60.0273479709,PLT_learning_3,A,2014_Feb_19_1805,P07,
stim_fb/ques.jpg,stim_fb/negf.jpg,stim_fb/posf.jpg,stim_03/a.jpg,stim_03/b.jpg,2,1,j,5,8,308,14,f,0,0.733122300124,03,02,60.0273479709,PLT_learning_3,A,2014_Feb_19_1805,P07,
stim_fb/ques.jpg,stim_fb/negf.jpg,stim_fb/posf.jpg,stim_03/a.jpg,stim_03/b.jpg,2,1,j,5,9,309,11,f,0,0.93306639098,03,02,60.0273479709,PLT_learning_3,A,2014_Feb_19_1805,P07,
stim_fb/ques.jpg,stim_fb/negf.jpg,stim_fb/posf.jpg,stim_03/a.jpg,stim_03/b.jpg,2,1,j,5,10,310,15,j,1,0.816455609898,03,02,60.0273479709,PLT_learning_3,A,2014_Feb_19_1805,P07,
stim_fb/ques.jpg,stim_fb/negf.jpg,stim_fb/posf.jpg,stim_03/d.jpg,stim_03/c.jpg,1,2,f,5,11,311,20,f,1,1.61614025707,03,02,60.0273479709,PLT_learning_3,A,2014_Feb_19_1805,P07,
stim_fb/ques.jpg,stim_fb/posf.jpg,stim_fb/negf.jpg,stim_03/b.jpg,stim_03/a.jpg,1,1,f,5,12,312,8,f,1,1.59955279602,03,02,60.0273479709,PLT_learning_3,A,2014_Feb_19_1805,P07,
stim_fb/ques.jpg,stim_fb/negf.jpg,stim_fb/posf.jpg,stim_03/e.jpg,stim_03/f.jpg,2,3,j,5,13,313,54,None,0,,03,02,60.0273479709,PLT_learning_3,A,2014_Feb_19_1805,P07,
stim_fb/ques.jpg,stim_fb/negf.jpg,stim_fb/posf.jpg,stim_03/f.jpg,stim_03/e.jpg,1,3,f,5,14,314,44,f,1,0.833093602705,03,02,60.0273479709,PLT_learning_3,A,2014_Feb_19_1805,P07,
stim_fb/ques.jpg,stim_fb/negf.jpg,stim_fb/posf.jpg,stim_03/d.jpg,stim_03/c.jpg,1,2,f,5,15,315,25,f,1,1.13300577813,03,02,60.0273479709,PLT_learning_3,A,2014_Feb_19_1805,P07,
stim_fb/ques.jpg,stim_fb/negf.jpg,stim_fb/posf.jpg,stim_03/f.jpg,stim_03/e.jpg,1,3,f,5,16,316,40,j,0,1.28294892614,03,02,60.0273479709,PLT_learning_3,A,2014_Feb_19_1805,P07,
stim_fb/ques.jpg,stim_fb/negf.jpg,stim_fb/posf.jpg,stim_03/b.jpg,stim_03/a.jpg,1,1,f,5,17,317,4,f,1,0.833098174082,03,02,60.0273479709,PLT_learning_3,A,2014_Feb_19_1805,P07,
stim_fb/ques.jpg,stim_fb/negf.jpg,stim_fb/posf.jpg,stim_03/c.jpg,stim_03/d.jpg,2,2,j,5,18,318,34,j,1,1.43291529494,03,02,60.0273479709,PLT_learning_3,A,2014_Feb_19_1805,P07,
stim_fb/ques.jpg,stim_fb/negf.jpg,stim_fb/posf.jpg,stim_03/e.jpg,stim_03/f.jpg,2,3,j,5,19,319,53,f,0,1.19966481581,03,02,60.0273479709,PLT_learning_3,A,2014_Feb_19_1805,P07,
stim_fb/ques.jpg,stim_fb/negf.jpg,stim_fb/posf.jpg,stim_03/c.jpg,stim_03/d.jpg,2,2,j,5,20,320,30,j,1,0.933049052832,03,02,60.0273479709,PLT_learning_3,A,2014_Feb_19_1805,P07,
stim_fb/ques.jpg,stim_fb/posf.jpg,stim_fb/negf.jpg,stim_03/e.jpg,stim_03/f.jpg,2,3,j,5,21,321,57,f,0,1.28290745593,03,02,60.0273479709,PLT_learning_3,A,2014_Feb_19_1805,P07,
stim_fb/ques.jpg,stim_fb/negf.jpg,stim_fb/posf.jpg,stim_03/b.jpg,stim_03/a.jpg,1,1,f,5,22,322,0,f,1,0.683167419917,03,02,60.0273479709,PLT_learning_3,A,2014_Feb_19_1805,P07,
stim_fb/ques.jpg,stim_fb/negf.jpg,stim_fb/posf.jpg,stim_03/e.jpg,stim_03/f.jpg,2,3,j,5,23,323,50,f,0,0.683160132781,03,02,60.0273479709,PLT_learning_3,A,2014_Feb_19_1805,P07,
stim_fb/ques.jpg,stim_fb/posf.jpg,stim_fb/negf.jpg,stim_03/d.jpg,stim_03/c.jpg,1,2,f,5,24,324,29,f,1,1.01638204081,03,02,60.0273479709,PLT_learning_3,A,2014_Feb_19_1805,P07,
stim_fb/ques.jpg,stim_fb/posf.jpg,stim_fb/negf.jpg,stim_03/c.jpg,stim_03/d.jpg,2,2,j,5,25,325,37,j,1,0.916407432998,03,02,60.0273479709,PLT_learning_3,A,2014_Feb_19_1805,P07,
stim_fb/ques.jpg,stim_fb/negf.jpg,stim_fb/posf.jpg,stim_03/a.jpg,stim_03/b.jpg,2,1,j,5,26,326,17,j,1,1.26624947839,03,02,60.0273479709,PLT_learning_3,A,2014_Feb_19_1805,P07,
stim_fb/ques.jpg,stim_fb/negf.jpg,stim_fb/posf.jpg,stim_03/f.jpg,stim_03/e.jpg,1,3,f,5,27,327,45,f,1,0.999591776033,03,02,60.0273479709,PLT_learning_3,A,2014_Feb_19_1805,P07,
stim_fb/ques.jpg,stim_fb/negf.jpg,stim_fb/posf.jpg,stim_03/c.jpg,stim_03/d.jpg,2,2,j,5,28,328,36,f,0,1.33299935715,03,02,60.0273479709,PLT_learning_3,A,2014_Feb_19_1805,P07,
stim_fb/ques.jpg,stim_fb/negf.jpg,stim_fb/posf.jpg,stim_03/f.jpg,stim_03/e.jpg,1,3,f,5,29,329,41,f,1,1.46623424849,03,02,60.0273479709,PLT_learning_3,A,2014_Feb_19_1805,P07,
stim_fb/ques.jpg,stim_fb/negf.jpg,stim_fb/posf.jpg,stim_03/c.jpg,stim_03/d.jpg,2,2,j,5,30,330,35,f,0,1.36623423345,03,02,60.0273479709,PLT_learning_3,A,2014_Feb_19_1805,P07,
stim_fb/ques.jpg,stim_fb/negf.jpg,stim_fb/posf.jpg,stim_03/b.jpg,stim_03/a.jpg,1,1,f,5,31,331,2,f,1,1.2829487096,03,02,60.0273479709,PLT_learning_3,A,2014_Feb_19_1805,P07,
stim_fb/ques.jpg,stim_fb/negf.jpg,stim_fb/posf.jpg,stim_03/f.jpg,stim_03/e.jpg,1,3,f,5,32,332,42,j,0,0.949789510645,03,02,60.0273479709,PLT_learning_3,A,2014_Feb_19_1805,P07,
stim_fb/ques.jpg,stim_fb/negf.jpg,stim_fb/posf.jpg,stim_03/b.jpg,stim_03/a.jpg,1,1,f,5,33,333,3,f,1,0.566515385164,03,02,60.0273479709,PLT_learning_3,A,2014_Feb_19_1805,P07,
stim_fb/ques.jpg,stim_fb/posf.jpg,stim_fb/negf.jpg,stim_03/f.jpg,stim_03/e.jpg,1,3,f,5,34,334,49,None,0,,03,02,60.0273479709,PLT_learning_3,A,2014_Feb_19_1805,P07,
stim_fb/ques.jpg,stim_fb/negf.jpg,stim_fb/posf.jpg,stim_03/d.jpg,stim_03/c.jpg,1,2,f,5,35,335,23,j,0,1.38288647872,03,02,60.0273479709,PLT_learning_3,A,2014_Feb_19_1805,P07,
stim_fb/ques.jpg,stim_fb/posf.jpg,stim_fb/negf.jpg,stim_03/d.jpg,stim_03/c.jpg,1,2,f,5,36,336,27,f,1,0.633165027462,03,02,60.0273479709,PLT_learning_3,A,2014_Feb_19_1805,P07,
stim_fb/ques.jpg,stim_fb/posf.jpg,stim_fb/negf.jpg,stim_03/a.jpg,stim_03/b.jpg,2,1,j,5,37,337,19,j,1,0.733190939951,03,02,60.0273479709,PLT_learning_3,A,2014_Feb_19_1805,P07,
stim_fb/ques.jpg,stim_fb/posf.jpg,stim_fb/negf.jpg,stim_03/e.jpg,stim_03/f.jpg,2,3,j,5,38,338,59,j,1,1.116328276,03,02,60.0273479709,PLT_learning_3,A,2014_Feb_19_1805,P07,
stim_fb/ques.jpg,stim_fb/posf.jpg,stim_fb/negf.jpg,stim_03/f.jpg,stim_03/e.jpg,1,3,f,5,39,339,48,f,1,1.23299341135,03,02,60.0273479709,PLT_learning_3,A,2014_Feb_19_1805,P07,
stim_fb/ques.jpg,stim_fb/negf.jpg,stim_fb/posf.jpg,stim_03/a.jpg,stim_03/b.jpg,2,1,j,5,40,340,10,f,0,1.0996911704,03,02,60.0273479709,PLT_learning_3,A,2014_Feb_19_1805,P07,
stim_fb/ques.jpg,stim_fb/negf.jpg,stim_fb/posf.jpg,stim_03/e.jpg,stim_03/f.jpg,2,3,j,5,41,341,51,f,0,0.999715191183,03,02,60.0273479709,PLT_learning_3,A,2014_Feb_19_1805,P07,
stim_fb/ques.jpg,stim_fb/negf.jpg,stim_fb/posf.jpg,stim_03/d.jpg,stim_03/c.jpg,1,2,f,5,42,342,24,j,0,0.983070263117,03,02,60.0273479709,PLT_learning_3,A,2014_Feb_19_1805,P07,
stim_fb/ques.jpg,stim_fb/negf.jpg,stim_fb/posf.jpg,stim_03/b.jpg,stim_03/a.jpg,1,1,f,5,43,343,5,f,1,0.899759798198,03,02,60.0273479709,PLT_learning_3,A,2014_Feb_19_1805,P07,
stim_fb/ques.jpg,stim_fb/negf.jpg,stim_fb/posf.jpg,stim_03/a.jpg,stim_03/b.jpg,2,1,j,5,44,344,13,j,1,1.21629314256,03,02,60.0273479709,PLT_learning_3,A,2014_Feb_19_1805,P07,
stim_fb/ques.jpg,stim_fb/negf.jpg,stim_fb/posf.jpg,stim_03/b.jpg,stim_03/a.jpg,1,1,f,5,45,345,7,None,0,,03,02,60.0273479709,PLT_learning_3,A,2014_Feb_19_1805,P07,
stim_fb/ques.jpg,stim_fb/negf.jpg,stim_fb/posf.jpg,stim_03/c.jpg,stim_03/d.jpg,2,2,j,5,46,346,32,j,1,0.799759816242,03,02,60.0273479709,PLT_learning_3,A,2014_Feb_19_1805,P07,
stim_fb/ques.jpg,stim_fb/posf.jpg,stim_fb/negf.jpg,stim_03/d.jpg,stim_03/c.jpg,1,2,f,5,47,347,28,j,0,0.983054203149,03,02,60.0273479709,PLT_learning_3,A,2014_Feb_19_1805,P07,
stim_fb/ques.jpg,stim_fb/posf.jpg,stim_fb/negf.jpg,stim_03/b.jpg,stim_03/a.jpg,1,1,f,5,48,348,9,j,0,1.33293360451,03,02,60.0273479709,PLT_learning_3,A,2014_Feb_19_1805,P07,
stim_fb/ques.jpg,stim_fb/negf.jpg,stim_fb/posf.jpg,stim_03/e.jpg,stim_03/f.jpg,2,3,j,5,49,349,55,j,1,1.11635328323,03,02,60.0273479709,PLT_learning_3,A,2014_Feb_19_1805,P07,
stim_fb/ques.jpg,stim_fb/negf.jpg,stim_fb/posf.jpg,stim_03/b.jpg,stim_03/a.jpg,1,1,f,5,50,350,6,j,0,1.04973656688,03,02,60.0273479709,PLT_learning_3,A,2014_Feb_19_1805,P07,
stim_fb/ques.jpg,stim_fb/posf.jpg,stim_fb/negf.jpg,stim_03/e.jpg,stim_03/f.jpg,2,3,j,5,51,351,58,j,1,0.949757207251,03,02,60.0273479709,PLT_learning_3,A,2014_Feb_19_1805,P07,
stim_fb/ques.jpg,stim_fb/negf.jpg,stim_fb/posf.jpg,stim_03/f.jpg,stim_03/e.jpg,1,3,f,5,52,352,43,j,0,1.04961618628,03,02,60.0273479709,PLT_learning_3,A,2014_Feb_19_1805,P07,
stim_fb/ques.jpg,stim_fb/negf.jpg,stim_fb/posf.jpg,stim_03/a.jpg,stim_03/b.jpg,2,1,j,5,53,353,12,j,1,1.01636916877,03,02,60.0273479709,PLT_learning_3,A,2014_Feb_19_1805,P07,
stim_fb/ques.jpg,stim_fb/negf.jpg,stim_fb/posf.jpg,stim_03/d.jpg,stim_03/c.jpg,1,2,f,5,54,354,22,f,1,0.99969202152,03,02,60.0273479709,PLT_learning_3,A,2014_Feb_19_1805,P07,
stim_fb/ques.jpg,stim_fb/posf.jpg,stim_fb/negf.jpg,stim_03/c.jpg,stim_03/d.jpg,2,2,j,5,55,355,38,j,1,1.13301189536,03,02,60.0273479709,PLT_learning_3,A,2014_Feb_19_1805,P07,
stim_fb/ques.jpg,stim_fb/posf.jpg,stim_fb/negf.jpg,stim_03/a.jpg,stim_03/b.jpg,2,1,j,5,56,356,18,f,0,0.733144131458,03,02,60.0273479709,PLT_learning_3,A,2014_Feb_19_1805,P07,
stim_fb/ques.jpg,stim_fb/negf.jpg,stim_fb/posf.jpg,stim_03/e.jpg,stim_03/f.jpg,2,3,j,5,57,357,52,f,0,0.666493385412,03,02,60.0273479709,PLT_learning_3,A,2014_Feb_19_1805,P07,
stim_fb/ques.jpg,stim_fb/posf.jpg,stim_fb/negf.jpg,stim_03/f.jpg,stim_03/e.jpg,1,3,f,5,58,358,46,j,0,0.849848800202,03,02,60.0273479709,PLT_learning_3,A,2014_Feb_19_1805,P07,
stim_fb/ques.jpg,stim_fb/negf.jpg,stim_fb/posf.jpg,stim_03/b.jpg,stim_03/a.jpg,1,1,f,5,59,359,1,f,1,1.23292919854,03,02,60.0273479709,PLT_learning_3,A,2014_Feb_19_1805,P07,
