Fb3,Fb2,Fb1,Symbol2,Symbol1,PosCond,Pair,Correct,trials.thisRepN,trials.thisTrialN,trials.thisN,trials.thisIndex,Response.keys,Response.corr,Response.rt,Version,Session Number,frameRate,expName,StimCondition,date,Participant,
stim_fb/ques.jpg,stim_fb/negf.jpg,stim_fb/posf.jpg,stim_01/c.jpg,stim_01/d.jpg,2,2,j,0,0,0,31,j,1,1.24964924155,01,03,60.0251774347,PLT_learning_01,A,2014_Feb_25_1129,P08,
stim_fb/ques.jpg,stim_fb/posf.jpg,stim_fb/negf.jpg,stim_01/f.jpg,stim_01/e.jpg,1,3,f,0,1,1,47,j,0,1.11634457657,01,03,60.0251774347,PLT_learning_01,A,2014_Feb_25_1129,P08,
stim_fb/ques.jpg,stim_fb/negf.jpg,stim_fb/posf.jpg,stim_01/e.jpg,stim_01/f.jpg,2,3,j,0,2,2,52,f,0,1.3996259982,01,03,60.0251774347,PLT_learning_01,A,2014_Feb_25_1129,P08,
stim_fb/ques.jpg,stim_fb/posf.jpg,stim_fb/negf.jpg,stim_01/e.jpg,stim_01/f.jpg,2,3,j,0,3,3,59,None,0,,01,03,60.0251774347,PLT_learning_01,A,2014_Feb_25_1129,P08,
stim_fb/ques.jpg,stim_fb/posf.jpg,stim_fb/negf.jpg,stim_01/a.jpg,stim_01/b.jpg,2,1,j,0,4,4,19,f,0,0.833111975429,01,03,60.0251774347,PLT_learning_01,A,2014_Feb_25_1129,P08,
stim_fb/ques.jpg,stim_fb/posf.jpg,stim_fb/negf.jpg,stim_01/d.jpg,stim_01/c.jpg,1,2,f,0,5,5,29,f,1,0.916431020703,01,03,60.0251774347,PLT_learning_01,A,2014_Feb_25_1129,P08,
stim_fb/ques.jpg,stim_fb/posf.jpg,stim_fb/negf.jpg,stim_01/c.jpg,stim_01/d.jpg,2,2,j,0,6,6,37,j,1,0.966554641865,01,03,60.0251774347,PLT_learning_01,A,2014_Feb_25_1129,P08,
stim_fb/ques.jpg,stim_fb/negf.jpg,stim_fb/posf.jpg,stim_01/b.jpg,stim_01/a.jpg,1,1,f,0,7,7,0,f,1,1.3495607433,01,03,60.0251774347,PLT_learning_01,A,2014_Feb_25_1129,P08,
stim_fb/ques.jpg,stim_fb/negf.jpg,stim_fb/posf.jpg,stim_01/f.jpg,stim_01/e.jpg,1,3,f,0,8,8,43,j,0,1.11633740672,01,03,60.0251774347,PLT_learning_01,A,2014_Feb_25_1129,P08,
stim_fb/ques.jpg,stim_fb/negf.jpg,stim_fb/posf.jpg,stim_01/c.jpg,stim_01/d.jpg,2,2,j,0,9,9,36,j,1,1.01637654613,01,03,60.0251774347,PLT_learning_01,A,2014_Feb_25_1129,P08,
stim_fb/ques.jpg,stim_fb/negf.jpg,stim_fb/posf.jpg,stim_01/c.jpg,stim_01/d.jpg,2,2,j,0,10,10,32,j,1,0.733139148055,01,03,60.0251774347,PLT_learning_01,A,2014_Feb_25_1129,P08,
stim_fb/ques.jpg,stim_fb/negf.jpg,stim_fb/posf.jpg,stim_01/c.jpg,stim_01/d.jpg,2,2,j,0,11,11,33,j,1,0.549878631444,01,03,60.0251774347,PLT_learning_01,A,2014_Feb_25_1129,P08,
stim_fb/ques.jpg,stim_fb/posf.jpg,stim_fb/negf.jpg,stim_01/e.jpg,stim_01/f.jpg,2,3,j,0,12,12,58,j,1,1.3162226802,01,03,60.0251774347,PLT_learning_01,A,2014_Feb_25_1129,P08,
stim_fb/ques.jpg,stim_fb/negf.jpg,stim_fb/posf.jpg,stim_01/c.jpg,stim_01/d.jpg,2,2,j,0,13,13,35,j,1,0.999730709804,01,03,60.0251774347,PLT_learning_01,A,2014_Feb_25_1129,P08,
stim_fb/ques.jpg,stim_fb/negf.jpg,stim_fb/posf.jpg,stim_01/a.jpg,stim_01/b.jpg,2,1,j,0,14,14,14,f,0,1.01635802002,01,03,60.0251774347,PLT_learning_01,A,2014_Feb_25_1129,P08,
stim_fb/ques.jpg,stim_fb/negf.jpg,stim_fb/posf.jpg,stim_01/b.jpg,stim_01/a.jpg,1,1,f,0,15,15,7,j,0,1.01639516246,01,03,60.0251774347,PLT_learning_01,A,2014_Feb_25_1129,P08,
stim_fb/ques.jpg,stim_fb/negf.jpg,stim_fb/posf.jpg,stim_01/d.jpg,stim_01/c.jpg,1,2,f,0,16,16,25,f,1,0.916419351661,01,03,60.0251774347,PLT_learning_01,A,2014_Feb_25_1129,P08,
stim_fb/ques.jpg,stim_fb/posf.jpg,stim_fb/negf.jpg,stim_01/f.jpg,stim_01/e.jpg,1,3,f,0,17,17,48,j,0,0.883098759036,01,03,60.0251774347,PLT_learning_01,A,2014_Feb_25_1129,P08,
stim_fb/ques.jpg,stim_fb/negf.jpg,stim_fb/posf.jpg,stim_01/f.jpg,stim_01/e.jpg,1,3,f,0,18,18,44,j,0,0.833094234275,01,03,60.0251774347,PLT_learning_01,A,2014_Feb_25_1129,P08,
stim_fb/ques.jpg,stim_fb/posf.jpg,stim_fb/negf.jpg,stim_01/b.jpg,stim_01/a.jpg,1,1,f,0,19,19,8,j,0,1.1996531979,01,03,60.0251774347,PLT_learning_01,A,2014_Feb_25_1129,P08,
stim_fb/ques.jpg,stim_fb/negf.jpg,stim_fb/posf.jpg,stim_01/d.jpg,stim_01/c.jpg,1,2,f,0,20,20,26,f,1,0.716505480013,01,03,60.0251774347,PLT_learning_01,A,2014_Feb_25_1129,P08,
stim_fb/ques.jpg,stim_fb/negf.jpg,stim_fb/posf.jpg,stim_01/a.jpg,stim_01/b.jpg,2,1,j,0,21,21,15,j,1,0.966382550573,01,03,60.0251774347,PLT_learning_01,A,2014_Feb_25_1129,P08,
stim_fb/ques.jpg,stim_fb/negf.jpg,stim_fb/posf.jpg,stim_01/e.jpg,stim_01/f.jpg,2,3,j,0,22,22,50,j,1,0.883051063334,01,03,60.0251774347,PLT_learning_01,A,2014_Feb_25_1129,P08,
stim_fb/ques.jpg,stim_fb/negf.jpg,stim_fb/posf.jpg,stim_01/a.jpg,stim_01/b.jpg,2,1,j,0,23,23,17,f,0,1.0663814378,01,03,60.0251774347,PLT_learning_01,A,2014_Feb_25_1129,P08,
stim_fb/ques.jpg,stim_fb/negf.jpg,stim_fb/posf.jpg,stim_01/b.jpg,stim_01/a.jpg,1,1,f,0,24,24,3,j,0,0.683192150464,01,03,60.0251774347,PLT_learning_01,A,2014_Feb_25_1129,P08,
stim_fb/ques.jpg,stim_fb/negf.jpg,stim_fb/posf.jpg,stim_01/a.jpg,stim_01/b.jpg,2,1,j,0,25,25,16,f,0,0.633204377395,01,03,60.0251774347,PLT_learning_01,A,2014_Feb_25_1129,P08,
stim_fb/ques.jpg,stim_fb/posf.jpg,stim_fb/negf.jpg,stim_01/a.jpg,stim_01/b.jpg,2,1,j,0,26,26,18,f,0,0.633150799051,01,03,60.0251774347,PLT_learning_01,A,2014_Feb_25_1129,P08,
stim_fb/ques.jpg,stim_fb/negf.jpg,stim_fb/posf.jpg,stim_01/f.jpg,stim_01/e.jpg,1,3,f,0,27,27,40,j,0,0.683160935779,01,03,60.0251774347,PLT_learning_01,A,2014_Feb_25_1129,P08,
stim_fb/ques.jpg,stim_fb/negf.jpg,stim_fb/posf.jpg,stim_01/b.jpg,stim_01/a.jpg,1,1,f,0,28,28,5,j,0,0.716471290925,01,03,60.0251774347,PLT_learning_01,A,2014_Feb_25_1129,P08,
stim_fb/ques.jpg,stim_fb/negf.jpg,stim_fb/posf.jpg,stim_01/c.jpg,stim_01/d.jpg,2,2,j,0,29,29,34,j,1,0.866428261335,01,03,60.0251774347,PLT_learning_01,A,2014_Feb_25_1129,P08,
stim_fb/ques.jpg,stim_fb/negf.jpg,stim_fb/posf.jpg,stim_01/d.jpg,stim_01/c.jpg,1,2,f,0,30,30,23,f,1,0.64984450852,01,03,60.0251774347,PLT_learning_01,A,2014_Feb_25_1129,P08,
stim_fb/ques.jpg,stim_fb/posf.jpg,stim_fb/negf.jpg,stim_01/c.jpg,stim_01/d.jpg,2,2,j,0,31,31,38,j,1,0.633132245877,01,03,60.0251774347,PLT_learning_01,A,2014_Feb_25_1129,P08,
stim_fb/ques.jpg,stim_fb/negf.jpg,stim_fb/posf.jpg,stim_01/a.jpg,stim_01/b.jpg,2,1,j,0,32,32,10,f,0,0.649818328365,01,03,60.0251774347,PLT_learning_01,A,2014_Feb_25_1129,P08,
stim_fb/ques.jpg,stim_fb/negf.jpg,stim_fb/posf.jpg,stim_01/d.jpg,stim_01/c.jpg,1,2,f,0,33,33,20,f,1,0.599858218141,01,03,60.0251774347,PLT_learning_01,A,2014_Feb_25_1129,P08,
stim_fb/ques.jpg,stim_fb/negf.jpg,stim_fb/posf.jpg,stim_01/a.jpg,stim_01/b.jpg,2,1,j,0,34,34,13,f,0,0.733130739127,01,03,60.0251774347,PLT_learning_01,A,2014_Feb_25_1129,P08,
stim_fb/ques.jpg,stim_fb/negf.jpg,stim_fb/posf.jpg,stim_01/f.jpg,stim_01/e.jpg,1,3,f,0,35,35,41,j,0,0.849768304869,01,03,60.0251774347,PLT_learning_01,A,2014_Feb_25_1129,P08,
stim_fb/ques.jpg,stim_fb/negf.jpg,stim_fb/posf.jpg,stim_01/c.jpg,stim_01/d.jpg,2,2,j,0,36,36,30,j,1,0.98305482269,01,03,60.0251774347,PLT_learning_01,A,2014_Feb_25_1129,P08,
stim_fb/ques.jpg,stim_fb/negf.jpg,stim_fb/posf.jpg,stim_01/e.jpg,stim_01/f.jpg,2,3,j,0,37,37,51,j,1,0.833111635583,01,03,60.0251774347,PLT_learning_01,A,2014_Feb_25_1129,P08,
stim_fb/ques.jpg,stim_fb/negf.jpg,stim_fb/posf.jpg,stim_01/a.jpg,stim_01/b.jpg,2,1,j,0,38,38,12,f,0,0.783139711958,01,03,60.0251774347,PLT_learning_01,A,2014_Feb_25_1129,P08,
stim_fb/ques.jpg,stim_fb/negf.jpg,stim_fb/posf.jpg,stim_01/e.jpg,stim_01/f.jpg,2,3,j,0,39,39,55,j,1,0.816448437048,01,03,60.0251774347,PLT_learning_01,A,2014_Feb_25_1129,P08,
stim_fb/ques.jpg,stim_fb/negf.jpg,stim_fb/posf.jpg,stim_01/b.jpg,stim_01/a.jpg,1,1,f,0,40,40,4,f,1,1.61619044898,01,03,60.0251774347,PLT_learning_01,A,2014_Feb_25_1129,P08,
stim_fb/ques.jpg,stim_fb/negf.jpg,stim_fb/posf.jpg,stim_01/a.jpg,stim_01/b.jpg,2,1,j,0,41,41,11,j,1,1.28295258625,01,03,60.0251774347,PLT_learning_01,A,2014_Feb_25_1129,P08,
stim_fb/ques.jpg,stim_fb/posf.jpg,stim_fb/negf.jpg,stim_01/f.jpg,stim_01/e.jpg,1,3,f,0,42,42,46,j,0,1.18301035402,01,03,60.0251774347,PLT_learning_01,A,2014_Feb_25_1129,P08,
stim_fb/ques.jpg,stim_fb/posf.jpg,stim_fb/negf.jpg,stim_01/e.jpg,stim_01/f.jpg,2,3,j,0,43,43,56,f,0,1.03303789807,01,03,60.0251774347,PLT_learning_01,A,2014_Feb_25_1129,P08,
stim_fb/ques.jpg,stim_fb/posf.jpg,stim_fb/negf.jpg,stim_01/f.jpg,stim_01/e.jpg,1,3,f,0,44,44,49,j,0,0.583145654748,01,03,60.0251774347,PLT_learning_01,A,2014_Feb_25_1129,P08,
stim_fb/ques.jpg,stim_fb/posf.jpg,stim_fb/negf.jpg,stim_01/d.jpg,stim_01/c.jpg,1,2,f,0,45,45,27,f,1,0.783137742056,01,03,60.0251774347,PLT_learning_01,A,2014_Feb_25_1129,P08,
stim_fb/ques.jpg,stim_fb/posf.jpg,stim_fb/negf.jpg,stim_01/e.jpg,stim_01/f.jpg,2,3,j,0,46,46,57,f,0,1.01639003771,01,03,60.0251774347,PLT_learning_01,A,2014_Feb_25_1129,P08,
stim_fb/ques.jpg,stim_fb/negf.jpg,stim_fb/posf.jpg,stim_01/b.jpg,stim_01/a.jpg,1,1,f,0,47,47,6,j,0,0.866441575471,01,03,60.0251774347,PLT_learning_01,A,2014_Feb_25_1129,P08,
stim_fb/ques.jpg,stim_fb/negf.jpg,stim_fb/posf.jpg,stim_01/d.jpg,stim_01/c.jpg,1,2,f,0,48,48,21,f,1,0.599788197877,01,03,60.0251774347,PLT_learning_01,A,2014_Feb_25_1129,P08,
stim_fb/ques.jpg,stim_fb/negf.jpg,stim_fb/posf.jpg,stim_01/d.jpg,stim_01/c.jpg,1,2,f,0,49,49,24,f,1,0.616567244731,01,03,60.0251774347,PLT_learning_01,A,2014_Feb_25_1129,P08,
stim_fb/ques.jpg,stim_fb/negf.jpg,stim_fb/posf.jpg,stim_01/b.jpg,stim_01/a.jpg,1,1,f,0,50,50,1,j,0,1.01635242911,01,03,60.0251774347,PLT_learning_01,A,2014_Feb_25_1129,P08,
stim_fb/ques.jpg,stim_fb/negf.jpg,stim_fb/posf.jpg,stim_01/b.jpg,stim_01/a.jpg,1,1,f,0,51,51,2,j,0,0.78312846998,01,03,60.0251774347,PLT_learning_01,A,2014_Feb_25_1129,P08,
stim_fb/ques.jpg,stim_fb/posf.jpg,stim_fb/negf.jpg,stim_01/c.jpg,stim_01/d.jpg,2,2,j,0,52,52,39,j,1,0.666525700838,01,03,60.0251774347,PLT_learning_01,A,2014_Feb_25_1129,P08,
stim_fb/ques.jpg,stim_fb/negf.jpg,stim_fb/posf.jpg,stim_01/f.jpg,stim_01/e.jpg,1,3,f,0,53,53,42,j,0,0.716439865716,01,03,60.0251774347,PLT_learning_01,A,2014_Feb_25_1129,P08,
stim_fb/ques.jpg,stim_fb/negf.jpg,stim_fb/posf.jpg,stim_01/f.jpg,stim_01/e.jpg,1,3,f,0,54,54,45,j,0,0.683163356804,01,03,60.0251774347,PLT_learning_01,A,2014_Feb_25_1129,P08,
stim_fb/ques.jpg,stim_fb/negf.jpg,stim_fb/posf.jpg,stim_01/e.jpg,stim_01/f.jpg,2,3,j,0,55,55,54,j,1,1.13293574584,01,03,60.0251774347,PLT_learning_01,A,2014_Feb_25_1129,P08,
stim_fb/ques.jpg,stim_fb/negf.jpg,stim_fb/posf.jpg,stim_01/d.jpg,stim_01/c.jpg,1,2,f,0,56,56,22,f,1,0.549890234321,01,03,60.0251774347,PLT_learning_01,A,2014_Feb_25_1129,P08,
stim_fb/ques.jpg,stim_fb/negf.jpg,stim_fb/posf.jpg,stim_01/e.jpg,stim_01/f.jpg,2,3,j,0,57,57,53,j,1,0.799793839919,01,03,60.0251774347,PLT_learning_01,A,2014_Feb_25_1129,P08,
stim_fb/ques.jpg,stim_fb/posf.jpg,stim_fb/negf.jpg,stim_01/d.jpg,stim_01/c.jpg,1,2,f,0,58,58,28,f,1,0.633179788198,01,03,60.0251774347,PLT_learning_01,A,2014_Feb_25_1129,P08,
stim_fb/ques.jpg,stim_fb/posf.jpg,stim_fb/negf.jpg,stim_01/b.jpg,stim_01/a.jpg,1,1,f,0,59,59,9,f,1,0.949699779326,01,03,60.0251774347,PLT_learning_01,A,2014_Feb_25_1129,P08,
stim_fb/ques.jpg,stim_fb/negf.jpg,stim_fb/posf.jpg,stim_01/f.jpg,stim_01/e.jpg,1,3,f,1,0,60,42,j,0,0.666486684737,01,03,60.0251774347,PLT_learning_01,A,2014_Feb_25_1129,P08,
stim_fb/ques.jpg,stim_fb/posf.jpg,stim_fb/negf.jpg,stim_01/f.jpg,stim_01/e.jpg,1,3,f,1,1,61,46,j,0,0.533213120153,01,03,60.0251774347,PLT_learning_01,A,2014_Feb_25_1129,P08,
stim_fb/ques.jpg,stim_fb/negf.jpg,stim_fb/posf.jpg,stim_01/f.jpg,stim_01/e.jpg,1,3,f,1,2,62,40,j,0,0.599861336902,01,03,60.0251774347,PLT_learning_01,A,2014_Feb_25_1129,P08,
stim_fb/ques.jpg,stim_fb/negf.jpg,stim_fb/posf.jpg,stim_01/d.jpg,stim_01/c.jpg,1,2,f,1,3,63,25,f,1,0.599866518799,01,03,60.0251774347,PLT_learning_01,A,2014_Feb_25_1129,P08,
stim_fb/ques.jpg,stim_fb/posf.jpg,stim_fb/negf.jpg,stim_01/e.jpg,stim_01/f.jpg,2,3,j,1,4,64,57,j,1,0.733138684902,01,03,60.0251774347,PLT_learning_01,A,2014_Feb_25_1129,P08,
stim_fb/ques.jpg,stim_fb/negf.jpg,stim_fb/posf.jpg,stim_01/c.jpg,stim_01/d.jpg,2,2,j,1,5,65,34,j,1,0.733149710341,01,03,60.0251774347,PLT_learning_01,A,2014_Feb_25_1129,P08,
stim_fb/ques.jpg,stim_fb/negf.jpg,stim_fb/posf.jpg,stim_01/d.jpg,stim_01/c.jpg,1,2,f,1,6,66,26,f,1,0.583170520633,01,03,60.0251774347,PLT_learning_01,A,2014_Feb_25_1129,P08,
stim_fb/ques.jpg,stim_fb/negf.jpg,stim_fb/posf.jpg,stim_01/e.jpg,stim_01/f.jpg,2,3,j,1,7,67,51,j,1,0.666484531378,01,03,60.0251774347,PLT_learning_01,A,2014_Feb_25_1129,P08,
stim_fb/ques.jpg,stim_fb/posf.jpg,stim_fb/negf.jpg,stim_01/f.jpg,stim_01/e.jpg,1,3,f,1,8,68,47,j,0,0.716466593234,01,03,60.0251774347,PLT_learning_01,A,2014_Feb_25_1129,P08,
stim_fb/ques.jpg,stim_fb/posf.jpg,stim_fb/negf.jpg,stim_01/e.jpg,stim_01/f.jpg,2,3,j,1,9,69,56,f,0,0.616464653406,01,03,60.0251774347,PLT_learning_01,A,2014_Feb_25_1129,P08,
stim_fb/ques.jpg,stim_fb/negf.jpg,stim_fb/posf.jpg,stim_01/c.jpg,stim_01/d.jpg,2,2,j,1,10,70,31,j,1,0.666542404409,01,03,60.0251774347,PLT_learning_01,A,2014_Feb_25_1129,P08,
stim_fb/ques.jpg,stim_fb/negf.jpg,stim_fb/posf.jpg,stim_01/d.jpg,stim_01/c.jpg,1,2,f,1,11,71,23,f,1,0.483214565249,01,03,60.0251774347,PLT_learning_01,A,2014_Feb_25_1129,P08,
stim_fb/ques.jpg,stim_fb/negf.jpg,stim_fb/posf.jpg,stim_01/e.jpg,stim_01/f.jpg,2,3,j,1,12,72,54,j,1,0.783109715304,01,03,60.0251774347,PLT_learning_01,A,2014_Feb_25_1129,P08,
stim_fb/ques.jpg,stim_fb/negf.jpg,stim_fb/posf.jpg,stim_01/b.jpg,stim_01/a.jpg,1,1,f,1,13,73,5,f,1,0.799812934441,01,03,60.0251774347,PLT_learning_01,A,2014_Feb_25_1129,P08,
stim_fb/ques.jpg,stim_fb/posf.jpg,stim_fb/negf.jpg,stim_01/c.jpg,stim_01/d.jpg,2,2,j,1,14,74,37,j,1,0.633151087769,01,03,60.0251774347,PLT_learning_01,A,2014_Feb_25_1129,P08,
stim_fb/ques.jpg,stim_fb/posf.jpg,stim_fb/negf.jpg,stim_01/e.jpg,stim_01/f.jpg,2,3,j,1,15,75,59,j,1,0.683146241208,01,03,60.0251774347,PLT_learning_01,A,2014_Feb_25_1129,P08,
stim_fb/ques.jpg,stim_fb/negf.jpg,stim_fb/posf.jpg,stim_01/a.jpg,stim_01/b.jpg,2,1,j,1,16,76,12,f,0,0.733165096634,01,03,60.0251774347,PLT_learning_01,A,2014_Feb_25_1129,P08,
stim_fb/ques.jpg,stim_fb/negf.jpg,stim_fb/posf.jpg,stim_01/e.jpg,stim_01/f.jpg,2,3,j,1,17,77,55,j,1,0.733141439758,01,03,60.0251774347,PLT_learning_01,A,2014_Feb_25_1129,P08,
stim_fb/ques.jpg,stim_fb/negf.jpg,stim_fb/posf.jpg,stim_01/b.jpg,stim_01/a.jpg,1,1,f,1,18,78,2,j,0,0.716458310621,01,03,60.0251774347,PLT_learning_01,A,2014_Feb_25_1129,P08,
stim_fb/ques.jpg,stim_fb/negf.jpg,stim_fb/posf.jpg,stim_01/a.jpg,stim_01/b.jpg,2,1,j,1,19,79,14,j,1,0.949717403187,01,03,60.0251774347,PLT_learning_01,A,2014_Feb_25_1129,P08,
stim_fb/ques.jpg,stim_fb/posf.jpg,stim_fb/negf.jpg,stim_01/b.jpg,stim_01/a.jpg,1,1,f,1,20,80,8,j,0,0.683149266737,01,03,60.0251774347,PLT_learning_01,A,2014_Feb_25_1129,P08,
stim_fb/ques.jpg,stim_fb/posf.jpg,stim_fb/negf.jpg,stim_01/a.jpg,stim_01/b.jpg,2,1,j,1,21,81,19,f,0,0.816458352725,01,03,60.0251774347,PLT_learning_01,A,2014_Feb_25_1129,P08,
stim_fb/ques.jpg,stim_fb/posf.jpg,stim_fb/negf.jpg,stim_01/c.jpg,stim_01/d.jpg,2,2,j,1,22,82,38,j,1,0.766489484705,01,03,60.0251774347,PLT_learning_01,A,2014_Feb_25_1129,P08,
stim_fb/ques.jpg,stim_fb/negf.jpg,stim_fb/posf.jpg,stim_01/b.jpg,stim_01/a.jpg,1,1,f,1,23,83,7,j,0,0.883092695947,01,03,60.0251774347,PLT_learning_01,A,2014_Feb_25_1129,P08,
stim_fb/ques.jpg,stim_fb/negf.jpg,stim_fb/posf.jpg,stim_01/c.jpg,stim_01/d.jpg,2,2,j,1,24,84,35,j,1,0.73311420999,01,03,60.0251774347,PLT_learning_01,A,2014_Feb_25_1129,P08,
stim_fb/ques.jpg,stim_fb/negf.jpg,stim_fb/posf.jpg,stim_01/f.jpg,stim_01/e.jpg,1,3,f,1,25,85,43,j,0,0.966378060398,01,03,60.0251774347,PLT_learning_01,A,2014_Feb_25_1129,P08,
stim_fb/ques.jpg,stim_fb/negf.jpg,stim_fb/posf.jpg,stim_01/b.jpg,stim_01/a.jpg,1,1,f,1,26,86,1,j,0,1.09968105322,01,03,60.0251774347,PLT_learning_01,A,2014_Feb_25_1129,P08,
stim_fb/ques.jpg,stim_fb/negf.jpg,stim_fb/posf.jpg,stim_01/b.jpg,stim_01/a.jpg,1,1,f,1,27,87,4,f,1,1.06634888178,01,03,60.0251774347,PLT_learning_01,A,2014_Feb_25_1129,P08,
stim_fb/ques.jpg,stim_fb/negf.jpg,stim_fb/posf.jpg,stim_01/a.jpg,stim_01/b.jpg,2,1,j,1,28,88,17,j,1,0.733094147059,01,03,60.0251774347,PLT_learning_01,A,2014_Feb_25_1129,P08,
stim_fb/ques.jpg,stim_fb/posf.jpg,stim_fb/negf.jpg,stim_01/d.jpg,stim_01/c.jpg,1,2,f,1,29,89,29,f,1,0.816441670207,01,03,60.0251774347,PLT_learning_01,A,2014_Feb_25_1129,P08,
stim_fb/ques.jpg,stim_fb/posf.jpg,stim_fb/negf.jpg,stim_01/a.jpg,stim_01/b.jpg,2,1,j,1,30,90,18,j,1,0.633153484735,01,03,60.0251774347,PLT_learning_01,A,2014_Feb_25_1129,P08,
stim_fb/ques.jpg,stim_fb/posf.jpg,stim_fb/negf.jpg,stim_01/f.jpg,stim_01/e.jpg,1,3,f,1,31,91,48,None,0,,01,03,60.0251774347,PLT_learning_01,A,2014_Feb_25_1129,P08,
stim_fb/ques.jpg,stim_fb/posf.jpg,stim_fb/negf.jpg,stim_01/d.jpg,stim_01/c.jpg,1,2,f,1,32,92,28,f,1,0.783155050131,01,03,60.0251774347,PLT_learning_01,A,2014_Feb_25_1129,P08,
stim_fb/ques.jpg,stim_fb/negf.jpg,stim_fb/posf.jpg,stim_01/b.jpg,stim_01/a.jpg,1,1,f,1,33,93,0,f,1,1.08304084089,01,03,60.0251774347,PLT_learning_01,A,2014_Feb_25_1129,P08,
stim_fb/ques.jpg,stim_fb/negf.jpg,stim_fb/posf.jpg,stim_01/d.jpg,stim_01/c.jpg,1,2,f,1,34,94,21,f,1,0.766462937636,01,03,60.0251774347,PLT_learning_01,A,2014_Feb_25_1129,P08,
stim_fb/ques.jpg,stim_fb/negf.jpg,stim_fb/posf.jpg,stim_01/f.jpg,stim_01/e.jpg,1,3,f,1,35,95,41,j,0,0.916357235069,01,03,60.0251774347,PLT_learning_01,A,2014_Feb_25_1129,P08,
stim_fb/ques.jpg,stim_fb/negf.jpg,stim_fb/posf.jpg,stim_01/a.jpg,stim_01/b.jpg,2,1,j,1,36,96,10,j,1,0.783058028669,01,03,60.0251774347,PLT_learning_01,A,2014_Feb_25_1129,P08,
stim_fb/ques.jpg,stim_fb/negf.jpg,stim_fb/posf.jpg,stim_01/a.jpg,stim_01/b.jpg,2,1,j,1,37,97,15,f,0,0.599835610877,01,03,60.0251774347,PLT_learning_01,A,2014_Feb_25_1129,P08,
stim_fb/ques.jpg,stim_fb/posf.jpg,stim_fb/negf.jpg,stim_01/c.jpg,stim_01/d.jpg,2,2,j,1,38,98,39,j,1,0.633176861915,01,03,60.0251774347,PLT_learning_01,A,2014_Feb_25_1129,P08,
stim_fb/ques.jpg,stim_fb/negf.jpg,stim_fb/posf.jpg,stim_01/f.jpg,stim_01/e.jpg,1,3,f,1,39,99,44,f,1,1.14968689225,01,03,60.0251774347,PLT_learning_01,A,2014_Feb_25_1129,P08,
stim_fb/ques.jpg,stim_fb/negf.jpg,stim_fb/posf.jpg,stim_01/e.jpg,stim_01/f.jpg,2,3,j,1,40,100,53,j,1,0.6498392364,01,03,60.0251774347,PLT_learning_01,A,2014_Feb_25_1129,P08,
stim_fb/ques.jpg,stim_fb/negf.jpg,stim_fb/posf.jpg,stim_01/d.jpg,stim_01/c.jpg,1,2,f,1,41,101,20,f,1,0.816434840209,01,03,60.0251774347,PLT_learning_01,A,2014_Feb_25_1129,P08,
stim_fb/ques.jpg,stim_fb/posf.jpg,stim_fb/negf.jpg,stim_01/e.jpg,stim_01/f.jpg,2,3,j,1,42,102,58,f,0,0.933078081074,01,03,60.0251774347,PLT_learning_01,A,2014_Feb_25_1129,P08,
stim_fb/ques.jpg,stim_fb/posf.jpg,stim_fb/negf.jpg,stim_01/b.jpg,stim_01/a.jpg,1,1,f,1,43,103,9,j,0,0.949750284019,01,03,60.0251774347,PLT_learning_01,A,2014_Feb_25_1129,P08,
stim_fb/ques.jpg,stim_fb/negf.jpg,stim_fb/posf.jpg,stim_01/c.jpg,stim_01/d.jpg,2,2,j,1,44,104,32,f,0,0.583177359654,01,03,60.0251774347,PLT_learning_01,A,2014_Feb_25_1129,P08,
stim_fb/ques.jpg,stim_fb/negf.jpg,stim_fb/posf.jpg,stim_01/b.jpg,stim_01/a.jpg,1,1,f,1,45,105,3,f,1,1.01641703891,01,03,60.0251774347,PLT_learning_01,A,2014_Feb_25_1129,P08,
stim_fb/ques.jpg,stim_fb/negf.jpg,stim_fb/posf.jpg,stim_01/c.jpg,stim_01/d.jpg,2,2,j,1,46,106,33,j,1,0.833128979748,01,03,60.0251774347,PLT_learning_01,A,2014_Feb_25_1129,P08,
stim_fb/ques.jpg,stim_fb/negf.jpg,stim_fb/posf.jpg,stim_01/d.jpg,stim_01/c.jpg,1,2,f,1,47,107,24,f,1,0.616497862054,01,03,60.0251774347,PLT_learning_01,A,2014_Feb_25_1129,P08,
stim_fb/ques.jpg,stim_fb/negf.jpg,stim_fb/posf.jpg,stim_01/e.jpg,stim_01/f.jpg,2,3,j,1,48,108,52,j,1,0.71647844874,01,03,60.0251774347,PLT_learning_01,A,2014_Feb_25_1129,P08,
stim_fb/ques.jpg,stim_fb/negf.jpg,stim_fb/posf.jpg,stim_01/c.jpg,stim_01/d.jpg,2,2,j,1,49,109,30,j,1,0.699811689341,01,03,60.0251774347,PLT_learning_01,A,2014_Feb_25_1129,P08,
stim_fb/ques.jpg,stim_fb/negf.jpg,stim_fb/posf.jpg,stim_01/a.jpg,stim_01/b.jpg,2,1,j,1,50,110,13,f,0,0.683132235351,01,03,60.0251774347,PLT_learning_01,A,2014_Feb_25_1129,P08,
stim_fb/ques.jpg,stim_fb/negf.jpg,stim_fb/posf.jpg,stim_01/a.jpg,stim_01/b.jpg,2,1,j,1,51,111,16,j,1,0.699822970417,01,03,60.0251774347,PLT_learning_01,A,2014_Feb_25_1129,P08,
stim_fb/ques.jpg,stim_fb/negf.jpg,stim_fb/posf.jpg,stim_01/c.jpg,stim_01/d.jpg,2,2,j,1,52,112,36,j,1,0.69984047398,01,03,60.0251774347,PLT_learning_01,A,2014_Feb_25_1129,P08,
stim_fb/ques.jpg,stim_fb/posf.jpg,stim_fb/negf.jpg,stim_01/f.jpg,stim_01/e.jpg,1,3,f,1,53,113,49,f,1,0.766460976756,01,03,60.0251774347,PLT_learning_01,A,2014_Feb_25_1129,P08,
stim_fb/ques.jpg,stim_fb/negf.jpg,stim_fb/posf.jpg,stim_01/b.jpg,stim_01/a.jpg,1,1,f,1,54,114,6,j,0,0.89973106168,01,03,60.0251774347,PLT_learning_01,A,2014_Feb_25_1129,P08,
stim_fb/ques.jpg,stim_fb/negf.jpg,stim_fb/posf.jpg,stim_01/e.jpg,stim_01/f.jpg,2,3,j,1,55,115,50,j,1,0.799818474228,01,03,60.0251774347,PLT_learning_01,A,2014_Feb_25_1129,P08,
stim_fb/ques.jpg,stim_fb/posf.jpg,stim_fb/negf.jpg,stim_01/d.jpg,stim_01/c.jpg,1,2,f,1,56,116,27,f,1,0.683170707097,01,03,60.0251774347,PLT_learning_01,A,2014_Feb_25_1129,P08,
stim_fb/ques.jpg,stim_fb/negf.jpg,stim_fb/posf.jpg,stim_01/f.jpg,stim_01/e.jpg,1,3,f,1,57,117,45,f,1,0.966381043823,01,03,60.0251774347,PLT_learning_01,A,2014_Feb_25_1129,P08,
stim_fb/ques.jpg,stim_fb/negf.jpg,stim_fb/posf.jpg,stim_01/d.jpg,stim_01/c.jpg,1,2,f,1,58,118,22,f,1,0.599884329124,01,03,60.0251774347,PLT_learning_01,A,2014_Feb_25_1129,P08,
stim_fb/ques.jpg,stim_fb/negf.jpg,stim_fb/posf.jpg,stim_01/a.jpg,stim_01/b.jpg,2,1,j,1,59,119,11,f,0,0.666473460825,01,03,60.0251774347,PLT_learning_01,A,2014_Feb_25_1129,P08,
stim_fb/ques.jpg,stim_fb/negf.jpg,stim_fb/posf.jpg,stim_01/f.jpg,stim_01/e.jpg,1,3,f,2,0,120,40,f,1,1.56618624301,01,03,60.0251774347,PLT_learning_01,A,2014_Feb_25_1129,P08,
stim_fb/ques.jpg,stim_fb/negf.jpg,stim_fb/posf.jpg,stim_01/c.jpg,stim_01/d.jpg,2,2,j,2,1,121,35,j,1,0.599835502607,01,03,60.0251774347,PLT_learning_01,A,2014_Feb_25_1129,P08,
stim_fb/ques.jpg,stim_fb/negf.jpg,stim_fb/posf.jpg,stim_01/a.jpg,stim_01/b.jpg,2,1,j,2,2,122,12,j,1,0.649817125371,01,03,60.0251774347,PLT_learning_01,A,2014_Feb_25_1129,P08,
stim_fb/ques.jpg,stim_fb/negf.jpg,stim_fb/posf.jpg,stim_01/a.jpg,stim_01/b.jpg,2,1,j,2,3,123,11,j,1,0.733151845656,01,03,60.0251774347,PLT_learning_01,A,2014_Feb_25_1129,P08,
stim_fb/ques.jpg,stim_fb/negf.jpg,stim_fb/posf.jpg,stim_01/d.jpg,stim_01/c.jpg,1,2,f,2,4,124,25,f,1,0.58320196088,01,03,60.0251774347,PLT_learning_01,A,2014_Feb_25_1129,P08,
stim_fb/ques.jpg,stim_fb/negf.jpg,stim_fb/posf.jpg,stim_01/a.jpg,stim_01/b.jpg,2,1,j,2,5,125,15,f,0,0.83312065503,01,03,60.0251774347,PLT_learning_01,A,2014_Feb_25_1129,P08,
stim_fb/ques.jpg,stim_fb/negf.jpg,stim_fb/posf.jpg,stim_01/c.jpg,stim_01/d.jpg,2,2,j,2,6,126,36,j,1,0.566481169009,01,03,60.0251774347,PLT_learning_01,A,2014_Feb_25_1129,P08,
stim_fb/ques.jpg,stim_fb/negf.jpg,stim_fb/posf.jpg,stim_01/b.jpg,stim_01/a.jpg,1,1,f,2,7,127,5,j,0,0.699827740289,01,03,60.0251774347,PLT_learning_01,A,2014_Feb_25_1129,P08,
stim_fb/ques.jpg,stim_fb/negf.jpg,stim_fb/posf.jpg,stim_01/a.jpg,stim_01/b.jpg,2,1,j,2,8,128,13,f,0,0.666497280106,01,03,60.0251774347,PLT_learning_01,A,2014_Feb_25_1129,P08,
stim_fb/ques.jpg,stim_fb/posf.jpg,stim_fb/negf.jpg,stim_01/d.jpg,stim_01/c.jpg,1,2,f,2,9,129,28,f,1,0.683144954005,01,03,60.0251774347,PLT_learning_01,A,2014_Feb_25_1129,P08,
stim_fb/ques.jpg,stim_fb/posf.jpg,stim_fb/negf.jpg,stim_01/c.jpg,stim_01/d.jpg,2,2,j,2,10,130,38,j,1,0.483428752308,01,03,60.0251774347,PLT_learning_01,A,2014_Feb_25_1129,P08,
stim_fb/ques.jpg,stim_fb/posf.jpg,stim_fb/negf.jpg,stim_01/b.jpg,stim_01/a.jpg,1,1,f,2,11,131,9,j,0,0.716471844302,01,03,60.0251774347,PLT_learning_01,A,2014_Feb_25_1129,P08,
stim_fb/ques.jpg,stim_fb/negf.jpg,stim_fb/posf.jpg,stim_01/e.jpg,stim_01/f.jpg,2,3,j,2,12,132,51,j,1,0.666488780954,01,03,60.0251774347,PLT_learning_01,A,2014_Feb_25_1129,P08,
stim_fb/ques.jpg,stim_fb/negf.jpg,stim_fb/posf.jpg,stim_01/d.jpg,stim_01/c.jpg,1,2,f,2,13,133,20,f,1,0.649822752375,01,03,60.0251774347,PLT_learning_01,A,2014_Feb_25_1129,P08,
stim_fb/ques.jpg,stim_fb/posf.jpg,stim_fb/negf.jpg,stim_01/b.jpg,stim_01/a.jpg,1,1,f,2,14,134,8,j,0,0.583195982,01,03,60.0251774347,PLT_learning_01,A,2014_Feb_25_1129,P08,
stim_fb/ques.jpg,stim_fb/posf.jpg,stim_fb/negf.jpg,stim_01/f.jpg,stim_01/e.jpg,1,3,f,2,15,135,46,j,0,0.549877332211,01,03,60.0251774347,PLT_learning_01,A,2014_Feb_25_1129,P08,
stim_fb/ques.jpg,stim_fb/negf.jpg,stim_fb/posf.jpg,stim_01/c.jpg,stim_01/d.jpg,2,2,j,2,16,136,34,j,1,0.59988714413,01,03,60.0251774347,PLT_learning_01,A,2014_Feb_25_1129,P08,
stim_fb/ques.jpg,stim_fb/negf.jpg,stim_fb/posf.jpg,stim_01/d.jpg,stim_01/c.jpg,1,2,f,2,17,137,21,f,1,0.699804101458,01,03,60.0251774347,PLT_learning_01,A,2014_Feb_25_1129,P08,
stim_fb/ques.jpg,stim_fb/negf.jpg,stim_fb/posf.jpg,stim_01/c.jpg,stim_01/d.jpg,2,2,j,2,18,138,32,j,1,0.549907665703,01,03,60.0251774347,PLT_learning_01,A,2014_Feb_25_1129,P08,
stim_fb/ques.jpg,stim_fb/negf.jpg,stim_fb/posf.jpg,stim_01/e.jpg,stim_01/f.jpg,2,3,j,2,19,139,55,j,1,0.616526583535,01,03,60.0251774347,PLT_learning_01,A,2014_Feb_25_1129,P08,
stim_fb/ques.jpg,stim_fb/negf.jpg,stim_fb/posf.jpg,stim_01/b.jpg,stim_01/a.jpg,1,1,f,2,20,140,6,j,0,0.616503522141,01,03,60.0251774347,PLT_learning_01,A,2014_Feb_25_1129,P08,
stim_fb/ques.jpg,stim_fb/negf.jpg,stim_fb/posf.jpg,stim_01/a.jpg,stim_01/b.jpg,2,1,j,2,21,141,14,j,1,0.583170445446,01,03,60.0251774347,PLT_learning_01,A,2014_Feb_25_1129,P08,
stim_fb/ques.jpg,stim_fb/negf.jpg,stim_fb/posf.jpg,stim_01/e.jpg,stim_01/f.jpg,2,3,j,2,22,142,54,j,1,0.599855992602,01,03,60.0251774347,PLT_learning_01,A,2014_Feb_25_1129,P08,
stim_fb/ques.jpg,stim_fb/posf.jpg,stim_fb/negf.jpg,stim_01/f.jpg,stim_01/e.jpg,1,3,f,2,23,143,49,j,0,0.566526254215,01,03,60.0251774347,PLT_learning_01,A,2014_Feb_25_1129,P08,
stim_fb/ques.jpg,stim_fb/negf.jpg,stim_fb/posf.jpg,stim_01/b.jpg,stim_01/a.jpg,1,1,f,2,24,144,3,j,0,0.683098016188,01,03,60.0251774347,PLT_learning_01,A,2014_Feb_25_1129,P08,
stim_fb/ques.jpg,stim_fb/negf.jpg,stim_fb/posf.jpg,stim_01/c.jpg,stim_01/d.jpg,2,2,j,2,25,145,31,j,1,0.616526643685,01,03,60.0251774347,PLT_learning_01,A,2014_Feb_25_1129,P08,
stim_fb/ques.jpg,stim_fb/negf.jpg,stim_fb/posf.jpg,stim_01/b.jpg,stim_01/a.jpg,1,1,f,2,26,146,4,j,0,0.816468214268,01,03,60.0251774347,PLT_learning_01,A,2014_Feb_25_1129,P08,
stim_fb/ques.jpg,stim_fb/negf.jpg,stim_fb/posf.jpg,stim_01/f.jpg,stim_01/e.jpg,1,3,f,2,27,147,42,j,0,0.633156083202,01,03,60.0251774347,PLT_learning_01,A,2014_Feb_25_1129,P08,
stim_fb/ques.jpg,stim_fb/posf.jpg,stim_fb/negf.jpg,stim_01/a.jpg,stim_01/b.jpg,2,1,j,2,28,148,19,f,0,0.983048443815,01,03,60.0251774347,PLT_learning_01,A,2014_Feb_25_1129,P08,
stim_fb/ques.jpg,stim_fb/negf.jpg,stim_fb/posf.jpg,stim_01/f.jpg,stim_01/e.jpg,1,3,f,2,29,149,44,j,0,0.683112536325,01,03,60.0251774347,PLT_learning_01,A,2014_Feb_25_1129,P08,
stim_fb/ques.jpg,stim_fb/negf.jpg,stim_fb/posf.jpg,stim_01/d.jpg,stim_01/c.jpg,1,2,f,2,30,150,24,f,1,0.999716983643,01,03,60.0251774347,PLT_learning_01,A,2014_Feb_25_1129,P08,
stim_fb/ques.jpg,stim_fb/negf.jpg,stim_fb/posf.jpg,stim_01/b.jpg,stim_01/a.jpg,1,1,f,2,31,151,1,j,0,0.799772676248,01,03,60.0251774347,PLT_learning_01,A,2014_Feb_25_1129,P08,
stim_fb/ques.jpg,stim_fb/negf.jpg,stim_fb/posf.jpg,stim_01/b.jpg,stim_01/a.jpg,1,1,f,2,32,152,0,f,1,0.58320388567,01,03,60.0251774347,PLT_learning_01,A,2014_Feb_25_1129,P08,
stim_fb/ques.jpg,stim_fb/negf.jpg,stim_fb/posf.jpg,stim_01/a.jpg,stim_01/b.jpg,2,1,j,2,33,153,10,j,1,0.599856037714,01,03,60.0251774347,PLT_learning_01,A,2014_Feb_25_1129,P08,
stim_fb/ques.jpg,stim_fb/posf.jpg,stim_fb/negf.jpg,stim_01/e.jpg,stim_01/f.jpg,2,3,j,2,34,154,59,f,0,0.816434542468,01,03,60.0251774347,PLT_learning_01,A,2014_Feb_25_1129,P08,
stim_fb/ques.jpg,stim_fb/negf.jpg,stim_fb/posf.jpg,stim_01/e.jpg,stim_01/f.jpg,2,3,j,2,35,155,50,f,0,0.766442143885,01,03,60.0251774347,PLT_learning_01,A,2014_Feb_25_1129,P08,
stim_fb/ques.jpg,stim_fb/negf.jpg,stim_fb/posf.jpg,stim_01/f.jpg,stim_01/e.jpg,1,3,f,2,36,156,45,j,0,0.683174794269,01,03,60.0251774347,PLT_learning_01,A,2014_Feb_25_1129,P08,
stim_fb/ques.jpg,stim_fb/posf.jpg,stim_fb/negf.jpg,stim_01/c.jpg,stim_01/d.jpg,2,2,j,2,37,157,39,j,1,0.783135239828,01,03,60.0251774347,PLT_learning_01,A,2014_Feb_25_1129,P08,
stim_fb/ques.jpg,stim_fb/posf.jpg,stim_fb/negf.jpg,stim_01/a.jpg,stim_01/b.jpg,2,1,j,2,38,158,18,j,1,0.749813931422,01,03,60.0251774347,PLT_learning_01,A,2014_Feb_25_1129,P08,
stim_fb/ques.jpg,stim_fb/posf.jpg,stim_fb/negf.jpg,stim_01/d.jpg,stim_01/c.jpg,1,2,f,2,39,159,29,f,1,0.549841744642,01,03,60.0251774347,PLT_learning_01,A,2014_Feb_25_1129,P08,
stim_fb/ques.jpg,stim_fb/negf.jpg,stim_fb/posf.jpg,stim_01/c.jpg,stim_01/d.jpg,2,2,j,2,40,160,30,j,1,0.699764568069,01,03,60.0251774347,PLT_learning_01,A,2014_Feb_25_1129,P08,
stim_fb/ques.jpg,stim_fb/negf.jpg,stim_fb/posf.jpg,stim_01/a.jpg,stim_01/b.jpg,2,1,j,2,41,161,17,j,1,0.58317273715,01,03,60.0251774347,PLT_learning_01,A,2014_Feb_25_1129,P08,
stim_fb/ques.jpg,stim_fb/negf.jpg,stim_fb/posf.jpg,stim_01/d.jpg,stim_01/c.jpg,1,2,f,2,42,162,23,f,1,0.616512207757,01,03,60.0251774347,PLT_learning_01,A,2014_Feb_25_1129,P08,
stim_fb/ques.jpg,stim_fb/negf.jpg,stim_fb/posf.jpg,stim_01/d.jpg,stim_01/c.jpg,1,2,f,2,43,163,26,f,1,0.666502137194,01,03,60.0251774347,PLT_learning_01,A,2014_Feb_25_1129,P08,
stim_fb/ques.jpg,stim_fb/posf.jpg,stim_fb/negf.jpg,stim_01/f.jpg,stim_01/e.jpg,1,3,f,2,44,164,48,j,0,0.683149426134,01,03,60.0251774347,PLT_learning_01,A,2014_Feb_25_1129,P08,
stim_fb/ques.jpg,stim_fb/negf.jpg,stim_fb/posf.jpg,stim_01/f.jpg,stim_01/e.jpg,1,3,f,2,45,165,43,f,1,0.633165779333,01,03,60.0251774347,PLT_learning_01,A,2014_Feb_25_1129,P08,
stim_fb/ques.jpg,stim_fb/negf.jpg,stim_fb/posf.jpg,stim_01/d.jpg,stim_01/c.jpg,1,2,f,2,46,166,22,f,1,0.683159621508,01,03,60.0251774347,PLT_learning_01,A,2014_Feb_25_1129,P08,
stim_fb/ques.jpg,stim_fb/negf.jpg,stim_fb/posf.jpg,stim_01/f.jpg,stim_01/e.jpg,1,3,f,2,47,167,41,j,0,0.649825913241,01,03,60.0251774347,PLT_learning_01,A,2014_Feb_25_1129,P08,
stim_fb/ques.jpg,stim_fb/posf.jpg,stim_fb/negf.jpg,stim_01/f.jpg,stim_01/e.jpg,1,3,f,2,48,168,47,f,1,0.516514427281,01,03,60.0251774347,PLT_learning_01,A,2014_Feb_25_1129,P08,
stim_fb/ques.jpg,stim_fb/posf.jpg,stim_fb/negf.jpg,stim_01/c.jpg,stim_01/d.jpg,2,2,j,2,49,169,37,j,1,0.616530739879,01,03,60.0251774347,PLT_learning_01,A,2014_Feb_25_1129,P08,
stim_fb/ques.jpg,stim_fb/negf.jpg,stim_fb/posf.jpg,stim_01/a.jpg,stim_01/b.jpg,2,1,j,2,50,170,16,j,1,0.966417846415,01,03,60.0251774347,PLT_learning_01,A,2014_Feb_25_1129,P08,
stim_fb/ques.jpg,stim_fb/negf.jpg,stim_fb/posf.jpg,stim_01/b.jpg,stim_01/a.jpg,1,1,f,2,51,171,2,f,1,0.583166899622,01,03,60.0251774347,PLT_learning_01,A,2014_Feb_25_1129,P08,
stim_fb/ques.jpg,stim_fb/posf.jpg,stim_fb/negf.jpg,stim_01/d.jpg,stim_01/c.jpg,1,2,f,2,52,172,27,f,1,0.716472608204,01,03,60.0251774347,PLT_learning_01,A,2014_Feb_25_1129,P08,
stim_fb/ques.jpg,stim_fb/posf.jpg,stim_fb/negf.jpg,stim_01/e.jpg,stim_01/f.jpg,2,3,j,2,53,173,58,j,1,0.716469305985,01,03,60.0251774347,PLT_learning_01,A,2014_Feb_25_1129,P08,
stim_fb/ques.jpg,stim_fb/posf.jpg,stim_fb/negf.jpg,stim_01/e.jpg,stim_01/f.jpg,2,3,j,2,54,174,57,f,0,0.499871565358,01,03,60.0251774347,PLT_learning_01,A,2014_Feb_25_1129,P08,
stim_fb/ques.jpg,stim_fb/negf.jpg,stim_fb/posf.jpg,stim_01/b.jpg,stim_01/a.jpg,1,1,f,2,55,175,7,f,1,1.04967109694,01,03,60.0251774347,PLT_learning_01,A,2014_Feb_25_1129,P08,
stim_fb/ques.jpg,stim_fb/posf.jpg,stim_fb/negf.jpg,stim_01/e.jpg,stim_01/f.jpg,2,3,j,2,56,176,56,f,0,0.649887852393,01,03,60.0251774347,PLT_learning_01,A,2014_Feb_25_1129,P08,
stim_fb/ques.jpg,stim_fb/negf.jpg,stim_fb/posf.jpg,stim_01/c.jpg,stim_01/d.jpg,2,2,j,2,57,177,33,j,1,0.616515404713,01,03,60.0251774347,PLT_learning_01,A,2014_Feb_25_1129,P08,
stim_fb/ques.jpg,stim_fb/negf.jpg,stim_fb/posf.jpg,stim_01/e.jpg,stim_01/f.jpg,2,3,j,2,58,178,52,j,1,0.566541544269,01,03,60.0251774347,PLT_learning_01,A,2014_Feb_25_1129,P08,
stim_fb/ques.jpg,stim_fb/negf.jpg,stim_fb/posf.jpg,stim_01/e.jpg,stim_01/f.jpg,2,3,j,2,59,179,53,j,1,0.483218111074,01,03,60.0251774347,PLT_learning_01,A,2014_Feb_25_1129,P08,
stim_fb/ques.jpg,stim_fb/negf.jpg,stim_fb/posf.jpg,stim_01/a.jpg,stim_01/b.jpg,2,1,j,3,0,180,11,j,1,0.6831463585,01,03,60.0251774347,PLT_learning_01,A,2014_Feb_25_1129,P08,
stim_fb/ques.jpg,stim_fb/negf.jpg,stim_fb/posf.jpg,stim_01/d.jpg,stim_01/c.jpg,1,2,f,3,1,181,24,f,1,0.583210041992,01,03,60.0251774347,PLT_learning_01,A,2014_Feb_25_1129,P08,
stim_fb/ques.jpg,stim_fb/negf.jpg,stim_fb/posf.jpg,stim_01/d.jpg,stim_01/c.jpg,1,2,f,3,2,182,23,f,1,0.466598536107,01,03,60.0251774347,PLT_learning_01,A,2014_Feb_25_1129,P08,
stim_fb/ques.jpg,stim_fb/negf.jpg,stim_fb/posf.jpg,stim_01/b.jpg,stim_01/a.jpg,1,1,f,3,3,183,3,j,0,0.549841816822,01,03,60.0251774347,PLT_learning_01,A,2014_Feb_25_1129,P08,
stim_fb/ques.jpg,stim_fb/posf.jpg,stim_fb/negf.jpg,stim_01/f.jpg,stim_01/e.jpg,1,3,f,3,4,184,49,j,0,0.533220711045,01,03,60.0251774347,PLT_learning_01,A,2014_Feb_25_1129,P08,
stim_fb/ques.jpg,stim_fb/posf.jpg,stim_fb/negf.jpg,stim_01/f.jpg,stim_01/e.jpg,1,3,f,3,5,185,47,j,0,0.633181060364,01,03,60.0251774347,PLT_learning_01,A,2014_Feb_25_1129,P08,
stim_fb/ques.jpg,stim_fb/posf.jpg,stim_fb/negf.jpg,stim_01/f.jpg,stim_01/e.jpg,1,3,f,3,6,186,46,j,0,0.533207090146,01,03,60.0251774347,PLT_learning_01,A,2014_Feb_25_1129,P08,
stim_fb/ques.jpg,stim_fb/posf.jpg,stim_fb/negf.jpg,stim_01/c.jpg,stim_01/d.jpg,2,2,j,3,7,187,38,j,1,0.58319508577,01,03,60.0251774347,PLT_learning_01,A,2014_Feb_25_1129,P08,
stim_fb/ques.jpg,stim_fb/negf.jpg,stim_fb/posf.jpg,stim_01/f.jpg,stim_01/e.jpg,1,3,f,3,8,188,42,j,0,0.516561127506,01,03,60.0251774347,PLT_learning_01,A,2014_Feb_25_1129,P08,
stim_fb/ques.jpg,stim_fb/negf.jpg,stim_fb/posf.jpg,stim_01/f.jpg,stim_01/e.jpg,1,3,f,3,9,189,45,j,0,0.533161180889,01,03,60.0251774347,PLT_learning_01,A,2014_Feb_25_1129,P08,
stim_fb/ques.jpg,stim_fb/negf.jpg,stim_fb/posf.jpg,stim_01/b.jpg,stim_01/a.jpg,1,1,f,3,10,190,2,j,0,0.799732992485,01,03,60.0251774347,PLT_learning_01,A,2014_Feb_25_1129,P08,
stim_fb/ques.jpg,stim_fb/negf.jpg,stim_fb/posf.jpg,stim_01/c.jpg,stim_01/d.jpg,2,2,j,3,11,191,32,j,1,0.64984098074,01,03,60.0251774347,PLT_learning_01,A,2014_Feb_25_1129,P08,
stim_fb/ques.jpg,stim_fb/negf.jpg,stim_fb/posf.jpg,stim_01/a.jpg,stim_01/b.jpg,2,1,j,3,12,192,14,j,1,0.666506281508,01,03,60.0251774347,PLT_learning_01,A,2014_Feb_25_1129,P08,
stim_fb/ques.jpg,stim_fb/posf.jpg,stim_fb/negf.jpg,stim_01/e.jpg,stim_01/f.jpg,2,3,j,3,13,193,56,f,0,0.549864577467,01,03,60.0251774347,PLT_learning_01,A,2014_Feb_25_1129,P08,
stim_fb/ques.jpg,stim_fb/negf.jpg,stim_fb/posf.jpg,stim_01/c.jpg,stim_01/d.jpg,2,2,j,3,14,194,31,j,1,0.56654331267,01,03,60.0251774347,PLT_learning_01,A,2014_Feb_25_1129,P08,
stim_fb/ques.jpg,stim_fb/negf.jpg,stim_fb/posf.jpg,stim_01/e.jpg,stim_01/f.jpg,2,3,j,3,15,195,52,f,0,0.583082747187,01,03,60.0251774347,PLT_learning_01,A,2014_Feb_25_1129,P08,
stim_fb/ques.jpg,stim_fb/negf.jpg,stim_fb/posf.jpg,stim_01/e.jpg,stim_01/f.jpg,2,3,j,3,16,196,51,f,0,0.533193354962,01,03,60.0251774347,PLT_learning_01,A,2014_Feb_25_1129,P08,
stim_fb/ques.jpg,stim_fb/negf.jpg,stim_fb/posf.jpg,stim_01/c.jpg,stim_01/d.jpg,2,2,j,3,17,197,35,j,1,0.549831410925,01,03,60.0251774347,PLT_learning_01,A,2014_Feb_25_1129,P08,
stim_fb/ques.jpg,stim_fb/negf.jpg,stim_fb/posf.jpg,stim_01/e.jpg,stim_01/f.jpg,2,3,j,3,18,198,55,f,0,0.833097933482,01,03,60.0251774347,PLT_learning_01,A,2014_Feb_25_1129,P08,
stim_fb/ques.jpg,stim_fb/posf.jpg,stim_fb/negf.jpg,stim_01/f.jpg,stim_01/e.jpg,1,3,f,3,19,199,48,j,0,0.566582193434,01,03,60.0251774347,PLT_learning_01,A,2014_Feb_25_1129,P08,
stim_fb/ques.jpg,stim_fb/posf.jpg,stim_fb/negf.jpg,stim_01/e.jpg,stim_01/f.jpg,2,3,j,3,20,200,57,j,1,1.06633182333,01,03,60.0251774347,PLT_learning_01,A,2014_Feb_25_1129,P08,
stim_fb/ques.jpg,stim_fb/negf.jpg,stim_fb/posf.jpg,stim_01/a.jpg,stim_01/b.jpg,2,1,j,3,21,201,15,j,1,0.533204007474,01,03,60.0251774347,PLT_learning_01,A,2014_Feb_25_1129,P08,
stim_fb/ques.jpg,stim_fb/negf.jpg,stim_fb/posf.jpg,stim_01/c.jpg,stim_01/d.jpg,2,2,j,3,22,202,34,j,1,0.716473766085,01,03,60.0251774347,PLT_learning_01,A,2014_Feb_25_1129,P08,
stim_fb/ques.jpg,stim_fb/posf.jpg,stim_fb/negf.jpg,stim_01/d.jpg,stim_01/c.jpg,1,2,f,3,23,203,28,f,1,0.59983490111,01,03,60.0251774347,PLT_learning_01,A,2014_Feb_25_1129,P08,
stim_fb/ques.jpg,stim_fb/negf.jpg,stim_fb/posf.jpg,stim_01/b.jpg,stim_01/a.jpg,1,1,f,3,24,204,7,f,1,0.683125775274,01,03,60.0251774347,PLT_learning_01,A,2014_Feb_25_1129,P08,
stim_fb/ques.jpg,stim_fb/posf.jpg,stim_fb/negf.jpg,stim_01/d.jpg,stim_01/c.jpg,1,2,f,3,25,205,29,f,1,0.549889753123,01,03,60.0251774347,PLT_learning_01,A,2014_Feb_25_1129,P08,
stim_fb/ques.jpg,stim_fb/negf.jpg,stim_fb/posf.jpg,stim_01/f.jpg,stim_01/e.jpg,1,3,f,3,26,206,43,j,0,0.56653092484,01,03,60.0251774347,PLT_learning_01,A,2014_Feb_25_1129,P08,
stim_fb/ques.jpg,stim_fb/negf.jpg,stim_fb/posf.jpg,stim_01/a.jpg,stim_01/b.jpg,2,1,j,3,27,207,12,j,1,0.566536157863,01,03,60.0251774347,PLT_learning_01,A,2014_Feb_25_1129,P08,
stim_fb/ques.jpg,stim_fb/negf.jpg,stim_fb/posf.jpg,stim_01/e.jpg,stim_01/f.jpg,2,3,j,3,28,208,53,j,1,0.716476054781,01,03,60.0251774347,PLT_learning_01,A,2014_Feb_25_1129,P08,
stim_fb/ques.jpg,stim_fb/negf.jpg,stim_fb/posf.jpg,stim_01/d.jpg,stim_01/c.jpg,1,2,f,3,29,209,21,f,1,0.549857037703,01,03,60.0251774347,PLT_learning_01,A,2014_Feb_25_1129,P08,
stim_fb/ques.jpg,stim_fb/negf.jpg,stim_fb/posf.jpg,stim_01/a.jpg,stim_01/b.jpg,2,1,j,3,30,210,16,j,1,0.499876175832,01,03,60.0251774347,PLT_learning_01,A,2014_Feb_25_1129,P08,
stim_fb/ques.jpg,stim_fb/negf.jpg,stim_fb/posf.jpg,stim_01/f.jpg,stim_01/e.jpg,1,3,f,3,31,211,41,j,0,0.499880635933,01,03,60.0251774347,PLT_learning_01,A,2014_Feb_25_1129,P08,
stim_fb/ques.jpg,stim_fb/negf.jpg,stim_fb/posf.jpg,stim_01/a.jpg,stim_01/b.jpg,2,1,j,3,32,212,13,j,1,0.549815793054,01,03,60.0251774347,PLT_learning_01,A,2014_Feb_25_1129,P08,
stim_fb/ques.jpg,stim_fb/posf.jpg,stim_fb/negf.jpg,stim_01/e.jpg,stim_01/f.jpg,2,3,j,3,33,213,58,j,1,0.616524403108,01,03,60.0251774347,PLT_learning_01,A,2014_Feb_25_1129,P08,
stim_fb/ques.jpg,stim_fb/posf.jpg,stim_fb/negf.jpg,stim_01/b.jpg,stim_01/a.jpg,1,1,f,3,34,214,9,j,0,0.549861738401,01,03,60.0251774347,PLT_learning_01,A,2014_Feb_25_1129,P08,
stim_fb/ques.jpg,stim_fb/negf.jpg,stim_fb/posf.jpg,stim_01/c.jpg,stim_01/d.jpg,2,2,j,3,35,215,30,j,1,0.599863775972,01,03,60.0251774347,PLT_learning_01,A,2014_Feb_25_1129,P08,
stim_fb/ques.jpg,stim_fb/negf.jpg,stim_fb/posf.jpg,stim_01/e.jpg,stim_01/f.jpg,2,3,j,3,36,216,54,j,1,0.549874712691,01,03,60.0251774347,PLT_learning_01,A,2014_Feb_25_1129,P08,
stim_fb/ques.jpg,stim_fb/negf.jpg,stim_fb/posf.jpg,stim_01/f.jpg,stim_01/e.jpg,1,3,f,3,37,217,40,j,0,0.483217762206,01,03,60.0251774347,PLT_learning_01,A,2014_Feb_25_1129,P08,
stim_fb/ques.jpg,stim_fb/negf.jpg,stim_fb/posf.jpg,stim_01/b.jpg,stim_01/a.jpg,1,1,f,3,38,218,0,f,1,0.649844045368,01,03,60.0251774347,PLT_learning_01,A,2014_Feb_25_1129,P08,
stim_fb/ques.jpg,stim_fb/negf.jpg,stim_fb/posf.jpg,stim_01/a.jpg,stim_01/b.jpg,2,1,j,3,39,219,17,j,1,0.499885032876,01,03,60.0251774347,PLT_learning_01,A,2014_Feb_25_1129,P08,
stim_fb/ques.jpg,stim_fb/negf.jpg,stim_fb/posf.jpg,stim_01/b.jpg,stim_01/a.jpg,1,1,f,3,40,220,4,f,1,0.449892402718,01,03,60.0251774347,PLT_learning_01,A,2014_Feb_25_1129,P08,
stim_fb/ques.jpg,stim_fb/negf.jpg,stim_fb/posf.jpg,stim_01/a.jpg,stim_01/b.jpg,2,1,j,3,41,221,10,j,1,0.449942775082,01,03,60.0251774347,PLT_learning_01,A,2014_Feb_25_1129,P08,
stim_fb/ques.jpg,stim_fb/posf.jpg,stim_fb/negf.jpg,stim_01/c.jpg,stim_01/d.jpg,2,2,j,3,42,222,39,f,0,0.566519291888,01,03,60.0251774347,PLT_learning_01,A,2014_Feb_25_1129,P08,
stim_fb/ques.jpg,stim_fb/posf.jpg,stim_fb/negf.jpg,stim_01/a.jpg,stim_01/b.jpg,2,1,j,3,43,223,18,j,1,0.549924164765,01,03,60.0251774347,PLT_learning_01,A,2014_Feb_25_1129,P08,
stim_fb/ques.jpg,stim_fb/negf.jpg,stim_fb/posf.jpg,stim_01/f.jpg,stim_01/e.jpg,1,3,f,3,44,224,44,j,0,0.799794113601,01,03,60.0251774347,PLT_learning_01,A,2014_Feb_25_1129,P08,
stim_fb/ques.jpg,stim_fb/posf.jpg,stim_fb/negf.jpg,stim_01/b.jpg,stim_01/a.jpg,1,1,f,3,45,225,8,f,1,0.933066848119,01,03,60.0251774347,PLT_learning_01,A,2014_Feb_25_1129,P08,
stim_fb/ques.jpg,stim_fb/negf.jpg,stim_fb/posf.jpg,stim_01/e.jpg,stim_01/f.jpg,2,3,j,3,46,226,50,j,1,0.566521995616,01,03,60.0251774347,PLT_learning_01,A,2014_Feb_25_1129,P08,
stim_fb/ques.jpg,stim_fb/negf.jpg,stim_fb/posf.jpg,stim_01/c.jpg,stim_01/d.jpg,2,2,j,3,47,227,33,j,1,0.66648808021,01,03,60.0251774347,PLT_learning_01,A,2014_Feb_25_1129,P08,
stim_fb/ques.jpg,stim_fb/negf.jpg,stim_fb/posf.jpg,stim_01/d.jpg,stim_01/c.jpg,1,2,f,3,48,228,22,j,0,0.583204908215,01,03,60.0251774347,PLT_learning_01,A,2014_Feb_25_1129,P08,
stim_fb/ques.jpg,stim_fb/posf.jpg,stim_fb/negf.jpg,stim_01/d.jpg,stim_01/c.jpg,1,2,f,3,49,229,27,j,0,0.59978925952,01,03,60.0251774347,PLT_learning_01,A,2014_Feb_25_1129,P08,
stim_fb/ques.jpg,stim_fb/negf.jpg,stim_fb/posf.jpg,stim_01/b.jpg,stim_01/a.jpg,1,1,f,3,50,230,1,f,1,0.883053114439,01,03,60.0251774347,PLT_learning_01,A,2014_Feb_25_1129,P08,
stim_fb/ques.jpg,stim_fb/negf.jpg,stim_fb/posf.jpg,stim_01/b.jpg,stim_01/a.jpg,1,1,f,3,51,231,6,f,1,0.616522195614,01,03,60.0251774347,PLT_learning_01,A,2014_Feb_25_1129,P08,
stim_fb/ques.jpg,stim_fb/negf.jpg,stim_fb/posf.jpg,stim_01/c.jpg,stim_01/d.jpg,2,2,j,3,52,232,36,j,1,0.566546383311,01,03,60.0251774347,PLT_learning_01,A,2014_Feb_25_1129,P08,
stim_fb/ques.jpg,stim_fb/posf.jpg,stim_fb/negf.jpg,stim_01/a.jpg,stim_01/b.jpg,2,1,j,3,53,233,19,j,1,0.449877223941,01,03,60.0251774347,PLT_learning_01,A,2014_Feb_25_1129,P08,
stim_fb/ques.jpg,stim_fb/negf.jpg,stim_fb/posf.jpg,stim_01/d.jpg,stim_01/c.jpg,1,2,f,3,54,234,25,f,1,0.649875840498,01,03,60.0251774347,PLT_learning_01,A,2014_Feb_25_1129,P08,
stim_fb/ques.jpg,stim_fb/negf.jpg,stim_fb/posf.jpg,stim_01/b.jpg,stim_01/a.jpg,1,1,f,3,55,235,5,f,1,0.633199216551,01,03,60.0251774347,PLT_learning_01,A,2014_Feb_25_1129,P08,
stim_fb/ques.jpg,stim_fb/posf.jpg,stim_fb/negf.jpg,stim_01/e.jpg,stim_01/f.jpg,2,3,j,3,56,236,59,j,1,0.649831874077,01,03,60.0251774347,PLT_learning_01,A,2014_Feb_25_1129,P08,
stim_fb/ques.jpg,stim_fb/negf.jpg,stim_fb/posf.jpg,stim_01/d.jpg,stim_01/c.jpg,1,2,f,3,57,237,20,f,1,0.649839828874,01,03,60.0251774347,PLT_learning_01,A,2014_Feb_25_1129,P08,
stim_fb/ques.jpg,stim_fb/negf.jpg,stim_fb/posf.jpg,stim_01/d.jpg,stim_01/c.jpg,1,2,f,3,58,238,26,f,1,0.583172950681,01,03,60.0251774347,PLT_learning_01,A,2014_Feb_25_1129,P08,
stim_fb/ques.jpg,stim_fb/posf.jpg,stim_fb/negf.jpg,stim_01/c.jpg,stim_01/d.jpg,2,2,j,3,59,239,37,j,1,1.68283724319,01,03,60.0251774347,PLT_learning_01,A,2014_Feb_25_1129,P08,
stim_fb/ques.jpg,stim_fb/negf.jpg,stim_fb/posf.jpg,stim_01/b.jpg,stim_01/a.jpg,1,1,f,4,0,240,5,j,0,0.849756079443,01,03,60.0251774347,PLT_learning_01,A,2014_Feb_25_1129,P08,
stim_fb/ques.jpg,stim_fb/negf.jpg,stim_fb/posf.jpg,stim_01/a.jpg,stim_01/b.jpg,2,1,j,4,1,241,13,j,1,0.516543278084,01,03,60.0251774347,PLT_learning_01,A,2014_Feb_25_1129,P08,
stim_fb/ques.jpg,stim_fb/negf.jpg,stim_fb/posf.jpg,stim_01/f.jpg,stim_01/e.jpg,1,3,f,4,2,242,40,j,0,0.583176463423,01,03,60.0251774347,PLT_learning_01,A,2014_Feb_25_1129,P08,
stim_fb/ques.jpg,stim_fb/posf.jpg,stim_fb/negf.jpg,stim_01/f.jpg,stim_01/e.jpg,1,3,f,4,3,243,48,j,0,0.533183472367,01,03,60.0251774347,PLT_learning_01,A,2014_Feb_25_1129,P08,
stim_fb/ques.jpg,stim_fb/posf.jpg,stim_fb/negf.jpg,stim_01/c.jpg,stim_01/d.jpg,2,2,j,4,4,244,39,j,1,0.633155195994,01,03,60.0251774347,PLT_learning_01,A,2014_Feb_25_1129,P08,
stim_fb/ques.jpg,stim_fb/negf.jpg,stim_fb/posf.jpg,stim_01/e.jpg,stim_01/f.jpg,2,3,j,4,5,245,50,j,1,0.683130782735,01,03,60.0251774347,PLT_learning_01,A,2014_Feb_25_1129,P08,
stim_fb/ques.jpg,stim_fb/negf.jpg,stim_fb/posf.jpg,stim_01/c.jpg,stim_01/d.jpg,2,2,j,4,6,246,34,j,1,0.549859849702,01,03,60.0251774347,PLT_learning_01,A,2014_Feb_25_1129,P08,
stim_fb/ques.jpg,stim_fb/negf.jpg,stim_fb/posf.jpg,stim_01/d.jpg,stim_01/c.jpg,1,2,f,4,7,247,26,f,1,0.516540769841,01,03,60.0251774347,PLT_learning_01,A,2014_Feb_25_1129,P08,
stim_fb/ques.jpg,stim_fb/negf.jpg,stim_fb/posf.jpg,stim_01/b.jpg,stim_01/a.jpg,1,1,f,4,8,248,4,j,0,0.549866694737,01,03,60.0251774347,PLT_learning_01,A,2014_Feb_25_1129,P08,
stim_fb/ques.jpg,stim_fb/posf.jpg,stim_fb/negf.jpg,stim_01/f.jpg,stim_01/e.jpg,1,3,f,4,9,249,47,j,0,0.533115900196,01,03,60.0251774347,PLT_learning_01,A,2014_Feb_25_1129,P08,
stim_fb/ques.jpg,stim_fb/posf.jpg,stim_fb/negf.jpg,stim_01/e.jpg,stim_01/f.jpg,2,3,j,4,10,250,59,j,1,0.566481725394,01,03,60.0251774347,PLT_learning_01,A,2014_Feb_25_1129,P08,
stim_fb/ques.jpg,stim_fb/posf.jpg,stim_fb/negf.jpg,stim_01/d.jpg,stim_01/c.jpg,1,2,f,4,11,251,29,f,1,0.516541542765,01,03,60.0251774347,PLT_learning_01,A,2014_Feb_25_1129,P08,
stim_fb/ques.jpg,stim_fb/posf.jpg,stim_fb/negf.jpg,stim_01/c.jpg,stim_01/d.jpg,2,2,j,4,12,252,38,j,1,0.516550856945,01,03,60.0251774347,PLT_learning_01,A,2014_Feb_25_1129,P08,
stim_fb/ques.jpg,stim_fb/negf.jpg,stim_fb/posf.jpg,stim_01/a.jpg,stim_01/b.jpg,2,1,j,4,13,253,11,j,1,0.649834598858,01,03,60.0251774347,PLT_learning_01,A,2014_Feb_25_1129,P08,
stim_fb/ques.jpg,stim_fb/negf.jpg,stim_fb/posf.jpg,stim_01/f.jpg,stim_01/e.jpg,1,3,f,4,14,254,44,j,0,0.54984949493,01,03,60.0251774347,PLT_learning_01,A,2014_Feb_25_1129,P08,
stim_fb/ques.jpg,stim_fb/posf.jpg,stim_fb/negf.jpg,stim_01/e.jpg,stim_01/f.jpg,2,3,j,4,15,255,56,j,1,0.533197424089,01,03,60.0251774347,PLT_learning_01,A,2014_Feb_25_1129,P08,
stim_fb/ques.jpg,stim_fb/negf.jpg,stim_fb/posf.jpg,stim_01/f.jpg,stim_01/e.jpg,1,3,f,4,16,256,43,j,0,0.716483585524,01,03,60.0251774347,PLT_learning_01,A,2014_Feb_25_1129,P08,
stim_fb/ques.jpg,stim_fb/negf.jpg,stim_fb/posf.jpg,stim_01/d.jpg,stim_01/c.jpg,1,2,f,4,17,257,25,f,1,0.616497886114,01,03,60.0251774347,PLT_learning_01,A,2014_Feb_25_1129,P08,
stim_fb/ques.jpg,stim_fb/negf.jpg,stim_fb/posf.jpg,stim_01/a.jpg,stim_01/b.jpg,2,1,j,4,18,258,12,j,1,0.499905799558,01,03,60.0251774347,PLT_learning_01,A,2014_Feb_25_1129,P08,
stim_fb/ques.jpg,stim_fb/negf.jpg,stim_fb/posf.jpg,stim_01/b.jpg,stim_01/a.jpg,1,1,f,4,19,259,3,j,0,0.516556517032,01,03,60.0251774347,PLT_learning_01,A,2014_Feb_25_1129,P08,
stim_fb/ques.jpg,stim_fb/negf.jpg,stim_fb/posf.jpg,stim_01/c.jpg,stim_01/d.jpg,2,2,j,4,20,260,35,j,1,0.883088013293,01,03,60.0251774347,PLT_learning_01,A,2014_Feb_25_1129,P08,
stim_fb/ques.jpg,stim_fb/negf.jpg,stim_fb/posf.jpg,stim_01/f.jpg,stim_01/e.jpg,1,3,f,4,21,261,41,j,0,0.549858421145,01,03,60.0251774347,PLT_learning_01,A,2014_Feb_25_1129,P08,
stim_fb/ques.jpg,stim_fb/negf.jpg,stim_fb/posf.jpg,stim_01/c.jpg,stim_01/d.jpg,2,2,j,4,22,262,30,j,1,0.716467684952,01,03,60.0251774347,PLT_learning_01,A,2014_Feb_25_1129,P08,
stim_fb/ques.jpg,stim_fb/negf.jpg,stim_fb/posf.jpg,stim_01/a.jpg,stim_01/b.jpg,2,1,j,4,23,263,15,j,1,0.533230034247,01,03,60.0251774347,PLT_learning_01,A,2014_Feb_25_1129,P08,
stim_fb/ques.jpg,stim_fb/negf.jpg,stim_fb/posf.jpg,stim_01/d.jpg,stim_01/c.jpg,1,2,f,4,24,264,21,f,1,0.64980347139,01,03,60.0251774347,PLT_learning_01,A,2014_Feb_25_1129,P08,
stim_fb/ques.jpg,stim_fb/posf.jpg,stim_fb/negf.jpg,stim_01/e.jpg,stim_01/f.jpg,2,3,j,4,25,265,58,j,1,0.766463599282,01,03,60.0251774347,PLT_learning_01,A,2014_Feb_25_1129,P08,
stim_fb/ques.jpg,stim_fb/posf.jpg,stim_fb/negf.jpg,stim_01/a.jpg,stim_01/b.jpg,2,1,j,4,26,266,19,j,1,0.599864521829,01,03,60.0251774347,PLT_learning_01,A,2014_Feb_25_1129,P08,
stim_fb/ques.jpg,stim_fb/negf.jpg,stim_fb/posf.jpg,stim_01/f.jpg,stim_01/e.jpg,1,3,f,4,27,267,42,j,0,0.649826616994,01,03,60.0251774347,PLT_learning_01,A,2014_Feb_25_1129,P08,
stim_fb/ques.jpg,stim_fb/negf.jpg,stim_fb/posf.jpg,stim_01/d.jpg,stim_01/c.jpg,1,2,f,4,28,268,22,f,1,0.566505701064,01,03,60.0251774347,PLT_learning_01,A,2014_Feb_25_1129,P08,
stim_fb/ques.jpg,stim_fb/negf.jpg,stim_fb/posf.jpg,stim_01/f.jpg,stim_01/e.jpg,1,3,f,4,29,269,45,j,0,0.649826346319,01,03,60.0251774347,PLT_learning_01,A,2014_Feb_25_1129,P08,
stim_fb/ques.jpg,stim_fb/negf.jpg,stim_fb/posf.jpg,stim_01/e.jpg,stim_01/f.jpg,2,3,j,4,30,270,51,f,0,0.716466096999,01,03,60.0251774347,PLT_learning_01,A,2014_Feb_25_1129,P08,
stim_fb/ques.jpg,stim_fb/negf.jpg,stim_fb/posf.jpg,stim_01/b.jpg,stim_01/a.jpg,1,1,f,4,31,271,0,j,0,0.849764900396,01,03,60.0251774347,PLT_learning_01,A,2014_Feb_25_1129,P08,
stim_fb/ques.jpg,stim_fb/negf.jpg,stim_fb/posf.jpg,stim_01/c.jpg,stim_01/d.jpg,2,2,j,4,32,272,32,j,1,0.583198360921,01,03,60.0251774347,PLT_learning_01,A,2014_Feb_25_1129,P08,
stim_fb/ques.jpg,stim_fb/posf.jpg,stim_fb/negf.jpg,stim_01/a.jpg,stim_01/b.jpg,2,1,j,4,33,273,18,j,1,0.633179505495,01,03,60.0251774347,PLT_learning_01,A,2014_Feb_25_1129,P08,
stim_fb/ques.jpg,stim_fb/negf.jpg,stim_fb/posf.jpg,stim_01/b.jpg,stim_01/a.jpg,1,1,f,4,34,274,2,j,0,0.549881623891,01,03,60.0251774347,PLT_learning_01,A,2014_Feb_25_1129,P08,
stim_fb/ques.jpg,stim_fb/negf.jpg,stim_fb/posf.jpg,stim_01/d.jpg,stim_01/c.jpg,1,2,f,4,35,275,24,f,1,0.48321501938,01,03,60.0251774347,PLT_learning_01,A,2014_Feb_25_1129,P08,
stim_fb/ques.jpg,stim_fb/posf.jpg,stim_fb/negf.jpg,stim_01/d.jpg,stim_01/c.jpg,1,2,f,4,36,276,27,f,1,0.6165025417,01,03,60.0251774347,PLT_learning_01,A,2014_Feb_25_1129,P08,
stim_fb/ques.jpg,stim_fb/negf.jpg,stim_fb/posf.jpg,stim_01/b.jpg,stim_01/a.jpg,1,1,f,4,37,277,7,f,1,0.649828722233,01,03,60.0251774347,PLT_learning_01,A,2014_Feb_25_1129,P08,
stim_fb/ques.jpg,stim_fb/negf.jpg,stim_fb/posf.jpg,stim_01/d.jpg,stim_01/c.jpg,1,2,f,4,38,278,20,f,1,0.516542093134,01,03,60.0251774347,PLT_learning_01,A,2014_Feb_25_1129,P08,
stim_fb/ques.jpg,stim_fb/negf.jpg,stim_fb/posf.jpg,stim_01/e.jpg,stim_01/f.jpg,2,3,j,4,39,279,54,f,0,0.58312777525,01,03,60.0251774347,PLT_learning_01,A,2014_Feb_25_1129,P08,
stim_fb/ques.jpg,stim_fb/negf.jpg,stim_fb/posf.jpg,stim_01/e.jpg,stim_01/f.jpg,2,3,j,4,40,280,55,f,0,0.46656264779,01,03,60.0251774347,PLT_learning_01,A,2014_Feb_25_1129,P08,
stim_fb/ques.jpg,stim_fb/negf.jpg,stim_fb/posf.jpg,stim_01/c.jpg,stim_01/d.jpg,2,2,j,4,41,281,31,j,1,0.533249889663,01,03,60.0251774347,PLT_learning_01,A,2014_Feb_25_1129,P08,
stim_fb/ques.jpg,stim_fb/posf.jpg,stim_fb/negf.jpg,stim_01/b.jpg,stim_01/a.jpg,1,1,f,4,42,282,8,j,0,0.633177307022,01,03,60.0251774347,PLT_learning_01,A,2014_Feb_25_1129,P08,
stim_fb/ques.jpg,stim_fb/negf.jpg,stim_fb/posf.jpg,stim_01/a.jpg,stim_01/b.jpg,2,1,j,4,43,283,16,j,1,0.616530791006,01,03,60.0251774347,PLT_learning_01,A,2014_Feb_25_1129,P08,
stim_fb/ques.jpg,stim_fb/posf.jpg,stim_fb/negf.jpg,stim_01/f.jpg,stim_01/e.jpg,1,3,f,4,44,284,49,j,0,0.683145955497,01,03,60.0251774347,PLT_learning_01,A,2014_Feb_25_1129,P08,
stim_fb/ques.jpg,stim_fb/negf.jpg,stim_fb/posf.jpg,stim_01/b.jpg,stim_01/a.jpg,1,1,f,4,45,285,1,f,1,0.599843791235,01,03,60.0251774347,PLT_learning_01,A,2014_Feb_25_1129,P08,
stim_fb/ques.jpg,stim_fb/posf.jpg,stim_fb/negf.jpg,stim_01/d.jpg,stim_01/c.jpg,1,2,f,4,46,286,28,f,1,0.649846379176,01,03,60.0251774347,PLT_learning_01,A,2014_Feb_25_1129,P08,
stim_fb/ques.jpg,stim_fb/negf.jpg,stim_fb/posf.jpg,stim_01/e.jpg,stim_01/f.jpg,2,3,j,4,47,287,52,f,0,0.549889957631,01,03,60.0251774347,PLT_learning_01,A,2014_Feb_25_1129,P08,
stim_fb/ques.jpg,stim_fb/negf.jpg,stim_fb/posf.jpg,stim_01/d.jpg,stim_01/c.jpg,1,2,f,4,48,288,23,f,1,0.749810803638,01,03,60.0251774347,PLT_learning_01,A,2014_Feb_25_1129,P08,
stim_fb/ques.jpg,stim_fb/negf.jpg,stim_fb/posf.jpg,stim_01/c.jpg,stim_01/d.jpg,2,2,j,4,49,289,33,j,1,0.683177747619,01,03,60.0251774347,PLT_learning_01,A,2014_Feb_25_1129,P08,
stim_fb/ques.jpg,stim_fb/posf.jpg,stim_fb/negf.jpg,stim_01/b.jpg,stim_01/a.jpg,1,1,f,4,50,290,9,j,0,0.566526179028,01,03,60.0251774347,PLT_learning_01,A,2014_Feb_25_1129,P08,
stim_fb/ques.jpg,stim_fb/negf.jpg,stim_fb/posf.jpg,stim_01/a.jpg,stim_01/b.jpg,2,1,j,4,51,291,10,j,1,0.61658912719,01,03,60.0251774347,PLT_learning_01,A,2014_Feb_25_1129,P08,
stim_fb/ques.jpg,stim_fb/negf.jpg,stim_fb/posf.jpg,stim_01/e.jpg,stim_01/f.jpg,2,3,j,4,52,292,53,f,0,0.666480260748,01,03,60.0251774347,PLT_learning_01,A,2014_Feb_25_1129,P08,
stim_fb/ques.jpg,stim_fb/posf.jpg,stim_fb/negf.jpg,stim_01/e.jpg,stim_01/f.jpg,2,3,j,4,53,293,57,f,0,0.683147811114,01,03,60.0251774347,PLT_learning_01,A,2014_Feb_25_1129,P08,
stim_fb/ques.jpg,stim_fb/posf.jpg,stim_fb/negf.jpg,stim_01/f.jpg,stim_01/e.jpg,1,3,f,4,54,294,46,j,0,0.699837589802,01,03,60.0251774347,PLT_learning_01,A,2014_Feb_25_1129,P08,
stim_fb/ques.jpg,stim_fb/negf.jpg,stim_fb/posf.jpg,stim_01/a.jpg,stim_01/b.jpg,2,1,j,4,55,295,17,j,1,0.666483138912,01,03,60.0251774347,PLT_learning_01,A,2014_Feb_25_1129,P08,
stim_fb/ques.jpg,stim_fb/posf.jpg,stim_fb/negf.jpg,stim_01/c.jpg,stim_01/d.jpg,2,2,j,4,56,296,37,j,1,0.666477969045,01,03,60.0251774347,PLT_learning_01,A,2014_Feb_25_1129,P08,
stim_fb/ques.jpg,stim_fb/negf.jpg,stim_fb/posf.jpg,stim_01/c.jpg,stim_01/d.jpg,2,2,j,4,57,297,36,j,1,0.566516675376,01,03,60.0251774347,PLT_learning_01,A,2014_Feb_25_1129,P08,
stim_fb/ques.jpg,stim_fb/negf.jpg,stim_fb/posf.jpg,stim_01/b.jpg,stim_01/a.jpg,1,1,f,4,58,298,6,j,0,0.833118020473,01,03,60.0251774347,PLT_learning_01,A,2014_Feb_25_1129,P08,
stim_fb/ques.jpg,stim_fb/negf.jpg,stim_fb/posf.jpg,stim_01/a.jpg,stim_01/b.jpg,2,1,j,4,59,299,14,j,1,0.583142493881,01,03,60.0251774347,PLT_learning_01,A,2014_Feb_25_1129,P08,
stim_fb/ques.jpg,stim_fb/negf.jpg,stim_fb/posf.jpg,stim_01/e.jpg,stim_01/f.jpg,2,3,j,5,0,300,51,j,1,0.649857597095,01,03,60.0251774347,PLT_learning_01,A,2014_Feb_25_1129,P08,
stim_fb/ques.jpg,stim_fb/negf.jpg,stim_fb/posf.jpg,stim_01/e.jpg,stim_01/f.jpg,2,3,j,5,1,301,54,j,1,0.533207610441,01,03,60.0251774347,PLT_learning_01,A,2014_Feb_25_1129,P08,
stim_fb/ques.jpg,stim_fb/negf.jpg,stim_fb/posf.jpg,stim_01/b.jpg,stim_01/a.jpg,1,1,f,5,2,302,1,f,1,0.616370786795,01,03,60.0251774347,PLT_learning_01,A,2014_Feb_25_1129,P08,
stim_fb/ques.jpg,stim_fb/negf.jpg,stim_fb/posf.jpg,stim_01/d.jpg,stim_01/c.jpg,1,2,f,5,3,303,22,f,1,0.816389703876,01,03,60.0251774347,PLT_learning_01,A,2014_Feb_25_1129,P08,
stim_fb/ques.jpg,stim_fb/posf.jpg,stim_fb/negf.jpg,stim_01/e.jpg,stim_01/f.jpg,2,3,j,5,4,304,56,j,1,0.550164177096,01,03,60.0251774347,PLT_learning_01,A,2014_Feb_25_1129,P08,
stim_fb/ques.jpg,stim_fb/negf.jpg,stim_fb/posf.jpg,stim_01/d.jpg,stim_01/c.jpg,1,2,f,5,5,305,20,f,1,0.633181057357,01,03,60.0251774347,PLT_learning_01,A,2014_Feb_25_1129,P08,
stim_fb/ques.jpg,stim_fb/negf.jpg,stim_fb/posf.jpg,stim_01/b.jpg,stim_01/a.jpg,1,1,f,5,6,306,3,f,1,0.766467472923,01,03,60.0251774347,PLT_learning_01,A,2014_Feb_25_1129,P08,
stim_fb/ques.jpg,stim_fb/negf.jpg,stim_fb/posf.jpg,stim_01/a.jpg,stim_01/b.jpg,2,1,j,5,7,307,15,j,1,0.633159607974,01,03,60.0251774347,PLT_learning_01,A,2014_Feb_25_1129,P08,
stim_fb/ques.jpg,stim_fb/negf.jpg,stim_fb/posf.jpg,stim_01/f.jpg,stim_01/e.jpg,1,3,f,5,8,308,45,j,0,0.616487940362,01,03,60.0251774347,PLT_learning_01,A,2014_Feb_25_1129,P08,
stim_fb/ques.jpg,stim_fb/negf.jpg,stim_fb/posf.jpg,stim_01/d.jpg,stim_01/c.jpg,1,2,f,5,9,309,26,f,1,0.666490435071,01,03,60.0251774347,PLT_learning_01,A,2014_Feb_25_1129,P08,
stim_fb/ques.jpg,stim_fb/negf.jpg,stim_fb/posf.jpg,stim_01/b.jpg,stim_01/a.jpg,1,1,f,5,10,310,4,f,1,1.1496790758,01,03,60.0251774347,PLT_learning_01,A,2014_Feb_25_1129,P08,
stim_fb/ques.jpg,stim_fb/negf.jpg,stim_fb/posf.jpg,stim_01/a.jpg,stim_01/b.jpg,2,1,j,5,11,311,13,j,1,0.816419351661,01,03,60.0251774347,PLT_learning_01,A,2014_Feb_25_1129,P08,
stim_fb/ques.jpg,stim_fb/posf.jpg,stim_fb/negf.jpg,stim_01/c.jpg,stim_01/d.jpg,2,2,j,5,12,312,39,j,1,0.716489227565,01,03,60.0251774347,PLT_learning_01,A,2014_Feb_25_1129,P08,
stim_fb/ques.jpg,stim_fb/negf.jpg,stim_fb/posf.jpg,stim_01/d.jpg,stim_01/c.jpg,1,2,f,5,13,313,24,f,1,0.566543267557,01,03,60.0251774347,PLT_learning_01,A,2014_Feb_25_1129,P08,
stim_fb/ques.jpg,stim_fb/posf.jpg,stim_fb/negf.jpg,stim_01/e.jpg,stim_01/f.jpg,2,3,j,5,14,314,57,j,1,0.883088049382,01,03,60.0251774347,PLT_learning_01,A,2014_Feb_25_1129,P08,
stim_fb/ques.jpg,stim_fb/negf.jpg,stim_fb/posf.jpg,stim_01/a.jpg,stim_01/b.jpg,2,1,j,5,15,315,10,j,1,0.866437265745,01,03,60.0251774347,PLT_learning_01,A,2014_Feb_25_1129,P08,
stim_fb/ques.jpg,stim_fb/posf.jpg,stim_fb/negf.jpg,stim_01/e.jpg,stim_01/f.jpg,2,3,j,5,16,316,58,j,1,0.83310341312,01,03,60.0251774347,PLT_learning_01,A,2014_Feb_25_1129,P08,
stim_fb/ques.jpg,stim_fb/negf.jpg,stim_fb/posf.jpg,stim_01/c.jpg,stim_01/d.jpg,2,2,j,5,17,317,35,j,1,0.799781403969,01,03,60.0251774347,PLT_learning_01,A,2014_Feb_25_1129,P08,
stim_fb/ques.jpg,stim_fb/negf.jpg,stim_fb/posf.jpg,stim_01/f.jpg,stim_01/e.jpg,1,3,f,5,18,318,41,j,0,1.19963041921,01,03,60.0251774347,PLT_learning_01,A,2014_Feb_25_1129,P08,
stim_fb/ques.jpg,stim_fb/negf.jpg,stim_fb/posf.jpg,stim_01/c.jpg,stim_01/d.jpg,2,2,j,5,19,319,36,j,1,0.666460582775,01,03,60.0251774347,PLT_learning_01,A,2014_Feb_25_1129,P08,
stim_fb/ques.jpg,stim_fb/negf.jpg,stim_fb/posf.jpg,stim_01/b.jpg,stim_01/a.jpg,1,1,f,5,20,320,0,f,1,0.749788148254,01,03,60.0251774347,PLT_learning_01,A,2014_Feb_25_1129,P08,
stim_fb/ques.jpg,stim_fb/negf.jpg,stim_fb/posf.jpg,stim_01/f.jpg,stim_01/e.jpg,1,3,f,5,21,321,43,j,0,0.766460733149,01,03,60.0251774347,PLT_learning_01,A,2014_Feb_25_1129,P08,
stim_fb/ques.jpg,stim_fb/negf.jpg,stim_fb/posf.jpg,stim_01/e.jpg,stim_01/f.jpg,2,3,j,5,22,322,50,j,1,0.599873002937,01,03,60.0251774347,PLT_learning_01,A,2014_Feb_25_1129,P08,
stim_fb/ques.jpg,stim_fb/posf.jpg,stim_fb/negf.jpg,stim_01/a.jpg,stim_01/b.jpg,2,1,j,5,23,323,18,j,1,0.533218268967,01,03,60.0251774347,PLT_learning_01,A,2014_Feb_25_1129,P08,
stim_fb/ques.jpg,stim_fb/negf.jpg,stim_fb/posf.jpg,stim_01/b.jpg,stim_01/a.jpg,1,1,f,5,24,324,6,f,1,1.1163487299,01,03,60.0251774347,PLT_learning_01,A,2014_Feb_25_1129,P08,
stim_fb/ques.jpg,stim_fb/posf.jpg,stim_fb/negf.jpg,stim_01/d.jpg,stim_01/c.jpg,1,2,f,5,25,325,28,f,1,0.766482931395,01,03,60.0251774347,PLT_learning_01,A,2014_Feb_25_1129,P08,
stim_fb/ques.jpg,stim_fb/posf.jpg,stim_fb/negf.jpg,stim_01/f.jpg,stim_01/e.jpg,1,3,f,5,26,326,49,j,0,0.649808379604,01,03,60.0251774347,PLT_learning_01,A,2014_Feb_25_1129,P08,
stim_fb/ques.jpg,stim_fb/posf.jpg,stim_fb/negf.jpg,stim_01/a.jpg,stim_01/b.jpg,2,1,j,5,27,327,19,j,1,0.699808657797,01,03,60.0251774347,PLT_learning_01,A,2014_Feb_25_1129,P08,
stim_fb/ques.jpg,stim_fb/negf.jpg,stim_fb/posf.jpg,stim_01/a.jpg,stim_01/b.jpg,2,1,j,5,28,328,12,j,1,0.49988664188,01,03,60.0251774347,PLT_learning_01,A,2014_Feb_25_1129,P08,
stim_fb/ques.jpg,stim_fb/posf.jpg,stim_fb/negf.jpg,stim_01/e.jpg,stim_01/f.jpg,2,3,j,5,29,329,59,j,1,0.716479705868,01,03,60.0251774347,PLT_learning_01,A,2014_Feb_25_1129,P08,
stim_fb/ques.jpg,stim_fb/negf.jpg,stim_fb/posf.jpg,stim_01/c.jpg,stim_01/d.jpg,2,2,j,5,30,330,34,j,1,0.816473811197,01,03,60.0251774347,PLT_learning_01,A,2014_Feb_25_1129,P08,
stim_fb/ques.jpg,stim_fb/negf.jpg,stim_fb/posf.jpg,stim_01/c.jpg,stim_01/d.jpg,2,2,j,5,31,331,32,j,1,0.699856888832,01,03,60.0251774347,PLT_learning_01,A,2014_Feb_25_1129,P08,
stim_fb/ques.jpg,stim_fb/negf.jpg,stim_fb/posf.jpg,stim_01/b.jpg,stim_01/a.jpg,1,1,f,5,32,332,5,f,1,0.766498305658,01,03,60.0251774347,PLT_learning_01,A,2014_Feb_25_1129,P08,
stim_fb/ques.jpg,stim_fb/negf.jpg,stim_fb/posf.jpg,stim_01/c.jpg,stim_01/d.jpg,2,2,j,5,33,333,33,j,1,1.33294417281,01,03,60.0251774347,PLT_learning_01,A,2014_Feb_25_1129,P08,
stim_fb/ques.jpg,stim_fb/negf.jpg,stim_fb/posf.jpg,stim_01/f.jpg,stim_01/e.jpg,1,3,f,5,34,334,42,j,0,0.549822977936,01,03,60.0251774347,PLT_learning_01,A,2014_Feb_25_1129,P08,
stim_fb/ques.jpg,stim_fb/negf.jpg,stim_fb/posf.jpg,stim_01/c.jpg,stim_01/d.jpg,2,2,j,5,35,335,31,j,1,0.599842013812,01,03,60.0251774347,PLT_learning_01,A,2014_Feb_25_1129,P08,
stim_fb/ques.jpg,stim_fb/negf.jpg,stim_fb/posf.jpg,stim_01/b.jpg,stim_01/a.jpg,1,1,f,5,36,336,2,f,1,0.633190263268,01,03,60.0251774347,PLT_learning_01,A,2014_Feb_25_1129,P08,
stim_fb/ques.jpg,stim_fb/negf.jpg,stim_fb/posf.jpg,stim_01/a.jpg,stim_01/b.jpg,2,1,j,5,37,337,11,j,1,0.616490418529,01,03,60.0251774347,PLT_learning_01,A,2014_Feb_25_1129,P08,
stim_fb/ques.jpg,stim_fb/negf.jpg,stim_fb/posf.jpg,stim_01/b.jpg,stim_01/a.jpg,1,1,f,5,38,338,7,f,1,0.666480227666,01,03,60.0251774347,PLT_learning_01,A,2014_Feb_25_1129,P08,
stim_fb/ques.jpg,stim_fb/posf.jpg,stim_fb/negf.jpg,stim_01/c.jpg,stim_01/d.jpg,2,2,j,5,39,339,37,j,1,0.599808260809,01,03,60.0251774347,PLT_learning_01,A,2014_Feb_25_1129,P08,
stim_fb/ques.jpg,stim_fb/posf.jpg,stim_fb/negf.jpg,stim_01/c.jpg,stim_01/d.jpg,2,2,j,5,40,340,38,j,1,0.499885114078,01,03,60.0251774347,PLT_learning_01,A,2014_Feb_25_1129,P08,
stim_fb/ques.jpg,stim_fb/negf.jpg,stim_fb/posf.jpg,stim_01/f.jpg,stim_01/e.jpg,1,3,f,5,41,341,40,j,0,0.61646934809,01,03,60.0251774347,PLT_learning_01,A,2014_Feb_25_1129,P08,
stim_fb/ques.jpg,stim_fb/posf.jpg,stim_fb/negf.jpg,stim_01/f.jpg,stim_01/e.jpg,1,3,f,5,42,342,46,j,0,0.533170898072,01,03,60.0251774347,PLT_learning_01,A,2014_Feb_25_1129,P08,
stim_fb/ques.jpg,stim_fb/negf.jpg,stim_fb/posf.jpg,stim_01/d.jpg,stim_01/c.jpg,1,2,f,5,43,343,25,f,1,0.56652377304,01,03,60.0251774347,PLT_learning_01,A,2014_Feb_25_1129,P08,
stim_fb/ques.jpg,stim_fb/negf.jpg,stim_fb/posf.jpg,stim_01/d.jpg,stim_01/c.jpg,1,2,f,5,44,344,21,f,1,0.566546404363,01,03,60.0251774347,PLT_learning_01,A,2014_Feb_25_1129,P08,
stim_fb/ques.jpg,stim_fb/negf.jpg,stim_fb/posf.jpg,stim_01/a.jpg,stim_01/b.jpg,2,1,j,5,45,345,17,j,1,0.749880712623,01,03,60.0251774347,PLT_learning_01,A,2014_Feb_25_1129,P08,
stim_fb/ques.jpg,stim_fb/negf.jpg,stim_fb/posf.jpg,stim_01/c.jpg,stim_01/d.jpg,2,2,j,5,46,346,30,j,1,0.483232005655,01,03,60.0251774347,PLT_learning_01,A,2014_Feb_25_1129,P08,
stim_fb/ques.jpg,stim_fb/negf.jpg,stim_fb/posf.jpg,stim_01/e.jpg,stim_01/f.jpg,2,3,j,5,47,347,53,j,1,0.633178849863,01,03,60.0251774347,PLT_learning_01,A,2014_Feb_25_1129,P08,
stim_fb/ques.jpg,stim_fb/posf.jpg,stim_fb/negf.jpg,stim_01/d.jpg,stim_01/c.jpg,1,2,f,5,48,348,29,f,1,0.666374255929,01,03,60.0251774347,PLT_learning_01,A,2014_Feb_25_1129,P08,
stim_fb/ques.jpg,stim_fb/negf.jpg,stim_fb/posf.jpg,stim_01/d.jpg,stim_01/c.jpg,1,2,f,5,49,349,23,f,1,0.733149575005,01,03,60.0251774347,PLT_learning_01,A,2014_Feb_25_1129,P08,
stim_fb/ques.jpg,stim_fb/negf.jpg,stim_fb/posf.jpg,stim_01/a.jpg,stim_01/b.jpg,2,1,j,5,50,350,14,j,1,0.96639213242,01,03,60.0251774347,PLT_learning_01,A,2014_Feb_25_1129,P08,
stim_fb/ques.jpg,stim_fb/negf.jpg,stim_fb/posf.jpg,stim_01/a.jpg,stim_01/b.jpg,2,1,j,5,51,351,16,j,1,0.83309931091,01,03,60.0251774347,PLT_learning_01,A,2014_Feb_25_1129,P08,
stim_fb/ques.jpg,stim_fb/posf.jpg,stim_fb/negf.jpg,stim_01/f.jpg,stim_01/e.jpg,1,3,f,5,52,352,48,f,1,0.533232497378,01,03,60.0251774347,PLT_learning_01,A,2014_Feb_25_1129,P08,
stim_fb/ques.jpg,stim_fb/posf.jpg,stim_fb/negf.jpg,stim_01/b.jpg,stim_01/a.jpg,1,1,f,5,53,353,9,f,1,0.566529821092,01,03,60.0251774347,PLT_learning_01,A,2014_Feb_25_1129,P08,
stim_fb/ques.jpg,stim_fb/posf.jpg,stim_fb/negf.jpg,stim_01/f.jpg,stim_01/e.jpg,1,3,f,5,54,354,47,j,0,0.849778620542,01,03,60.0251774347,PLT_learning_01,A,2014_Feb_25_1129,P08,
stim_fb/ques.jpg,stim_fb/posf.jpg,stim_fb/negf.jpg,stim_01/b.jpg,stim_01/a.jpg,1,1,f,5,55,355,8,f,1,0.599846106998,01,03,60.0251774347,PLT_learning_01,A,2014_Feb_25_1129,P08,
stim_fb/ques.jpg,stim_fb/posf.jpg,stim_fb/negf.jpg,stim_01/d.jpg,stim_01/c.jpg,1,2,f,5,56,356,27,f,1,0.683174234877,01,03,60.0251774347,PLT_learning_01,A,2014_Feb_25_1129,P08,
stim_fb/ques.jpg,stim_fb/negf.jpg,stim_fb/posf.jpg,stim_01/f.jpg,stim_01/e.jpg,1,3,f,5,57,357,44,j,0,0.633145394601,01,03,60.0251774347,PLT_learning_01,A,2014_Feb_25_1129,P08,
stim_fb/ques.jpg,stim_fb/negf.jpg,stim_fb/posf.jpg,stim_01/e.jpg,stim_01/f.jpg,2,3,j,5,58,358,52,j,1,0.69986569174,01,03,60.0251774347,PLT_learning_01,A,2014_Feb_25_1129,P08,
stim_fb/ques.jpg,stim_fb/negf.jpg,stim_fb/posf.jpg,stim_01/e.jpg,stim_01/f.jpg,2,3,j,5,59,359,55,j,1,1.682684881,01,03,60.0251774347,PLT_learning_01,A,2014_Feb_25_1129,P08,
