Fb3,Fb2,Fb1,Symbol2,Symbol1,PosCond,Pair,Correct,trials.thisRepN,trials.thisTrialN,trials.thisN,trials.thisIndex,Response.keys,Response.corr,Response.rt,Version,Session Number,frameRate,expName,StimCondition,date,Participant,
stim_fb/ques.jpg,stim_fb/negf.jpg,stim_fb/posf.jpg,stim_01/a.jpg,stim_01/b.jpg,2,1,j,0,0,0,11,f,0,0.849774752916,01,02,60.0183612598,PLT_learning_01,A,2014_Mrz_06_1232,P09,
stim_fb/ques.jpg,stim_fb/negf.jpg,stim_fb/posf.jpg,stim_01/a.jpg,stim_01/b.jpg,2,1,j,0,1,1,10,j,1,1.01639065424,01,02,60.0183612598,PLT_learning_01,A,2014_Mrz_06_1232,P09,
stim_fb/ques.jpg,stim_fb/negf.jpg,stim_fb/posf.jpg,stim_01/c.jpg,stim_01/d.jpg,2,2,j,0,2,2,30,f,0,0.799808465318,01,02,60.0183612598,PLT_learning_01,A,2014_Mrz_06_1232,P09,
stim_fb/ques.jpg,stim_fb/negf.jpg,stim_fb/posf.jpg,stim_01/d.jpg,stim_01/c.jpg,1,2,f,0,3,3,21,f,1,1.41622858088,01,02,60.0183612598,PLT_learning_01,A,2014_Mrz_06_1232,P09,
stim_fb/ques.jpg,stim_fb/negf.jpg,stim_fb/posf.jpg,stim_01/e.jpg,stim_01/f.jpg,2,3,j,0,4,4,50,j,1,1.31627283001,01,02,60.0183612598,PLT_learning_01,A,2014_Mrz_06_1232,P09,
stim_fb/ques.jpg,stim_fb/posf.jpg,stim_fb/negf.jpg,stim_01/d.jpg,stim_01/c.jpg,1,2,f,0,5,5,27,f,1,1.33297050936,01,02,60.0183612598,PLT_learning_01,A,2014_Mrz_06_1232,P09,
stim_fb/ques.jpg,stim_fb/negf.jpg,stim_fb/posf.jpg,stim_01/a.jpg,stim_01/b.jpg,2,1,j,0,6,6,13,j,1,1.16631720093,01,02,60.0183612598,PLT_learning_01,A,2014_Mrz_06_1232,P09,
stim_fb/ques.jpg,stim_fb/posf.jpg,stim_fb/negf.jpg,stim_01/c.jpg,stim_01/d.jpg,2,2,j,0,7,7,39,f,0,0.666481969,01,02,60.0183612598,PLT_learning_01,A,2014_Mrz_06_1232,P09,
stim_fb/ques.jpg,stim_fb/negf.jpg,stim_fb/posf.jpg,stim_01/b.jpg,stim_01/a.jpg,1,1,f,0,8,8,1,f,1,0.94974716225,01,02,60.0183612598,PLT_learning_01,A,2014_Mrz_06_1232,P09,
stim_fb/ques.jpg,stim_fb/negf.jpg,stim_fb/posf.jpg,stim_01/a.jpg,stim_01/b.jpg,2,1,j,0,9,9,17,j,1,0.916372880005,01,02,60.0183612598,PLT_learning_01,A,2014_Mrz_06_1232,P09,
stim_fb/ques.jpg,stim_fb/posf.jpg,stim_fb/negf.jpg,stim_01/d.jpg,stim_01/c.jpg,1,2,f,0,10,10,29,j,0,0.916401562389,01,02,60.0183612598,PLT_learning_01,A,2014_Mrz_06_1232,P09,
stim_fb/ques.jpg,stim_fb/posf.jpg,stim_fb/negf.jpg,stim_01/e.jpg,stim_01/f.jpg,2,3,j,0,11,11,56,j,1,1.41625864069,01,02,60.0183612598,PLT_learning_01,A,2014_Mrz_06_1232,P09,
stim_fb/ques.jpg,stim_fb/posf.jpg,stim_fb/negf.jpg,stim_01/e.jpg,stim_01/f.jpg,2,3,j,0,12,12,57,f,0,1.4329259685,01,02,60.0183612598,PLT_learning_01,A,2014_Mrz_06_1232,P09,
stim_fb/ques.jpg,stim_fb/negf.jpg,stim_fb/posf.jpg,stim_01/a.jpg,stim_01/b.jpg,2,1,j,0,13,13,16,j,1,1.34961459532,01,02,60.0183612598,PLT_learning_01,A,2014_Mrz_06_1232,P09,
stim_fb/ques.jpg,stim_fb/negf.jpg,stim_fb/posf.jpg,stim_01/c.jpg,stim_01/d.jpg,2,2,j,0,14,14,31,f,0,0.666504639421,01,02,60.0183612598,PLT_learning_01,A,2014_Mrz_06_1232,P09,
stim_fb/ques.jpg,stim_fb/posf.jpg,stim_fb/negf.jpg,stim_01/e.jpg,stim_01/f.jpg,2,3,j,0,15,15,58,f,0,0.933062225614,01,02,60.0183612598,PLT_learning_01,A,2014_Mrz_06_1232,P09,
stim_fb/ques.jpg,stim_fb/negf.jpg,stim_fb/posf.jpg,stim_01/d.jpg,stim_01/c.jpg,1,2,f,0,16,16,23,j,0,0.749662185765,01,02,60.0183612598,PLT_learning_01,A,2014_Mrz_06_1232,P09,
stim_fb/ques.jpg,stim_fb/negf.jpg,stim_fb/posf.jpg,stim_01/b.jpg,stim_01/a.jpg,1,1,f,0,17,17,5,f,1,0.833100655256,01,02,60.0183612598,PLT_learning_01,A,2014_Mrz_06_1232,P09,
stim_fb/ques.jpg,stim_fb/negf.jpg,stim_fb/posf.jpg,stim_01/f.jpg,stim_01/e.jpg,1,3,f,0,18,18,40,j,0,0.966248777645,01,02,60.0183612598,PLT_learning_01,A,2014_Mrz_06_1232,P09,
stim_fb/ques.jpg,stim_fb/negf.jpg,stim_fb/posf.jpg,stim_01/b.jpg,stim_01/a.jpg,1,1,f,0,19,19,4,f,1,0.683154806525,01,02,60.0183612598,PLT_learning_01,A,2014_Mrz_06_1232,P09,
stim_fb/ques.jpg,stim_fb/posf.jpg,stim_fb/negf.jpg,stim_01/f.jpg,stim_01/e.jpg,1,3,f,0,20,20,48,j,0,0.949665710537,01,02,60.0183612598,PLT_learning_01,A,2014_Mrz_06_1232,P09,
stim_fb/ques.jpg,stim_fb/negf.jpg,stim_fb/posf.jpg,stim_01/d.jpg,stim_01/c.jpg,1,2,f,0,21,21,25,j,0,0.583179088958,01,02,60.0183612598,PLT_learning_01,A,2014_Mrz_06_1232,P09,
stim_fb/ques.jpg,stim_fb/negf.jpg,stim_fb/posf.jpg,stim_01/c.jpg,stim_01/d.jpg,2,2,j,0,22,22,34,j,1,0.749801233821,01,02,60.0183612598,PLT_learning_01,A,2014_Mrz_06_1232,P09,
stim_fb/ques.jpg,stim_fb/negf.jpg,stim_fb/posf.jpg,stim_01/d.jpg,stim_01/c.jpg,1,2,f,0,23,23,20,f,1,0.516542096142,01,02,60.0183612598,PLT_learning_01,A,2014_Mrz_06_1232,P09,
stim_fb/ques.jpg,stim_fb/negf.jpg,stim_fb/posf.jpg,stim_01/a.jpg,stim_01/b.jpg,2,1,j,0,24,24,15,None,0,,01,02,60.0183612598,PLT_learning_01,A,2014_Mrz_06_1232,P09,
stim_fb/ques.jpg,stim_fb/posf.jpg,stim_fb/negf.jpg,stim_01/f.jpg,stim_01/e.jpg,1,3,f,0,25,25,49,j,0,0.599832161291,01,02,60.0183612598,PLT_learning_01,A,2014_Mrz_06_1232,P09,
stim_fb/ques.jpg,stim_fb/negf.jpg,stim_fb/posf.jpg,stim_01/c.jpg,stim_01/d.jpg,2,2,j,0,26,26,35,j,1,0.766416989282,01,02,60.0183612598,PLT_learning_01,A,2014_Mrz_06_1232,P09,
stim_fb/ques.jpg,stim_fb/negf.jpg,stim_fb/posf.jpg,stim_01/b.jpg,stim_01/a.jpg,1,1,f,0,27,27,6,f,1,0.666451509193,01,02,60.0183612598,PLT_learning_01,A,2014_Mrz_06_1232,P09,
stim_fb/ques.jpg,stim_fb/posf.jpg,stim_fb/negf.jpg,stim_01/b.jpg,stim_01/a.jpg,1,1,f,0,28,28,9,f,1,0.599869102228,01,02,60.0183612598,PLT_learning_01,A,2014_Mrz_06_1232,P09,
stim_fb/ques.jpg,stim_fb/posf.jpg,stim_fb/negf.jpg,stim_01/f.jpg,stim_01/e.jpg,1,3,f,0,29,29,47,j,0,0.633171394308,01,02,60.0183612598,PLT_learning_01,A,2014_Mrz_06_1232,P09,
stim_fb/ques.jpg,stim_fb/negf.jpg,stim_fb/posf.jpg,stim_01/d.jpg,stim_01/c.jpg,1,2,f,0,30,30,26,j,0,1.43280749465,01,02,60.0183612598,PLT_learning_01,A,2014_Mrz_06_1232,P09,
stim_fb/ques.jpg,stim_fb/negf.jpg,stim_fb/posf.jpg,stim_01/d.jpg,stim_01/c.jpg,1,2,f,0,31,31,24,j,0,0.866433473307,01,02,60.0183612598,PLT_learning_01,A,2014_Mrz_06_1232,P09,
stim_fb/ques.jpg,stim_fb/negf.jpg,stim_fb/posf.jpg,stim_01/e.jpg,stim_01/f.jpg,2,3,j,0,32,32,55,j,1,0.599847643824,01,02,60.0183612598,PLT_learning_01,A,2014_Mrz_06_1232,P09,
stim_fb/ques.jpg,stim_fb/negf.jpg,stim_fb/posf.jpg,stim_01/c.jpg,stim_01/d.jpg,2,2,j,0,33,33,33,f,0,0.633099205648,01,02,60.0183612598,PLT_learning_01,A,2014_Mrz_06_1232,P09,
stim_fb/ques.jpg,stim_fb/negf.jpg,stim_fb/posf.jpg,stim_01/f.jpg,stim_01/e.jpg,1,3,f,0,34,34,43,j,0,0.749792268508,01,02,60.0183612598,PLT_learning_01,A,2014_Mrz_06_1232,P09,
stim_fb/ques.jpg,stim_fb/posf.jpg,stim_fb/negf.jpg,stim_01/c.jpg,stim_01/d.jpg,2,2,j,0,35,35,38,j,1,0.733127391796,01,02,60.0183612598,PLT_learning_01,A,2014_Mrz_06_1232,P09,
stim_fb/ques.jpg,stim_fb/negf.jpg,stim_fb/posf.jpg,stim_01/f.jpg,stim_01/e.jpg,1,3,f,0,36,36,41,j,0,0.849744106645,01,02,60.0183612598,PLT_learning_01,A,2014_Mrz_06_1232,P09,
stim_fb/ques.jpg,stim_fb/negf.jpg,stim_fb/posf.jpg,stim_01/c.jpg,stim_01/d.jpg,2,2,j,0,37,37,32,j,1,0.866440820592,01,02,60.0183612598,PLT_learning_01,A,2014_Mrz_06_1232,P09,
stim_fb/ques.jpg,stim_fb/negf.jpg,stim_fb/posf.jpg,stim_01/b.jpg,stim_01/a.jpg,1,1,f,0,38,38,2,f,1,0.983078329192,01,02,60.0183612598,PLT_learning_01,A,2014_Mrz_06_1232,P09,
stim_fb/ques.jpg,stim_fb/posf.jpg,stim_fb/negf.jpg,stim_01/a.jpg,stim_01/b.jpg,2,1,j,0,39,39,18,f,0,0.699778844599,01,02,60.0183612598,PLT_learning_01,A,2014_Mrz_06_1232,P09,
stim_fb/ques.jpg,stim_fb/negf.jpg,stim_fb/posf.jpg,stim_01/e.jpg,stim_01/f.jpg,2,3,j,0,40,40,53,j,1,0.633180494957,01,02,60.0183612598,PLT_learning_01,A,2014_Mrz_06_1232,P09,
stim_fb/ques.jpg,stim_fb/negf.jpg,stim_fb/posf.jpg,stim_01/e.jpg,stim_01/f.jpg,2,3,j,0,41,41,51,j,1,0.483155898242,01,02,60.0183612598,PLT_learning_01,A,2014_Mrz_06_1232,P09,
stim_fb/ques.jpg,stim_fb/posf.jpg,stim_fb/negf.jpg,stim_01/e.jpg,stim_01/f.jpg,2,3,j,0,42,42,59,j,1,0.333277351007,01,02,60.0183612598,PLT_learning_01,A,2014_Mrz_06_1232,P09,
stim_fb/ques.jpg,stim_fb/negf.jpg,stim_fb/posf.jpg,stim_01/d.jpg,stim_01/c.jpg,1,2,f,0,43,43,22,j,0,0.13333791273,01,02,60.0183612598,PLT_learning_01,A,2014_Mrz_06_1232,P09,
stim_fb/ques.jpg,stim_fb/posf.jpg,stim_fb/negf.jpg,stim_01/b.jpg,stim_01/a.jpg,1,1,f,0,44,44,8,f,1,0.649859103845,01,02,60.0183612598,PLT_learning_01,A,2014_Mrz_06_1232,P09,
stim_fb/ques.jpg,stim_fb/negf.jpg,stim_fb/posf.jpg,stim_01/b.jpg,stim_01/a.jpg,1,1,f,0,45,45,3,j,0,0.533234022173,01,02,60.0183612598,PLT_learning_01,A,2014_Mrz_06_1232,P09,
stim_fb/ques.jpg,stim_fb/posf.jpg,stim_fb/negf.jpg,stim_01/c.jpg,stim_01/d.jpg,2,2,j,0,46,46,37,j,1,0.799778610016,01,02,60.0183612598,PLT_learning_01,A,2014_Mrz_06_1232,P09,
stim_fb/ques.jpg,stim_fb/posf.jpg,stim_fb/negf.jpg,stim_01/d.jpg,stim_01/c.jpg,1,2,f,0,47,47,28,f,1,0.999720445258,01,02,60.0183612598,PLT_learning_01,A,2014_Mrz_06_1232,P09,
stim_fb/ques.jpg,stim_fb/negf.jpg,stim_fb/posf.jpg,stim_01/f.jpg,stim_01/e.jpg,1,3,f,0,48,48,44,f,1,0.83309882069,01,02,60.0183612598,PLT_learning_01,A,2014_Mrz_06_1232,P09,
stim_fb/ques.jpg,stim_fb/negf.jpg,stim_fb/posf.jpg,stim_01/b.jpg,stim_01/a.jpg,1,1,f,0,49,49,7,f,1,0.616491525284,01,02,60.0183612598,PLT_learning_01,A,2014_Mrz_06_1232,P09,
stim_fb/ques.jpg,stim_fb/negf.jpg,stim_fb/posf.jpg,stim_01/b.jpg,stim_01/a.jpg,1,1,f,0,50,50,0,f,1,0.583185329489,01,02,60.0183612598,PLT_learning_01,A,2014_Mrz_06_1232,P09,
stim_fb/ques.jpg,stim_fb/negf.jpg,stim_fb/posf.jpg,stim_01/e.jpg,stim_01/f.jpg,2,3,j,0,51,51,54,j,1,0.683148839675,01,02,60.0183612598,PLT_learning_01,A,2014_Mrz_06_1232,P09,
stim_fb/ques.jpg,stim_fb/negf.jpg,stim_fb/posf.jpg,stim_01/a.jpg,stim_01/b.jpg,2,1,j,0,52,52,12,f,0,0.716485585501,01,02,60.0183612598,PLT_learning_01,A,2014_Mrz_06_1232,P09,
stim_fb/ques.jpg,stim_fb/negf.jpg,stim_fb/posf.jpg,stim_01/a.jpg,stim_01/b.jpg,2,1,j,0,53,53,14,j,1,0.616499365797,01,02,60.0183612598,PLT_learning_01,A,2014_Mrz_06_1232,P09,
stim_fb/ques.jpg,stim_fb/posf.jpg,stim_fb/negf.jpg,stim_01/a.jpg,stim_01/b.jpg,2,1,j,0,54,54,19,j,1,0.73315160205,01,02,60.0183612598,PLT_learning_01,A,2014_Mrz_06_1232,P09,
stim_fb/ques.jpg,stim_fb/posf.jpg,stim_fb/negf.jpg,stim_01/f.jpg,stim_01/e.jpg,1,3,f,0,55,55,46,f,1,0.949720434732,01,02,60.0183612598,PLT_learning_01,A,2014_Mrz_06_1232,P09,
stim_fb/ques.jpg,stim_fb/negf.jpg,stim_fb/posf.jpg,stim_01/e.jpg,stim_01/f.jpg,2,3,j,0,56,56,52,f,0,0.449894763593,01,02,60.0183612598,PLT_learning_01,A,2014_Mrz_06_1232,P09,
stim_fb/ques.jpg,stim_fb/negf.jpg,stim_fb/posf.jpg,stim_01/f.jpg,stim_01/e.jpg,1,3,f,0,57,57,45,j,0,0.666490612512,01,02,60.0183612598,PLT_learning_01,A,2014_Mrz_06_1232,P09,
stim_fb/ques.jpg,stim_fb/negf.jpg,stim_fb/posf.jpg,stim_01/c.jpg,stim_01/d.jpg,2,2,j,0,58,58,36,f,0,0.483182120502,01,02,60.0183612598,PLT_learning_01,A,2014_Mrz_06_1232,P09,
stim_fb/ques.jpg,stim_fb/negf.jpg,stim_fb/posf.jpg,stim_01/f.jpg,stim_01/e.jpg,1,3,f,0,59,59,42,j,0,0.633208254042,01,02,60.0183612598,PLT_learning_01,A,2014_Mrz_06_1232,P09,
stim_fb/ques.jpg,stim_fb/posf.jpg,stim_fb/negf.jpg,stim_01/d.jpg,stim_01/c.jpg,1,2,f,1,0,60,28,f,1,0.999715440803,01,02,60.0183612598,PLT_learning_01,A,2014_Mrz_06_1232,P09,
stim_fb/ques.jpg,stim_fb/negf.jpg,stim_fb/posf.jpg,stim_01/b.jpg,stim_01/a.jpg,1,1,f,1,1,61,3,f,1,0.733145361518,01,02,60.0183612598,PLT_learning_01,A,2014_Mrz_06_1232,P09,
stim_fb/ques.jpg,stim_fb/posf.jpg,stim_fb/negf.jpg,stim_01/c.jpg,stim_01/d.jpg,2,2,j,1,2,62,39,j,1,0.999736493197,01,02,60.0183612598,PLT_learning_01,A,2014_Mrz_06_1232,P09,
stim_fb/ques.jpg,stim_fb/negf.jpg,stim_fb/posf.jpg,stim_01/f.jpg,stim_01/e.jpg,1,3,f,1,3,63,44,f,1,0.899741434495,01,02,60.0183612598,PLT_learning_01,A,2014_Mrz_06_1232,P09,
stim_fb/ques.jpg,stim_fb/negf.jpg,stim_fb/posf.jpg,stim_01/c.jpg,stim_01/d.jpg,2,2,j,1,4,64,35,f,0,0.433269017267,01,02,60.0183612598,PLT_learning_01,A,2014_Mrz_06_1232,P09,
stim_fb/ques.jpg,stim_fb/negf.jpg,stim_fb/posf.jpg,stim_01/e.jpg,stim_01/f.jpg,2,3,j,1,5,65,51,j,1,0.616505510088,01,02,60.0183612598,PLT_learning_01,A,2014_Mrz_06_1232,P09,
stim_fb/ques.jpg,stim_fb/posf.jpg,stim_fb/negf.jpg,stim_01/f.jpg,stim_01/e.jpg,1,3,f,1,6,66,46,f,1,0.799779521284,01,02,60.0183612598,PLT_learning_01,A,2014_Mrz_06_1232,P09,
stim_fb/ques.jpg,stim_fb/negf.jpg,stim_fb/posf.jpg,stim_01/d.jpg,stim_01/c.jpg,1,2,f,1,7,67,25,j,0,0.866420959162,01,02,60.0183612598,PLT_learning_01,A,2014_Mrz_06_1232,P09,
stim_fb/ques.jpg,stim_fb/posf.jpg,stim_fb/negf.jpg,stim_01/e.jpg,stim_01/f.jpg,2,3,j,1,8,68,59,j,1,0.883123113649,01,02,60.0183612598,PLT_learning_01,A,2014_Mrz_06_1232,P09,
stim_fb/ques.jpg,stim_fb/negf.jpg,stim_fb/posf.jpg,stim_01/b.jpg,stim_01/a.jpg,1,1,f,1,9,69,6,f,1,0.683123585824,01,02,60.0183612598,PLT_learning_01,A,2014_Mrz_06_1232,P09,
stim_fb/ques.jpg,stim_fb/negf.jpg,stim_fb/posf.jpg,stim_01/a.jpg,stim_01/b.jpg,2,1,j,1,10,70,12,j,1,0.933046069405,01,02,60.0183612598,PLT_learning_01,A,2014_Mrz_06_1232,P09,
stim_fb/ques.jpg,stim_fb/posf.jpg,stim_fb/negf.jpg,stim_01/f.jpg,stim_01/e.jpg,1,3,f,1,11,71,47,f,1,0.733147541945,01,02,60.0183612598,PLT_learning_01,A,2014_Mrz_06_1232,P09,
stim_fb/ques.jpg,stim_fb/negf.jpg,stim_fb/posf.jpg,stim_01/d.jpg,stim_01/c.jpg,1,2,f,1,12,72,24,f,1,1.06633842475,01,02,60.0183612598,PLT_learning_01,A,2014_Mrz_06_1232,P09,
stim_fb/ques.jpg,stim_fb/negf.jpg,stim_fb/posf.jpg,stim_01/c.jpg,stim_01/d.jpg,2,2,j,1,13,73,30,f,0,0.616485035131,01,02,60.0183612598,PLT_learning_01,A,2014_Mrz_06_1232,P09,
stim_fb/ques.jpg,stim_fb/negf.jpg,stim_fb/posf.jpg,stim_01/c.jpg,stim_01/d.jpg,2,2,j,1,14,74,31,j,1,0.516545663019,01,02,60.0183612598,PLT_learning_01,A,2014_Mrz_06_1232,P09,
stim_fb/ques.jpg,stim_fb/posf.jpg,stim_fb/negf.jpg,stim_01/d.jpg,stim_01/c.jpg,1,2,f,1,15,75,29,f,1,0.433107518336,01,02,60.0183612598,PLT_learning_01,A,2014_Mrz_06_1232,P09,
stim_fb/ques.jpg,stim_fb/posf.jpg,stim_fb/negf.jpg,stim_01/e.jpg,stim_01/f.jpg,2,3,j,1,16,76,57,j,1,0.633182792675,01,02,60.0183612598,PLT_learning_01,A,2014_Mrz_06_1232,P09,
stim_fb/ques.jpg,stim_fb/negf.jpg,stim_fb/posf.jpg,stim_01/e.jpg,stim_01/f.jpg,2,3,j,1,17,77,53,f,0,0.299930803788,01,02,60.0183612598,PLT_learning_01,A,2014_Mrz_06_1232,P09,
stim_fb/ques.jpg,stim_fb/posf.jpg,stim_fb/negf.jpg,stim_01/f.jpg,stim_01/e.jpg,1,3,f,1,18,78,48,f,1,0.73311025214,01,02,60.0183612598,PLT_learning_01,A,2014_Mrz_06_1232,P09,
stim_fb/ques.jpg,stim_fb/negf.jpg,stim_fb/posf.jpg,stim_01/b.jpg,stim_01/a.jpg,1,1,f,1,19,79,0,j,0,0.200004207471,01,02,60.0183612598,PLT_learning_01,A,2014_Mrz_06_1232,P09,
stim_fb/ques.jpg,stim_fb/negf.jpg,stim_fb/posf.jpg,stim_01/b.jpg,stim_01/a.jpg,1,1,f,1,20,80,2,f,1,0.333217071988,01,02,60.0183612598,PLT_learning_01,A,2014_Mrz_06_1232,P09,
stim_fb/ques.jpg,stim_fb/negf.jpg,stim_fb/posf.jpg,stim_01/a.jpg,stim_01/b.jpg,2,1,j,1,21,81,15,j,1,0.849754578708,01,02,60.0183612598,PLT_learning_01,A,2014_Mrz_06_1232,P09,
stim_fb/ques.jpg,stim_fb/negf.jpg,stim_fb/posf.jpg,stim_01/a.jpg,stim_01/b.jpg,2,1,j,1,22,82,16,j,1,0.499857138453,01,02,60.0183612598,PLT_learning_01,A,2014_Mrz_06_1232,P09,
stim_fb/ques.jpg,stim_fb/negf.jpg,stim_fb/posf.jpg,stim_01/d.jpg,stim_01/c.jpg,1,2,f,1,23,83,23,f,1,0.616506929621,01,02,60.0183612598,PLT_learning_01,A,2014_Mrz_06_1232,P09,
stim_fb/ques.jpg,stim_fb/negf.jpg,stim_fb/posf.jpg,stim_01/c.jpg,stim_01/d.jpg,2,2,j,1,24,84,34,f,0,0.649841206302,01,02,60.0183612598,PLT_learning_01,A,2014_Mrz_06_1232,P09,
stim_fb/ques.jpg,stim_fb/negf.jpg,stim_fb/posf.jpg,stim_01/b.jpg,stim_01/a.jpg,1,1,f,1,25,85,1,f,1,0.616509431848,01,02,60.0183612598,PLT_learning_01,A,2014_Mrz_06_1232,P09,
stim_fb/ques.jpg,stim_fb/negf.jpg,stim_fb/posf.jpg,stim_01/f.jpg,stim_01/e.jpg,1,3,f,1,26,86,42,j,0,0.449931442879,01,02,60.0183612598,PLT_learning_01,A,2014_Mrz_06_1232,P09,
stim_fb/ques.jpg,stim_fb/posf.jpg,stim_fb/negf.jpg,stim_01/b.jpg,stim_01/a.jpg,1,1,f,1,27,87,8,j,0,0.566507806303,01,02,60.0183612598,PLT_learning_01,A,2014_Mrz_06_1232,P09,
stim_fb/ques.jpg,stim_fb/posf.jpg,stim_fb/negf.jpg,stim_01/c.jpg,stim_01/d.jpg,2,2,j,1,28,88,38,j,1,0.883007214204,01,02,60.0183612598,PLT_learning_01,A,2014_Mrz_06_1232,P09,
stim_fb/ques.jpg,stim_fb/negf.jpg,stim_fb/posf.jpg,stim_01/c.jpg,stim_01/d.jpg,2,2,j,1,29,89,33,f,0,0.516544763781,01,02,60.0183612598,PLT_learning_01,A,2014_Mrz_06_1232,P09,
stim_fb/ques.jpg,stim_fb/negf.jpg,stim_fb/posf.jpg,stim_01/e.jpg,stim_01/f.jpg,2,3,j,1,30,90,52,j,1,0.749795991774,01,02,60.0183612598,PLT_learning_01,A,2014_Mrz_06_1232,P09,
stim_fb/ques.jpg,stim_fb/negf.jpg,stim_fb/posf.jpg,stim_01/a.jpg,stim_01/b.jpg,2,1,j,1,31,91,10,j,1,0.566490266651,01,02,60.0183612598,PLT_learning_01,A,2014_Mrz_06_1232,P09,
stim_fb/ques.jpg,stim_fb/negf.jpg,stim_fb/posf.jpg,stim_01/f.jpg,stim_01/e.jpg,1,3,f,1,32,92,43,j,0,0.26654373071,01,02,60.0183612598,PLT_learning_01,A,2014_Mrz_06_1232,P09,
stim_fb/ques.jpg,stim_fb/negf.jpg,stim_fb/posf.jpg,stim_01/a.jpg,stim_01/b.jpg,2,1,j,1,33,93,17,f,0,0.0500128194042,01,02,60.0183612598,PLT_learning_01,A,2014_Mrz_06_1232,P09,
stim_fb/ques.jpg,stim_fb/negf.jpg,stim_fb/posf.jpg,stim_01/a.jpg,stim_01/b.jpg,2,1,j,1,34,94,13,j,1,0.233275008176,01,02,60.0183612598,PLT_learning_01,A,2014_Mrz_06_1232,P09,
stim_fb/ques.jpg,stim_fb/negf.jpg,stim_fb/posf.jpg,stim_01/e.jpg,stim_01/f.jpg,2,3,j,1,35,95,54,j,1,0.316640603301,01,02,60.0183612598,PLT_learning_01,A,2014_Mrz_06_1232,P09,
stim_fb/ques.jpg,stim_fb/negf.jpg,stim_fb/posf.jpg,stim_01/a.jpg,stim_01/b.jpg,2,1,j,1,36,96,14,f,0,0.616525001598,01,02,60.0183612598,PLT_learning_01,A,2014_Mrz_06_1232,P09,
stim_fb/ques.jpg,stim_fb/posf.jpg,stim_fb/negf.jpg,stim_01/d.jpg,stim_01/c.jpg,1,2,f,1,37,97,27,j,0,0.18329750266,01,02,60.0183612598,PLT_learning_01,A,2014_Mrz_06_1232,P09,
stim_fb/ques.jpg,stim_fb/negf.jpg,stim_fb/posf.jpg,stim_01/b.jpg,stim_01/a.jpg,1,1,f,1,38,98,5,f,1,0.733126453461,01,02,60.0183612598,PLT_learning_01,A,2014_Mrz_06_1232,P09,
stim_fb/ques.jpg,stim_fb/negf.jpg,stim_fb/posf.jpg,stim_01/d.jpg,stim_01/c.jpg,1,2,f,1,39,99,21,j,0,0.816452794893,01,02,60.0183612598,PLT_learning_01,A,2014_Mrz_06_1232,P09,
stim_fb/ques.jpg,stim_fb/negf.jpg,stim_fb/posf.jpg,stim_01/e.jpg,stim_01/f.jpg,2,3,j,1,40,100,50,f,0,0.533205390917,01,02,60.0183612598,PLT_learning_01,A,2014_Mrz_06_1232,P09,
stim_fb/ques.jpg,stim_fb/negf.jpg,stim_fb/posf.jpg,stim_01/c.jpg,stim_01/d.jpg,2,2,j,1,41,101,32,f,0,0.799778985951,01,02,60.0183612598,PLT_learning_01,A,2014_Mrz_06_1232,P09,
stim_fb/ques.jpg,stim_fb/negf.jpg,stim_fb/posf.jpg,stim_01/f.jpg,stim_01/e.jpg,1,3,f,1,42,102,45,f,1,0.783074401417,01,02,60.0183612598,PLT_learning_01,A,2014_Mrz_06_1232,P09,
stim_fb/ques.jpg,stim_fb/negf.jpg,stim_fb/posf.jpg,stim_01/d.jpg,stim_01/c.jpg,1,2,f,1,43,103,26,f,1,0.449877434465,01,02,60.0183612598,PLT_learning_01,A,2014_Mrz_06_1232,P09,
stim_fb/ques.jpg,stim_fb/negf.jpg,stim_fb/posf.jpg,stim_01/c.jpg,stim_01/d.jpg,2,2,j,1,44,104,36,j,1,0.533205730762,01,02,60.0183612598,PLT_learning_01,A,2014_Mrz_06_1232,P09,
stim_fb/ques.jpg,stim_fb/negf.jpg,stim_fb/posf.jpg,stim_01/b.jpg,stim_01/a.jpg,1,1,f,1,45,105,4,f,1,0.933119888122,01,02,60.0183612598,PLT_learning_01,A,2014_Mrz_06_1232,P09,
stim_fb/ques.jpg,stim_fb/negf.jpg,stim_fb/posf.jpg,stim_01/d.jpg,stim_01/c.jpg,1,2,f,1,46,106,20,f,1,0.549800271426,01,02,60.0183612598,PLT_learning_01,A,2014_Mrz_06_1232,P09,
stim_fb/ques.jpg,stim_fb/posf.jpg,stim_fb/negf.jpg,stim_01/a.jpg,stim_01/b.jpg,2,1,j,1,47,107,18,f,0,0.966362502679,01,02,60.0183612598,PLT_learning_01,A,2014_Mrz_06_1232,P09,
stim_fb/ques.jpg,stim_fb/negf.jpg,stim_fb/posf.jpg,stim_01/b.jpg,stim_01/a.jpg,1,1,f,1,48,108,7,f,1,0.616506689022,01,02,60.0183612598,PLT_learning_01,A,2014_Mrz_06_1232,P09,
stim_fb/ques.jpg,stim_fb/posf.jpg,stim_fb/negf.jpg,stim_01/c.jpg,stim_01/d.jpg,2,2,j,1,49,109,37,f,0,0.333277880325,01,02,60.0183612598,PLT_learning_01,A,2014_Mrz_06_1232,P09,
stim_fb/ques.jpg,stim_fb/posf.jpg,stim_fb/negf.jpg,stim_01/e.jpg,stim_01/f.jpg,2,3,j,1,50,110,58,f,0,0.383212535197,01,02,60.0183612598,PLT_learning_01,A,2014_Mrz_06_1232,P09,
stim_fb/ques.jpg,stim_fb/negf.jpg,stim_fb/posf.jpg,stim_01/f.jpg,stim_01/e.jpg,1,3,f,1,51,111,41,f,1,0.333254073074,01,02,60.0183612598,PLT_learning_01,A,2014_Mrz_06_1232,P09,
stim_fb/ques.jpg,stim_fb/posf.jpg,stim_fb/negf.jpg,stim_01/e.jpg,stim_01/f.jpg,2,3,j,1,52,112,56,j,1,0.666474690887,01,02,60.0183612598,PLT_learning_01,A,2014_Mrz_06_1232,P09,
stim_fb/ques.jpg,stim_fb/negf.jpg,stim_fb/posf.jpg,stim_01/d.jpg,stim_01/c.jpg,1,2,f,1,53,113,22,f,1,0.866401753364,01,02,60.0183612598,PLT_learning_01,A,2014_Mrz_06_1232,P09,
stim_fb/ques.jpg,stim_fb/negf.jpg,stim_fb/posf.jpg,stim_01/f.jpg,stim_01/e.jpg,1,3,f,1,54,114,40,f,1,0.583236204103,01,02,60.0183612598,PLT_learning_01,A,2014_Mrz_06_1232,P09,
stim_fb/ques.jpg,stim_fb/posf.jpg,stim_fb/negf.jpg,stim_01/a.jpg,stim_01/b.jpg,2,1,j,1,55,115,19,f,0,0.483239972481,01,02,60.0183612598,PLT_learning_01,A,2014_Mrz_06_1232,P09,
stim_fb/ques.jpg,stim_fb/negf.jpg,stim_fb/posf.jpg,stim_01/e.jpg,stim_01/f.jpg,2,3,j,1,56,116,55,j,1,0.333261961707,01,02,60.0183612598,PLT_learning_01,A,2014_Mrz_06_1232,P09,
stim_fb/ques.jpg,stim_fb/posf.jpg,stim_fb/negf.jpg,stim_01/f.jpg,stim_01/e.jpg,1,3,f,1,57,117,49,f,1,0.199986126472,01,02,60.0183612598,PLT_learning_01,A,2014_Mrz_06_1232,P09,
stim_fb/ques.jpg,stim_fb/negf.jpg,stim_fb/posf.jpg,stim_01/a.jpg,stim_01/b.jpg,2,1,j,1,58,118,11,j,1,0.533207860062,01,02,60.0183612598,PLT_learning_01,A,2014_Mrz_06_1232,P09,
stim_fb/ques.jpg,stim_fb/posf.jpg,stim_fb/negf.jpg,stim_01/b.jpg,stim_01/a.jpg,1,1,f,1,59,119,9,f,1,0.266633666538,01,02,60.0183612598,PLT_learning_01,A,2014_Mrz_06_1232,P09,
stim_fb/ques.jpg,stim_fb/negf.jpg,stim_fb/posf.jpg,stim_01/c.jpg,stim_01/d.jpg,2,2,j,2,0,120,36,j,1,0.766469433803,01,02,60.0183612598,PLT_learning_01,A,2014_Mrz_06_1232,P09,
stim_fb/ques.jpg,stim_fb/negf.jpg,stim_fb/posf.jpg,stim_01/a.jpg,stim_01/b.jpg,2,1,j,2,1,121,16,j,1,0.683146737443,01,02,60.0183612598,PLT_learning_01,A,2014_Mrz_06_1232,P09,
stim_fb/ques.jpg,stim_fb/posf.jpg,stim_fb/negf.jpg,stim_01/f.jpg,stim_01/e.jpg,1,3,f,2,2,122,48,f,1,0.783096795149,01,02,60.0183612598,PLT_learning_01,A,2014_Mrz_06_1232,P09,
stim_fb/ques.jpg,stim_fb/posf.jpg,stim_fb/negf.jpg,stim_01/f.jpg,stim_01/e.jpg,1,3,f,2,3,123,47,j,0,0.516546544212,01,02,60.0183612598,PLT_learning_01,A,2014_Mrz_06_1232,P09,
stim_fb/ques.jpg,stim_fb/negf.jpg,stim_fb/posf.jpg,stim_01/c.jpg,stim_01/d.jpg,2,2,j,2,4,124,35,j,1,1.16632810006,01,02,60.0183612598,PLT_learning_01,A,2014_Mrz_06_1232,P09,
stim_fb/ques.jpg,stim_fb/negf.jpg,stim_fb/posf.jpg,stim_01/e.jpg,stim_01/f.jpg,2,3,j,2,5,125,52,f,0,0.933077362286,01,02,60.0183612598,PLT_learning_01,A,2014_Mrz_06_1232,P09,
stim_fb/ques.jpg,stim_fb/negf.jpg,stim_fb/posf.jpg,stim_01/f.jpg,stim_01/e.jpg,1,3,f,2,6,126,44,f,1,0.849757342586,01,02,60.0183612598,PLT_learning_01,A,2014_Mrz_06_1232,P09,
stim_fb/ques.jpg,stim_fb/negf.jpg,stim_fb/posf.jpg,stim_01/a.jpg,stim_01/b.jpg,2,1,j,2,7,127,10,j,1,0.6998264591,01,02,60.0183612598,PLT_learning_01,A,2014_Mrz_06_1232,P09,
stim_fb/ques.jpg,stim_fb/posf.jpg,stim_fb/negf.jpg,stim_01/a.jpg,stim_01/b.jpg,2,1,j,2,8,128,18,f,0,0.416504439424,01,02,60.0183612598,PLT_learning_01,A,2014_Mrz_06_1232,P09,
stim_fb/ques.jpg,stim_fb/negf.jpg,stim_fb/posf.jpg,stim_01/c.jpg,stim_01/d.jpg,2,2,j,2,9,129,32,j,1,0.449618324605,01,02,60.0183612598,PLT_learning_01,A,2014_Mrz_06_1232,P09,
stim_fb/ques.jpg,stim_fb/negf.jpg,stim_fb/posf.jpg,stim_01/e.jpg,stim_01/f.jpg,2,3,j,2,10,130,53,f,0,0.999887357661,01,02,60.0183612598,PLT_learning_01,A,2014_Mrz_06_1232,P09,
stim_fb/ques.jpg,stim_fb/negf.jpg,stim_fb/posf.jpg,stim_01/c.jpg,stim_01/d.jpg,2,2,j,2,11,131,30,j,1,0.483255376819,01,02,60.0183612598,PLT_learning_01,A,2014_Mrz_06_1232,P09,
stim_fb/ques.jpg,stim_fb/posf.jpg,stim_fb/negf.jpg,stim_01/c.jpg,stim_01/d.jpg,2,2,j,2,12,132,37,f,0,0.699815370504,01,02,60.0183612598,PLT_learning_01,A,2014_Mrz_06_1232,P09,
stim_fb/ques.jpg,stim_fb/negf.jpg,stim_fb/posf.jpg,stim_01/e.jpg,stim_01/f.jpg,2,3,j,2,13,133,55,f,0,0.299929934625,01,02,60.0183612598,PLT_learning_01,A,2014_Mrz_06_1232,P09,
stim_fb/ques.jpg,stim_fb/negf.jpg,stim_fb/posf.jpg,stim_01/d.jpg,stim_01/c.jpg,1,2,f,2,14,134,25,j,0,0.666505352195,01,02,60.0183612598,PLT_learning_01,A,2014_Mrz_06_1232,P09,
stim_fb/ques.jpg,stim_fb/negf.jpg,stim_fb/posf.jpg,stim_01/b.jpg,stim_01/a.jpg,1,1,f,2,15,135,6,f,1,0.816435125919,01,02,60.0183612598,PLT_learning_01,A,2014_Mrz_06_1232,P09,
stim_fb/ques.jpg,stim_fb/negf.jpg,stim_fb/posf.jpg,stim_01/b.jpg,stim_01/a.jpg,1,1,f,2,16,136,7,f,1,0.899761512464,01,02,60.0183612598,PLT_learning_01,A,2014_Mrz_06_1232,P09,
stim_fb/ques.jpg,stim_fb/posf.jpg,stim_fb/negf.jpg,stim_01/f.jpg,stim_01/e.jpg,1,3,f,2,17,137,49,j,0,1.0830349372,01,02,60.0183612598,PLT_learning_01,A,2014_Mrz_06_1232,P09,
stim_fb/ques.jpg,stim_fb/negf.jpg,stim_fb/posf.jpg,stim_01/d.jpg,stim_01/c.jpg,1,2,f,2,18,138,23,f,1,0.583182673879,01,02,60.0183612598,PLT_learning_01,A,2014_Mrz_06_1232,P09,
stim_fb/ques.jpg,stim_fb/posf.jpg,stim_fb/negf.jpg,stim_01/e.jpg,stim_01/f.jpg,2,3,j,2,19,139,59,f,0,0.783116770864,01,02,60.0183612598,PLT_learning_01,A,2014_Mrz_06_1232,P09,
stim_fb/ques.jpg,stim_fb/negf.jpg,stim_fb/posf.jpg,stim_01/e.jpg,stim_01/f.jpg,2,3,j,2,20,140,51,f,0,0.516552336628,01,02,60.0183612598,PLT_learning_01,A,2014_Mrz_06_1232,P09,
stim_fb/ques.jpg,stim_fb/negf.jpg,stim_fb/posf.jpg,stim_01/f.jpg,stim_01/e.jpg,1,3,f,2,21,141,42,j,0,0.649829074108,01,02,60.0183612598,PLT_learning_01,A,2014_Mrz_06_1232,P09,
stim_fb/ques.jpg,stim_fb/negf.jpg,stim_fb/posf.jpg,stim_01/d.jpg,stim_01/c.jpg,1,2,f,2,22,142,20,f,1,0.583195813581,01,02,60.0183612598,PLT_learning_01,A,2014_Mrz_06_1232,P09,
stim_fb/ques.jpg,stim_fb/negf.jpg,stim_fb/posf.jpg,stim_01/d.jpg,stim_01/c.jpg,1,2,f,2,23,143,21,f,1,0.916401736823,01,02,60.0183612598,PLT_learning_01,A,2014_Mrz_06_1232,P09,
stim_fb/ques.jpg,stim_fb/negf.jpg,stim_fb/posf.jpg,stim_01/a.jpg,stim_01/b.jpg,2,1,j,2,24,144,12,f,0,1.33293812777,01,02,60.0183612598,PLT_learning_01,A,2014_Mrz_06_1232,P09,
stim_fb/ques.jpg,stim_fb/negf.jpg,stim_fb/posf.jpg,stim_01/f.jpg,stim_01/e.jpg,1,3,f,2,25,145,45,f,1,0.983068254117,01,02,60.0183612598,PLT_learning_01,A,2014_Mrz_06_1232,P09,
stim_fb/ques.jpg,stim_fb/negf.jpg,stim_fb/posf.jpg,stim_01/b.jpg,stim_01/a.jpg,1,1,f,2,26,146,1,f,1,0.616485865197,01,02,60.0183612598,PLT_learning_01,A,2014_Mrz_06_1232,P09,
stim_fb/ques.jpg,stim_fb/negf.jpg,stim_fb/posf.jpg,stim_01/f.jpg,stim_01/e.jpg,1,3,f,2,27,147,40,f,1,0.583199034597,01,02,60.0183612598,PLT_learning_01,A,2014_Mrz_06_1232,P09,
stim_fb/ques.jpg,stim_fb/negf.jpg,stim_fb/posf.jpg,stim_01/a.jpg,stim_01/b.jpg,2,1,j,2,28,148,11,j,1,0.699799463915,01,02,60.0183612598,PLT_learning_01,A,2014_Mrz_06_1232,P09,
stim_fb/ques.jpg,stim_fb/posf.jpg,stim_fb/negf.jpg,stim_01/b.jpg,stim_01/a.jpg,1,1,f,2,29,149,9,f,1,0.666508143142,01,02,60.0183612598,PLT_learning_01,A,2014_Mrz_06_1232,P09,
stim_fb/ques.jpg,stim_fb/negf.jpg,stim_fb/posf.jpg,stim_01/a.jpg,stim_01/b.jpg,2,1,j,2,30,150,13,j,1,0.649818199043,01,02,60.0183612598,PLT_learning_01,A,2014_Mrz_06_1232,P09,
stim_fb/ques.jpg,stim_fb/posf.jpg,stim_fb/negf.jpg,stim_01/c.jpg,stim_01/d.jpg,2,2,j,2,31,151,38,f,0,0.56651176716,01,02,60.0183612598,PLT_learning_01,A,2014_Mrz_06_1232,P09,
stim_fb/ques.jpg,stim_fb/negf.jpg,stim_fb/posf.jpg,stim_01/b.jpg,stim_01/a.jpg,1,1,f,2,32,152,4,f,1,0.616507949158,01,02,60.0183612598,PLT_learning_01,A,2014_Mrz_06_1232,P09,
stim_fb/ques.jpg,stim_fb/negf.jpg,stim_fb/posf.jpg,stim_01/b.jpg,stim_01/a.jpg,1,1,f,2,33,153,0,f,1,0.499885312572,01,02,60.0183612598,PLT_learning_01,A,2014_Mrz_06_1232,P09,
stim_fb/ques.jpg,stim_fb/negf.jpg,stim_fb/posf.jpg,stim_01/c.jpg,stim_01/d.jpg,2,2,j,2,34,154,34,j,1,0.966398827081,01,02,60.0183612598,PLT_learning_01,A,2014_Mrz_06_1232,P09,
stim_fb/ques.jpg,stim_fb/negf.jpg,stim_fb/posf.jpg,stim_01/e.jpg,stim_01/f.jpg,2,3,j,2,35,155,54,f,0,0.866343826197,01,02,60.0183612598,PLT_learning_01,A,2014_Mrz_06_1232,P09,
stim_fb/ques.jpg,stim_fb/negf.jpg,stim_fb/posf.jpg,stim_01/c.jpg,stim_01/d.jpg,2,2,j,2,36,156,31,j,1,0.999713263384,01,02,60.0183612598,PLT_learning_01,A,2014_Mrz_06_1232,P09,
stim_fb/ques.jpg,stim_fb/negf.jpg,stim_fb/posf.jpg,stim_01/f.jpg,stim_01/e.jpg,1,3,f,2,37,157,43,f,1,0.649878288591,01,02,60.0183612598,PLT_learning_01,A,2014_Mrz_06_1232,P09,
stim_fb/ques.jpg,stim_fb/posf.jpg,stim_fb/negf.jpg,stim_01/e.jpg,stim_01/f.jpg,2,3,j,2,38,158,58,j,1,0.583110692737,01,02,60.0183612598,PLT_learning_01,A,2014_Mrz_06_1232,P09,
stim_fb/ques.jpg,stim_fb/negf.jpg,stim_fb/posf.jpg,stim_01/a.jpg,stim_01/b.jpg,2,1,j,2,39,159,14,f,0,0.317589988083,01,02,60.0183612598,PLT_learning_01,A,2014_Mrz_06_1232,P09,
stim_fb/ques.jpg,stim_fb/posf.jpg,stim_fb/negf.jpg,stim_01/e.jpg,stim_01/f.jpg,2,3,j,2,40,160,56,j,1,0.316483113348,01,02,60.0183612598,PLT_learning_01,A,2014_Mrz_06_1232,P09,
stim_fb/ques.jpg,stim_fb/posf.jpg,stim_fb/negf.jpg,stim_01/d.jpg,stim_01/c.jpg,1,2,f,2,41,161,27,f,1,0.249972976244,01,02,60.0183612598,PLT_learning_01,A,2014_Mrz_06_1232,P09,
stim_fb/ques.jpg,stim_fb/negf.jpg,stim_fb/posf.jpg,stim_01/e.jpg,stim_01/f.jpg,2,3,j,2,42,162,50,f,0,0.299954292245,01,02,60.0183612598,PLT_learning_01,A,2014_Mrz_06_1232,P09,
stim_fb/ques.jpg,stim_fb/posf.jpg,stim_fb/negf.jpg,stim_01/d.jpg,stim_01/c.jpg,1,2,f,2,43,163,28,j,0,0.633141560058,01,02,60.0183612598,PLT_learning_01,A,2014_Mrz_06_1232,P09,
stim_fb/ques.jpg,stim_fb/posf.jpg,stim_fb/negf.jpg,stim_01/a.jpg,stim_01/b.jpg,2,1,j,2,44,164,19,j,1,0.816406323237,01,02,60.0183612598,PLT_learning_01,A,2014_Mrz_06_1232,P09,
stim_fb/ques.jpg,stim_fb/posf.jpg,stim_fb/negf.jpg,stim_01/c.jpg,stim_01/d.jpg,2,2,j,2,45,165,39,f,0,0.533182864855,01,02,60.0183612598,PLT_learning_01,A,2014_Mrz_06_1232,P09,
stim_fb/ques.jpg,stim_fb/posf.jpg,stim_fb/negf.jpg,stim_01/b.jpg,stim_01/a.jpg,1,1,f,2,46,166,8,f,1,0.86629656658,01,02,60.0183612598,PLT_learning_01,A,2014_Mrz_06_1232,P09,
stim_fb/ques.jpg,stim_fb/negf.jpg,stim_fb/posf.jpg,stim_01/b.jpg,stim_01/a.jpg,1,1,f,2,47,167,2,f,1,0.649820376462,01,02,60.0183612598,PLT_learning_01,A,2014_Mrz_06_1232,P09,
stim_fb/ques.jpg,stim_fb/posf.jpg,stim_fb/negf.jpg,stim_01/e.jpg,stim_01/f.jpg,2,3,j,2,48,168,57,j,1,0.866432980079,01,02,60.0183612598,PLT_learning_01,A,2014_Mrz_06_1232,P09,
stim_fb/ques.jpg,stim_fb/negf.jpg,stim_fb/posf.jpg,stim_01/d.jpg,stim_01/c.jpg,1,2,f,2,49,169,22,f,1,0.599805923993,01,02,60.0183612598,PLT_learning_01,A,2014_Mrz_06_1232,P09,
stim_fb/ques.jpg,stim_fb/negf.jpg,stim_fb/posf.jpg,stim_01/b.jpg,stim_01/a.jpg,1,1,f,2,50,170,5,f,1,0.53321913813,01,02,60.0183612598,PLT_learning_01,A,2014_Mrz_06_1232,P09,
stim_fb/ques.jpg,stim_fb/negf.jpg,stim_fb/posf.jpg,stim_01/a.jpg,stim_01/b.jpg,2,1,j,2,51,171,17,j,1,0.666510922058,01,02,60.0183612598,PLT_learning_01,A,2014_Mrz_06_1232,P09,
stim_fb/ques.jpg,stim_fb/posf.jpg,stim_fb/negf.jpg,stim_01/f.jpg,stim_01/e.jpg,1,3,f,2,52,172,46,j,0,0.549872640534,01,02,60.0183612598,PLT_learning_01,A,2014_Mrz_06_1232,P09,
stim_fb/ques.jpg,stim_fb/negf.jpg,stim_fb/posf.jpg,stim_01/c.jpg,stim_01/d.jpg,2,2,j,2,53,173,33,f,0,0.616523813641,01,02,60.0183612598,PLT_learning_01,A,2014_Mrz_06_1232,P09,
stim_fb/ques.jpg,stim_fb/negf.jpg,stim_fb/posf.jpg,stim_01/a.jpg,stim_01/b.jpg,2,1,j,2,54,174,15,f,0,0.68315220505,01,02,60.0183612598,PLT_learning_01,A,2014_Mrz_06_1232,P09,
stim_fb/ques.jpg,stim_fb/negf.jpg,stim_fb/posf.jpg,stim_01/f.jpg,stim_01/e.jpg,1,3,f,2,55,175,41,j,0,0.333270105976,01,02,60.0183612598,PLT_learning_01,A,2014_Mrz_06_1232,P09,
stim_fb/ques.jpg,stim_fb/negf.jpg,stim_fb/posf.jpg,stim_01/d.jpg,stim_01/c.jpg,1,2,f,2,56,176,26,f,1,0.583140217216,01,02,60.0183612598,PLT_learning_01,A,2014_Mrz_06_1232,P09,
stim_fb/ques.jpg,stim_fb/negf.jpg,stim_fb/posf.jpg,stim_01/b.jpg,stim_01/a.jpg,1,1,f,2,57,177,3,f,1,0.966385305429,01,02,60.0183612598,PLT_learning_01,A,2014_Mrz_06_1232,P09,
stim_fb/ques.jpg,stim_fb/posf.jpg,stim_fb/negf.jpg,stim_01/d.jpg,stim_01/c.jpg,1,2,f,2,58,178,29,f,1,0.46649637786,01,02,60.0183612598,PLT_learning_01,A,2014_Mrz_06_1232,P09,
stim_fb/ques.jpg,stim_fb/negf.jpg,stim_fb/posf.jpg,stim_01/d.jpg,stim_01/c.jpg,1,2,f,2,59,179,24,f,1,0.466554299012,01,02,60.0183612598,PLT_learning_01,A,2014_Mrz_06_1232,P09,
stim_fb/ques.jpg,stim_fb/negf.jpg,stim_fb/posf.jpg,stim_01/e.jpg,stim_01/f.jpg,2,3,j,3,0,180,54,f,0,0.899749584779,01,02,60.0183612598,PLT_learning_01,A,2014_Mrz_06_1232,P09,
stim_fb/ques.jpg,stim_fb/negf.jpg,stim_fb/posf.jpg,stim_01/a.jpg,stim_01/b.jpg,2,1,j,3,1,181,10,f,0,0.233260352703,01,02,60.0183612598,PLT_learning_01,A,2014_Mrz_06_1232,P09,
stim_fb/ques.jpg,stim_fb/negf.jpg,stim_fb/posf.jpg,stim_01/a.jpg,stim_01/b.jpg,2,1,j,3,2,182,16,j,1,0.549922510648,01,02,60.0183612598,PLT_learning_01,A,2014_Mrz_06_1232,P09,
stim_fb/ques.jpg,stim_fb/posf.jpg,stim_fb/negf.jpg,stim_01/e.jpg,stim_01/f.jpg,2,3,j,3,3,183,59,f,0,0.100007365331,01,02,60.0183612598,PLT_learning_01,A,2014_Mrz_06_1232,P09,
stim_fb/ques.jpg,stim_fb/posf.jpg,stim_fb/negf.jpg,stim_01/e.jpg,stim_01/f.jpg,2,3,j,3,4,184,57,f,0,0.483213738191,01,02,60.0183612598,PLT_learning_01,A,2014_Mrz_06_1232,P09,
stim_fb/ques.jpg,stim_fb/negf.jpg,stim_fb/posf.jpg,stim_01/b.jpg,stim_01/a.jpg,1,1,f,3,5,185,3,f,1,0.499892067382,01,02,60.0183612598,PLT_learning_01,A,2014_Mrz_06_1232,P09,
stim_fb/ques.jpg,stim_fb/negf.jpg,stim_fb/posf.jpg,stim_01/e.jpg,stim_01/f.jpg,2,3,j,3,6,186,55,f,0,0.383215711101,01,02,60.0183612598,PLT_learning_01,A,2014_Mrz_06_1232,P09,
stim_fb/ques.jpg,stim_fb/negf.jpg,stim_fb/posf.jpg,stim_01/e.jpg,stim_01/f.jpg,2,3,j,3,7,187,52,j,1,0.449910796495,01,02,60.0183612598,PLT_learning_01,A,2014_Mrz_06_1232,P09,
stim_fb/ques.jpg,stim_fb/negf.jpg,stim_fb/posf.jpg,stim_01/a.jpg,stim_01/b.jpg,2,1,j,3,8,188,12,j,1,0.549873813453,01,02,60.0183612598,PLT_learning_01,A,2014_Mrz_06_1232,P09,
stim_fb/ques.jpg,stim_fb/negf.jpg,stim_fb/posf.jpg,stim_01/a.jpg,stim_01/b.jpg,2,1,j,3,9,189,15,j,1,0.466527601568,01,02,60.0183612598,PLT_learning_01,A,2014_Mrz_06_1232,P09,
stim_fb/ques.jpg,stim_fb/negf.jpg,stim_fb/posf.jpg,stim_01/b.jpg,stim_01/a.jpg,1,1,f,3,10,190,0,f,1,0.583178036338,01,02,60.0183612598,PLT_learning_01,A,2014_Mrz_06_1232,P09,
stim_fb/ques.jpg,stim_fb/negf.jpg,stim_fb/posf.jpg,stim_01/f.jpg,stim_01/e.jpg,1,3,f,3,11,191,41,f,1,0.316582456589,01,02,60.0183612598,PLT_learning_01,A,2014_Mrz_06_1232,P09,
stim_fb/ques.jpg,stim_fb/posf.jpg,stim_fb/negf.jpg,stim_01/e.jpg,stim_01/f.jpg,2,3,j,3,12,192,56,f,0,0.349929370721,01,02,60.0183612598,PLT_learning_01,A,2014_Mrz_06_1232,P09,
stim_fb/ques.jpg,stim_fb/negf.jpg,stim_fb/posf.jpg,stim_01/a.jpg,stim_01/b.jpg,2,1,j,3,13,193,11,j,1,0.483217801303,01,02,60.0183612598,PLT_learning_01,A,2014_Mrz_06_1232,P09,
stim_fb/ques.jpg,stim_fb/negf.jpg,stim_fb/posf.jpg,stim_01/b.jpg,stim_01/a.jpg,1,1,f,3,14,194,6,f,1,0.566533703755,01,02,60.0183612598,PLT_learning_01,A,2014_Mrz_06_1232,P09,
stim_fb/ques.jpg,stim_fb/negf.jpg,stim_fb/posf.jpg,stim_01/d.jpg,stim_01/c.jpg,1,2,f,3,15,195,25,f,1,0.549865723319,01,02,60.0183612598,PLT_learning_01,A,2014_Mrz_06_1232,P09,
stim_fb/ques.jpg,stim_fb/posf.jpg,stim_fb/negf.jpg,stim_01/f.jpg,stim_01/e.jpg,1,3,f,3,16,196,46,f,1,0.816394025631,01,02,60.0183612598,PLT_learning_01,A,2014_Mrz_06_1232,P09,
stim_fb/ques.jpg,stim_fb/negf.jpg,stim_fb/posf.jpg,stim_01/c.jpg,stim_01/d.jpg,2,2,j,3,17,197,32,j,1,0.466542332229,01,02,60.0183612598,PLT_learning_01,A,2014_Mrz_06_1232,P09,
stim_fb/ques.jpg,stim_fb/posf.jpg,stim_fb/negf.jpg,stim_01/d.jpg,stim_01/c.jpg,1,2,f,3,18,198,28,f,1,0.483211942722,01,02,60.0183612598,PLT_learning_01,A,2014_Mrz_06_1232,P09,
stim_fb/ques.jpg,stim_fb/negf.jpg,stim_fb/posf.jpg,stim_01/c.jpg,stim_01/d.jpg,2,2,j,3,19,199,34,j,1,0.483223479434,01,02,60.0183612598,PLT_learning_01,A,2014_Mrz_06_1232,P09,
stim_fb/ques.jpg,stim_fb/negf.jpg,stim_fb/posf.jpg,stim_01/b.jpg,stim_01/a.jpg,1,1,f,3,20,200,7,f,1,0.583204664609,01,02,60.0183612598,PLT_learning_01,A,2014_Mrz_06_1232,P09,
stim_fb/ques.jpg,stim_fb/negf.jpg,stim_fb/posf.jpg,stim_01/a.jpg,stim_01/b.jpg,2,1,j,3,21,201,13,j,1,1.01637733108,01,02,60.0183612598,PLT_learning_01,A,2014_Mrz_06_1232,P09,
stim_fb/ques.jpg,stim_fb/posf.jpg,stim_fb/negf.jpg,stim_01/f.jpg,stim_01/e.jpg,1,3,f,3,22,202,47,f,1,0.699815644185,01,02,60.0183612598,PLT_learning_01,A,2014_Mrz_06_1232,P09,
stim_fb/ques.jpg,stim_fb/negf.jpg,stim_fb/posf.jpg,stim_01/f.jpg,stim_01/e.jpg,1,3,f,3,23,203,45,f,1,0.749788217426,01,02,60.0183612598,PLT_learning_01,A,2014_Mrz_06_1232,P09,
stim_fb/ques.jpg,stim_fb/posf.jpg,stim_fb/negf.jpg,stim_01/c.jpg,stim_01/d.jpg,2,2,j,3,24,204,37,j,1,0.599803776649,01,02,60.0183612598,PLT_learning_01,A,2014_Mrz_06_1232,P09,
stim_fb/ques.jpg,stim_fb/negf.jpg,stim_fb/posf.jpg,stim_01/d.jpg,stim_01/c.jpg,1,2,f,3,25,205,26,f,1,0.466607540517,01,02,60.0183612598,PLT_learning_01,A,2014_Mrz_06_1232,P09,
stim_fb/ques.jpg,stim_fb/negf.jpg,stim_fb/posf.jpg,stim_01/b.jpg,stim_01/a.jpg,1,1,f,3,26,206,2,f,1,0.499865986474,01,02,60.0183612598,PLT_learning_01,A,2014_Mrz_06_1232,P09,
stim_fb/ques.jpg,stim_fb/negf.jpg,stim_fb/posf.jpg,stim_01/c.jpg,stim_01/d.jpg,2,2,j,3,27,207,36,j,1,0.383251187392,01,02,60.0183612598,PLT_learning_01,A,2014_Mrz_06_1232,P09,
stim_fb/ques.jpg,stim_fb/posf.jpg,stim_fb/negf.jpg,stim_01/a.jpg,stim_01/b.jpg,2,1,j,3,28,208,19,f,0,0.416573897287,01,02,60.0183612598,PLT_learning_01,A,2014_Mrz_06_1232,P09,
stim_fb/ques.jpg,stim_fb/negf.jpg,stim_fb/posf.jpg,stim_01/e.jpg,stim_01/f.jpg,2,3,j,3,29,209,50,f,0,0.599856148991,01,02,60.0183612598,PLT_learning_01,A,2014_Mrz_06_1232,P09,
stim_fb/ques.jpg,stim_fb/negf.jpg,stim_fb/posf.jpg,stim_01/b.jpg,stim_01/a.jpg,1,1,f,3,30,210,5,j,0,0.449940200675,01,02,60.0183612598,PLT_learning_01,A,2014_Mrz_06_1232,P09,
stim_fb/ques.jpg,stim_fb/negf.jpg,stim_fb/posf.jpg,stim_01/d.jpg,stim_01/c.jpg,1,2,f,3,31,211,21,f,1,0.316615629147,01,02,60.0183612598,PLT_learning_01,A,2014_Mrz_06_1232,P09,
stim_fb/ques.jpg,stim_fb/negf.jpg,stim_fb/posf.jpg,stim_01/f.jpg,stim_01/e.jpg,1,3,f,3,32,212,42,f,1,0.483187431721,01,02,60.0183612598,PLT_learning_01,A,2014_Mrz_06_1232,P09,
stim_fb/ques.jpg,stim_fb/negf.jpg,stim_fb/posf.jpg,stim_01/d.jpg,stim_01/c.jpg,1,2,f,3,33,213,20,f,1,0.483227557584,01,02,60.0183612598,PLT_learning_01,A,2014_Mrz_06_1232,P09,
stim_fb/ques.jpg,stim_fb/negf.jpg,stim_fb/posf.jpg,stim_01/c.jpg,stim_01/d.jpg,2,2,j,3,34,214,31,j,1,1.01638170697,01,02,60.0183612598,PLT_learning_01,A,2014_Mrz_06_1232,P09,
stim_fb/ques.jpg,stim_fb/posf.jpg,stim_fb/negf.jpg,stim_01/b.jpg,stim_01/a.jpg,1,1,f,3,35,215,8,j,0,1.04971140626,01,02,60.0183612598,PLT_learning_01,A,2014_Mrz_06_1232,P09,
stim_fb/ques.jpg,stim_fb/posf.jpg,stim_fb/negf.jpg,stim_01/c.jpg,stim_01/d.jpg,2,2,j,3,36,216,39,j,1,0.94974771262,01,02,60.0183612598,PLT_learning_01,A,2014_Mrz_06_1232,P09,
stim_fb/ques.jpg,stim_fb/posf.jpg,stim_fb/negf.jpg,stim_01/f.jpg,stim_01/e.jpg,1,3,f,3,37,217,49,f,1,0.466536915749,01,02,60.0183612598,PLT_learning_01,A,2014_Mrz_06_1232,P09,
stim_fb/ques.jpg,stim_fb/posf.jpg,stim_fb/negf.jpg,stim_01/b.jpg,stim_01/a.jpg,1,1,f,3,38,218,9,f,1,0.73313806536,01,02,60.0183612598,PLT_learning_01,A,2014_Mrz_06_1232,P09,
stim_fb/ques.jpg,stim_fb/negf.jpg,stim_fb/posf.jpg,stim_01/f.jpg,stim_01/e.jpg,1,3,f,3,39,219,40,f,1,0.633118137765,01,02,60.0183612598,PLT_learning_01,A,2014_Mrz_06_1232,P09,
stim_fb/ques.jpg,stim_fb/negf.jpg,stim_fb/posf.jpg,stim_01/e.jpg,stim_01/f.jpg,2,3,j,3,40,220,51,j,1,0.583079029936,01,02,60.0183612598,PLT_learning_01,A,2014_Mrz_06_1232,P09,
stim_fb/ques.jpg,stim_fb/negf.jpg,stim_fb/posf.jpg,stim_01/f.jpg,stim_01/e.jpg,1,3,f,3,41,221,43,f,1,0.566520509919,01,02,60.0183612598,PLT_learning_01,A,2014_Mrz_06_1232,P09,
stim_fb/ques.jpg,stim_fb/negf.jpg,stim_fb/posf.jpg,stim_01/c.jpg,stim_01/d.jpg,2,2,j,3,42,222,35,j,1,0.533212999853,01,02,60.0183612598,PLT_learning_01,A,2014_Mrz_06_1232,P09,
stim_fb/ques.jpg,stim_fb/negf.jpg,stim_fb/posf.jpg,stim_01/f.jpg,stim_01/e.jpg,1,3,f,3,43,223,44,f,1,0.616564965057,01,02,60.0183612598,PLT_learning_01,A,2014_Mrz_06_1232,P09,
stim_fb/ques.jpg,stim_fb/negf.jpg,stim_fb/posf.jpg,stim_01/d.jpg,stim_01/c.jpg,1,2,f,3,44,224,23,f,1,0.416597800776,01,02,60.0183612598,PLT_learning_01,A,2014_Mrz_06_1232,P09,
stim_fb/ques.jpg,stim_fb/negf.jpg,stim_fb/posf.jpg,stim_01/c.jpg,stim_01/d.jpg,2,2,j,3,45,225,30,j,1,0.583191876783,01,02,60.0183612598,PLT_learning_01,A,2014_Mrz_06_1232,P09,
stim_fb/ques.jpg,stim_fb/negf.jpg,stim_fb/posf.jpg,stim_01/b.jpg,stim_01/a.jpg,1,1,f,3,46,226,4,f,1,0.433216271997,01,02,60.0183612598,PLT_learning_01,A,2014_Mrz_06_1232,P09,
stim_fb/ques.jpg,stim_fb/posf.jpg,stim_fb/negf.jpg,stim_01/a.jpg,stim_01/b.jpg,2,1,j,3,47,227,18,j,1,0.516546914133,01,02,60.0183612598,PLT_learning_01,A,2014_Mrz_06_1232,P09,
stim_fb/ques.jpg,stim_fb/negf.jpg,stim_fb/posf.jpg,stim_01/e.jpg,stim_01/f.jpg,2,3,j,3,48,228,53,j,1,0.583172027383,01,02,60.0183612598,PLT_learning_01,A,2014_Mrz_06_1232,P09,
stim_fb/ques.jpg,stim_fb/posf.jpg,stim_fb/negf.jpg,stim_01/d.jpg,stim_01/c.jpg,1,2,f,3,49,229,27,f,1,0.616502827412,01,02,60.0183612598,PLT_learning_01,A,2014_Mrz_06_1232,P09,
stim_fb/ques.jpg,stim_fb/posf.jpg,stim_fb/negf.jpg,stim_01/f.jpg,stim_01/e.jpg,1,3,f,3,50,230,48,j,0,0.499867279692,01,02,60.0183612598,PLT_learning_01,A,2014_Mrz_06_1232,P09,
stim_fb/ques.jpg,stim_fb/negf.jpg,stim_fb/posf.jpg,stim_01/b.jpg,stim_01/a.jpg,1,1,f,3,51,231,1,f,1,0.51652143472,01,02,60.0183612598,PLT_learning_01,A,2014_Mrz_06_1232,P09,
stim_fb/ques.jpg,stim_fb/negf.jpg,stim_fb/posf.jpg,stim_01/a.jpg,stim_01/b.jpg,2,1,j,3,52,232,14,j,1,0.566430128983,01,02,60.0183612598,PLT_learning_01,A,2014_Mrz_06_1232,P09,
stim_fb/ques.jpg,stim_fb/posf.jpg,stim_fb/negf.jpg,stim_01/d.jpg,stim_01/c.jpg,1,2,f,3,53,233,29,f,1,0.666484218599,01,02,60.0183612598,PLT_learning_01,A,2014_Mrz_06_1232,P09,
stim_fb/ques.jpg,stim_fb/negf.jpg,stim_fb/posf.jpg,stim_01/d.jpg,stim_01/c.jpg,1,2,f,3,54,234,22,f,1,0.616520565557,01,02,60.0183612598,PLT_learning_01,A,2014_Mrz_06_1232,P09,
stim_fb/ques.jpg,stim_fb/negf.jpg,stim_fb/posf.jpg,stim_01/a.jpg,stim_01/b.jpg,2,1,j,3,55,235,17,j,1,0.516510890479,01,02,60.0183612598,PLT_learning_01,A,2014_Mrz_06_1232,P09,
stim_fb/ques.jpg,stim_fb/negf.jpg,stim_fb/posf.jpg,stim_01/c.jpg,stim_01/d.jpg,2,2,j,3,56,236,33,f,0,0.483230522964,01,02,60.0183612598,PLT_learning_01,A,2014_Mrz_06_1232,P09,
stim_fb/ques.jpg,stim_fb/posf.jpg,stim_fb/negf.jpg,stim_01/c.jpg,stim_01/d.jpg,2,2,j,3,57,237,38,j,1,0.683150884764,01,02,60.0183612598,PLT_learning_01,A,2014_Mrz_06_1232,P09,
stim_fb/ques.jpg,stim_fb/posf.jpg,stim_fb/negf.jpg,stim_01/e.jpg,stim_01/f.jpg,2,3,j,3,58,238,58,j,1,0.716483937399,01,02,60.0183612598,PLT_learning_01,A,2014_Mrz_06_1232,P09,
stim_fb/ques.jpg,stim_fb/negf.jpg,stim_fb/posf.jpg,stim_01/d.jpg,stim_01/c.jpg,1,2,f,3,59,239,24,j,0,0.516570402589,01,02,60.0183612598,PLT_learning_01,A,2014_Mrz_06_1232,P09,
stim_fb/ques.jpg,stim_fb/negf.jpg,stim_fb/posf.jpg,stim_01/a.jpg,stim_01/b.jpg,2,1,j,4,0,240,17,j,1,0.71642799818,01,02,60.0183612598,PLT_learning_01,A,2014_Mrz_06_1232,P09,
stim_fb/ques.jpg,stim_fb/negf.jpg,stim_fb/posf.jpg,stim_01/d.jpg,stim_01/c.jpg,1,2,f,4,1,241,26,f,1,0.54986849622,01,02,60.0183612598,PLT_learning_01,A,2014_Mrz_06_1232,P09,
stim_fb/ques.jpg,stim_fb/negf.jpg,stim_fb/posf.jpg,stim_01/d.jpg,stim_01/c.jpg,1,2,f,4,2,242,22,f,1,0.51653341654,01,02,60.0183612598,PLT_learning_01,A,2014_Mrz_06_1232,P09,
stim_fb/ques.jpg,stim_fb/negf.jpg,stim_fb/posf.jpg,stim_01/e.jpg,stim_01/f.jpg,2,3,j,4,3,243,51,j,1,0.61653655034,01,02,60.0183612598,PLT_learning_01,A,2014_Mrz_06_1232,P09,
stim_fb/ques.jpg,stim_fb/negf.jpg,stim_fb/posf.jpg,stim_01/c.jpg,stim_01/d.jpg,2,2,j,4,4,244,34,j,1,0.666485211069,01,02,60.0183612598,PLT_learning_01,A,2014_Mrz_06_1232,P09,
stim_fb/ques.jpg,stim_fb/negf.jpg,stim_fb/posf.jpg,stim_01/b.jpg,stim_01/a.jpg,1,1,f,4,5,245,2,f,1,0.966404075142,01,02,60.0183612598,PLT_learning_01,A,2014_Mrz_06_1232,P09,
stim_fb/ques.jpg,stim_fb/posf.jpg,stim_fb/negf.jpg,stim_01/e.jpg,stim_01/f.jpg,2,3,j,4,6,246,59,j,1,0.599733130829,01,02,60.0183612598,PLT_learning_01,A,2014_Mrz_06_1232,P09,
stim_fb/ques.jpg,stim_fb/negf.jpg,stim_fb/posf.jpg,stim_01/c.jpg,stim_01/d.jpg,2,2,j,4,7,247,35,j,1,0.599855649748,01,02,60.0183612598,PLT_learning_01,A,2014_Mrz_06_1232,P09,
stim_fb/ques.jpg,stim_fb/negf.jpg,stim_fb/posf.jpg,stim_01/f.jpg,stim_01/e.jpg,1,3,f,4,8,248,45,j,0,0.566494272621,01,02,60.0183612598,PLT_learning_01,A,2014_Mrz_06_1232,P09,
stim_fb/ques.jpg,stim_fb/negf.jpg,stim_fb/posf.jpg,stim_01/a.jpg,stim_01/b.jpg,2,1,j,4,9,249,13,j,1,0.499882870494,01,02,60.0183612598,PLT_learning_01,A,2014_Mrz_06_1232,P09,
stim_fb/ques.jpg,stim_fb/negf.jpg,stim_fb/posf.jpg,stim_01/f.jpg,stim_01/e.jpg,1,3,f,4,10,250,44,f,1,0.499924851976,01,02,60.0183612598,PLT_learning_01,A,2014_Mrz_06_1232,P09,
stim_fb/ques.jpg,stim_fb/posf.jpg,stim_fb/negf.jpg,stim_01/d.jpg,stim_01/c.jpg,1,2,f,4,11,251,27,f,1,0.566531694755,01,02,60.0183612598,PLT_learning_01,A,2014_Mrz_06_1232,P09,
stim_fb/ques.jpg,stim_fb/negf.jpg,stim_fb/posf.jpg,stim_01/e.jpg,stim_01/f.jpg,2,3,j,4,12,252,54,j,1,0.599855992602,01,02,60.0183612598,PLT_learning_01,A,2014_Mrz_06_1232,P09,
stim_fb/ques.jpg,stim_fb/negf.jpg,stim_fb/posf.jpg,stim_01/f.jpg,stim_01/e.jpg,1,3,f,4,13,253,41,f,1,0.549865404525,01,02,60.0183612598,PLT_learning_01,A,2014_Mrz_06_1232,P09,
stim_fb/ques.jpg,stim_fb/posf.jpg,stim_fb/negf.jpg,stim_01/b.jpg,stim_01/a.jpg,1,1,f,4,14,254,8,j,0,0.916438268741,01,02,60.0183612598,PLT_learning_01,A,2014_Mrz_06_1232,P09,
stim_fb/ques.jpg,stim_fb/negf.jpg,stim_fb/posf.jpg,stim_01/c.jpg,stim_01/d.jpg,2,2,j,4,15,255,30,f,0,0.333267787205,01,02,60.0183612598,PLT_learning_01,A,2014_Mrz_06_1232,P09,
stim_fb/ques.jpg,stim_fb/posf.jpg,stim_fb/negf.jpg,stim_01/f.jpg,stim_01/e.jpg,1,3,f,4,16,256,47,j,0,0.416576991989,01,02,60.0183612598,PLT_learning_01,A,2014_Mrz_06_1232,P09,
stim_fb/ques.jpg,stim_fb/posf.jpg,stim_fb/negf.jpg,stim_01/e.jpg,stim_01/f.jpg,2,3,j,4,17,257,57,j,1,0.266656553497,01,02,60.0183612598,PLT_learning_01,A,2014_Mrz_06_1232,P09,
stim_fb/ques.jpg,stim_fb/posf.jpg,stim_fb/negf.jpg,stim_01/c.jpg,stim_01/d.jpg,2,2,j,4,18,258,39,f,0,0.316619202039,01,02,60.0183612598,PLT_learning_01,A,2014_Mrz_06_1232,P09,
stim_fb/ques.jpg,stim_fb/posf.jpg,stim_fb/negf.jpg,stim_01/a.jpg,stim_01/b.jpg,2,1,j,4,19,259,18,j,1,0.566527000071,01,02,60.0183612598,PLT_learning_01,A,2014_Mrz_06_1232,P09,
stim_fb/ques.jpg,stim_fb/negf.jpg,stim_fb/posf.jpg,stim_01/e.jpg,stim_01/f.jpg,2,3,j,4,20,260,53,j,1,0.633295395917,01,02,60.0183612598,PLT_learning_01,A,2014_Mrz_06_1232,P09,
stim_fb/ques.jpg,stim_fb/negf.jpg,stim_fb/posf.jpg,stim_01/e.jpg,stim_01/f.jpg,2,3,j,4,21,261,55,f,0,0.74984660173,01,02,60.0183612598,PLT_learning_01,A,2014_Mrz_06_1232,P09,
stim_fb/ques.jpg,stim_fb/negf.jpg,stim_fb/posf.jpg,stim_01/b.jpg,stim_01/a.jpg,1,1,f,4,22,262,5,f,1,0.749786379853,01,02,60.0183612598,PLT_learning_01,A,2014_Mrz_06_1232,P09,
stim_fb/ques.jpg,stim_fb/negf.jpg,stim_fb/posf.jpg,stim_01/a.jpg,stim_01/b.jpg,2,1,j,4,23,263,16,j,1,0.599838913095,01,02,60.0183612598,PLT_learning_01,A,2014_Mrz_06_1232,P09,
stim_fb/ques.jpg,stim_fb/negf.jpg,stim_fb/posf.jpg,stim_01/d.jpg,stim_01/c.jpg,1,2,f,4,24,264,21,f,1,0.433245760386,01,02,60.0183612598,PLT_learning_01,A,2014_Mrz_06_1232,P09,
stim_fb/ques.jpg,stim_fb/negf.jpg,stim_fb/posf.jpg,stim_01/b.jpg,stim_01/a.jpg,1,1,f,4,25,265,0,f,1,0.549870303718,01,02,60.0183612598,PLT_learning_01,A,2014_Mrz_06_1232,P09,
stim_fb/ques.jpg,stim_fb/negf.jpg,stim_fb/posf.jpg,stim_01/b.jpg,stim_01/a.jpg,1,1,f,4,26,266,4,f,1,0.516529139897,01,02,60.0183612598,PLT_learning_01,A,2014_Mrz_06_1232,P09,
stim_fb/ques.jpg,stim_fb/negf.jpg,stim_fb/posf.jpg,stim_01/e.jpg,stim_01/f.jpg,2,3,j,4,27,267,52,j,1,0.733192103849,01,02,60.0183612598,PLT_learning_01,A,2014_Mrz_06_1232,P09,
stim_fb/ques.jpg,stim_fb/negf.jpg,stim_fb/posf.jpg,stim_01/c.jpg,stim_01/d.jpg,2,2,j,4,28,268,33,f,0,0.349904580024,01,02,60.0183612598,PLT_learning_01,A,2014_Mrz_06_1232,P09,
stim_fb/ques.jpg,stim_fb/negf.jpg,stim_fb/posf.jpg,stim_01/a.jpg,stim_01/b.jpg,2,1,j,4,29,269,11,j,1,0.599858073781,01,02,60.0183612598,PLT_learning_01,A,2014_Mrz_06_1232,P09,
stim_fb/ques.jpg,stim_fb/posf.jpg,stim_fb/negf.jpg,stim_01/f.jpg,stim_01/e.jpg,1,3,f,4,30,270,46,f,1,0.699802612753,01,02,60.0183612598,PLT_learning_01,A,2014_Mrz_06_1232,P09,
stim_fb/ques.jpg,stim_fb/negf.jpg,stim_fb/posf.jpg,stim_01/f.jpg,stim_01/e.jpg,1,3,f,4,31,271,42,f,1,0.516556664398,01,02,60.0183612598,PLT_learning_01,A,2014_Mrz_06_1232,P09,
stim_fb/ques.jpg,stim_fb/posf.jpg,stim_fb/negf.jpg,stim_01/c.jpg,stim_01/d.jpg,2,2,j,4,32,272,38,j,1,0.499894166607,01,02,60.0183612598,PLT_learning_01,A,2014_Mrz_06_1232,P09,
stim_fb/ques.jpg,stim_fb/posf.jpg,stim_fb/negf.jpg,stim_01/a.jpg,stim_01/b.jpg,2,1,j,4,33,273,19,f,0,0.433232825194,01,02,60.0183612598,PLT_learning_01,A,2014_Mrz_06_1232,P09,
stim_fb/ques.jpg,stim_fb/negf.jpg,stim_fb/posf.jpg,stim_01/a.jpg,stim_01/b.jpg,2,1,j,4,34,274,14,j,1,0.433236277786,01,02,60.0183612598,PLT_learning_01,A,2014_Mrz_06_1232,P09,
stim_fb/ques.jpg,stim_fb/negf.jpg,stim_fb/posf.jpg,stim_01/e.jpg,stim_01/f.jpg,2,3,j,4,35,275,50,f,0,0.299926280531,01,02,60.0183612598,PLT_learning_01,A,2014_Mrz_06_1232,P09,
stim_fb/ques.jpg,stim_fb/posf.jpg,stim_fb/negf.jpg,stim_01/c.jpg,stim_01/d.jpg,2,2,j,4,36,276,37,j,1,0.54984961523,01,02,60.0183612598,PLT_learning_01,A,2014_Mrz_06_1232,P09,
stim_fb/ques.jpg,stim_fb/posf.jpg,stim_fb/negf.jpg,stim_01/e.jpg,stim_01/f.jpg,2,3,j,4,37,277,58,f,0,0.283284299801,01,02,60.0183612598,PLT_learning_01,A,2014_Mrz_06_1232,P09,
stim_fb/ques.jpg,stim_fb/negf.jpg,stim_fb/posf.jpg,stim_01/a.jpg,stim_01/b.jpg,2,1,j,4,38,278,10,j,1,0.416545001372,01,02,60.0183612598,PLT_learning_01,A,2014_Mrz_06_1232,P09,
stim_fb/ques.jpg,stim_fb/negf.jpg,stim_fb/posf.jpg,stim_01/a.jpg,stim_01/b.jpg,2,1,j,4,39,279,12,f,0,0.333264319575,01,02,60.0183612598,PLT_learning_01,A,2014_Mrz_06_1232,P09,
stim_fb/ques.jpg,stim_fb/negf.jpg,stim_fb/posf.jpg,stim_01/d.jpg,stim_01/c.jpg,1,2,f,4,40,280,23,j,0,0.533198663173,01,02,60.0183612598,PLT_learning_01,A,2014_Mrz_06_1232,P09,
stim_fb/ques.jpg,stim_fb/negf.jpg,stim_fb/posf.jpg,stim_01/d.jpg,stim_01/c.jpg,1,2,f,4,41,281,24,f,1,0.233301699605,01,02,60.0183612598,PLT_learning_01,A,2014_Mrz_06_1232,P09,
stim_fb/ques.jpg,stim_fb/negf.jpg,stim_fb/posf.jpg,stim_01/d.jpg,stim_01/c.jpg,1,2,f,4,42,282,20,f,1,0.58320898035,01,02,60.0183612598,PLT_learning_01,A,2014_Mrz_06_1232,P09,
stim_fb/ques.jpg,stim_fb/posf.jpg,stim_fb/negf.jpg,stim_01/d.jpg,stim_01/c.jpg,1,2,f,4,43,283,29,f,1,1.31625027387,01,02,60.0183612598,PLT_learning_01,A,2014_Mrz_06_1232,P09,
stim_fb/ques.jpg,stim_fb/negf.jpg,stim_fb/posf.jpg,stim_01/c.jpg,stim_01/d.jpg,2,2,j,4,44,284,36,j,1,0.583200433078,01,02,60.0183612598,PLT_learning_01,A,2014_Mrz_06_1232,P09,
stim_fb/ques.jpg,stim_fb/negf.jpg,stim_fb/posf.jpg,stim_01/c.jpg,stim_01/d.jpg,2,2,j,4,45,285,31,j,1,0.733152353921,01,02,60.0183612598,PLT_learning_01,A,2014_Mrz_06_1232,P09,
stim_fb/ques.jpg,stim_fb/posf.jpg,stim_fb/negf.jpg,stim_01/d.jpg,stim_01/c.jpg,1,2,f,4,46,286,28,f,1,0.483212691586,01,02,60.0183612598,PLT_learning_01,A,2014_Mrz_06_1232,P09,
stim_fb/ques.jpg,stim_fb/negf.jpg,stim_fb/posf.jpg,stim_01/f.jpg,stim_01/e.jpg,1,3,f,4,47,287,43,j,0,0.533209384856,01,02,60.0183612598,PLT_learning_01,A,2014_Mrz_06_1232,P09,
stim_fb/ques.jpg,stim_fb/negf.jpg,stim_fb/posf.jpg,stim_01/b.jpg,stim_01/a.jpg,1,1,f,4,48,288,1,f,1,0.150016524625,01,02,60.0183612598,PLT_learning_01,A,2014_Mrz_06_1232,P09,
stim_fb/ques.jpg,stim_fb/posf.jpg,stim_fb/negf.jpg,stim_01/f.jpg,stim_01/e.jpg,1,3,f,4,49,289,48,j,0,0.549858517385,01,02,60.0183612598,PLT_learning_01,A,2014_Mrz_06_1232,P09,
stim_fb/ques.jpg,stim_fb/posf.jpg,stim_fb/negf.jpg,stim_01/e.jpg,stim_01/f.jpg,2,3,j,4,50,290,56,f,0,0.29996117337,01,02,60.0183612598,PLT_learning_01,A,2014_Mrz_06_1232,P09,
stim_fb/ques.jpg,stim_fb/posf.jpg,stim_fb/negf.jpg,stim_01/b.jpg,stim_01/a.jpg,1,1,f,4,51,291,9,f,1,0.616575064191,01,02,60.0183612598,PLT_learning_01,A,2014_Mrz_06_1232,P09,
stim_fb/ques.jpg,stim_fb/negf.jpg,stim_fb/posf.jpg,stim_01/b.jpg,stim_01/a.jpg,1,1,f,4,52,292,6,f,1,0.483200487212,01,02,60.0183612598,PLT_learning_01,A,2014_Mrz_06_1232,P09,
stim_fb/ques.jpg,stim_fb/negf.jpg,stim_fb/posf.jpg,stim_01/b.jpg,stim_01/a.jpg,1,1,f,4,53,293,7,f,1,0.449887852392,01,02,60.0183612598,PLT_learning_01,A,2014_Mrz_06_1232,P09,
stim_fb/ques.jpg,stim_fb/negf.jpg,stim_fb/posf.jpg,stim_01/c.jpg,stim_01/d.jpg,2,2,j,4,54,294,32,j,1,0.566529018094,01,02,60.0183612598,PLT_learning_01,A,2014_Mrz_06_1232,P09,
stim_fb/ques.jpg,stim_fb/negf.jpg,stim_fb/posf.jpg,stim_01/a.jpg,stim_01/b.jpg,2,1,j,4,55,295,15,j,1,0.749833034965,01,02,60.0183612598,PLT_learning_01,A,2014_Mrz_06_1232,P09,
stim_fb/ques.jpg,stim_fb/negf.jpg,stim_fb/posf.jpg,stim_01/d.jpg,stim_01/c.jpg,1,2,f,4,56,296,25,f,1,0.4832258764,01,02,60.0183612598,PLT_learning_01,A,2014_Mrz_06_1232,P09,
stim_fb/ques.jpg,stim_fb/posf.jpg,stim_fb/negf.jpg,stim_01/f.jpg,stim_01/e.jpg,1,3,f,4,57,297,49,f,1,0.766445945347,01,02,60.0183612598,PLT_learning_01,A,2014_Mrz_06_1232,P09,
stim_fb/ques.jpg,stim_fb/negf.jpg,stim_fb/posf.jpg,stim_01/b.jpg,stim_01/a.jpg,1,1,f,4,58,298,3,f,1,0.266607660816,01,02,60.0183612598,PLT_learning_01,A,2014_Mrz_06_1232,P09,
stim_fb/ques.jpg,stim_fb/negf.jpg,stim_fb/posf.jpg,stim_01/f.jpg,stim_01/e.jpg,1,3,f,4,59,299,40,f,1,0.549864487243,01,02,60.0183612598,PLT_learning_01,A,2014_Mrz_06_1232,P09,
stim_fb/ques.jpg,stim_fb/posf.jpg,stim_fb/negf.jpg,stim_01/e.jpg,stim_01/f.jpg,2,3,j,5,0,300,57,f,0,0.799782853577,01,02,60.0183612598,PLT_learning_01,A,2014_Mrz_06_1232,P09,
stim_fb/ques.jpg,stim_fb/negf.jpg,stim_fb/posf.jpg,stim_01/b.jpg,stim_01/a.jpg,1,1,f,5,1,301,1,j,0,1.18297107025,01,02,60.0183612598,PLT_learning_01,A,2014_Mrz_06_1232,P09,
stim_fb/ques.jpg,stim_fb/negf.jpg,stim_fb/posf.jpg,stim_01/a.jpg,stim_01/b.jpg,2,1,j,5,2,302,16,f,0,0.416565801138,01,02,60.0183612598,PLT_learning_01,A,2014_Mrz_06_1232,P09,
stim_fb/ques.jpg,stim_fb/posf.jpg,stim_fb/negf.jpg,stim_01/b.jpg,stim_01/a.jpg,1,1,f,5,3,303,9,j,0,0.266627570365,01,02,60.0183612598,PLT_learning_01,A,2014_Mrz_06_1232,P09,
stim_fb/ques.jpg,stim_fb/negf.jpg,stim_fb/posf.jpg,stim_01/c.jpg,stim_01/d.jpg,2,2,j,5,4,304,35,j,1,0.699812964515,01,02,60.0183612598,PLT_learning_01,A,2014_Mrz_06_1232,P09,
stim_fb/ques.jpg,stim_fb/posf.jpg,stim_fb/negf.jpg,stim_01/c.jpg,stim_01/d.jpg,2,2,j,5,5,305,39,j,1,0.58321399082,01,02,60.0183612598,PLT_learning_01,A,2014_Mrz_06_1232,P09,
stim_fb/ques.jpg,stim_fb/negf.jpg,stim_fb/posf.jpg,stim_01/b.jpg,stim_01/a.jpg,1,1,f,5,6,306,0,f,1,0.649806923982,01,02,60.0183612598,PLT_learning_01,A,2014_Mrz_06_1232,P09,
stim_fb/ques.jpg,stim_fb/negf.jpg,stim_fb/posf.jpg,stim_01/d.jpg,stim_01/c.jpg,1,2,f,5,7,307,20,f,1,0.516520180599,01,02,60.0183612598,PLT_learning_01,A,2014_Mrz_06_1232,P09,
stim_fb/ques.jpg,stim_fb/negf.jpg,stim_fb/posf.jpg,stim_01/d.jpg,stim_01/c.jpg,1,2,f,5,8,308,23,f,1,0.433239441661,01,02,60.0183612598,PLT_learning_01,A,2014_Mrz_06_1232,P09,
stim_fb/ques.jpg,stim_fb/negf.jpg,stim_fb/posf.jpg,stim_01/f.jpg,stim_01/e.jpg,1,3,f,5,9,309,44,j,0,0.283275178099,01,02,60.0183612598,PLT_learning_01,A,2014_Mrz_06_1232,P09,
stim_fb/ques.jpg,stim_fb/posf.jpg,stim_fb/negf.jpg,stim_01/e.jpg,stim_01/f.jpg,2,3,j,5,10,310,59,f,0,0.299958899711,01,02,60.0183612598,PLT_learning_01,A,2014_Mrz_06_1232,P09,
stim_fb/ques.jpg,stim_fb/negf.jpg,stim_fb/posf.jpg,stim_01/a.jpg,stim_01/b.jpg,2,1,j,5,11,311,11,f,0,0.666494970357,01,02,60.0183612598,PLT_learning_01,A,2014_Mrz_06_1232,P09,
stim_fb/ques.jpg,stim_fb/negf.jpg,stim_fb/posf.jpg,stim_01/c.jpg,stim_01/d.jpg,2,2,j,5,12,312,31,j,1,0.583210216426,01,02,60.0183612598,PLT_learning_01,A,2014_Mrz_06_1232,P09,
stim_fb/ques.jpg,stim_fb/negf.jpg,stim_fb/posf.jpg,stim_01/e.jpg,stim_01/f.jpg,2,3,j,5,13,313,55,j,1,0.616523594095,01,02,60.0183612598,PLT_learning_01,A,2014_Mrz_06_1232,P09,
stim_fb/ques.jpg,stim_fb/negf.jpg,stim_fb/posf.jpg,stim_01/c.jpg,stim_01/d.jpg,2,2,j,5,14,314,34,j,1,0.716451682124,01,02,60.0183612598,PLT_learning_01,A,2014_Mrz_06_1232,P09,
stim_fb/ques.jpg,stim_fb/negf.jpg,stim_fb/posf.jpg,stim_01/b.jpg,stim_01/a.jpg,1,1,f,5,15,315,2,f,1,0.533199902257,01,02,60.0183612598,PLT_learning_01,A,2014_Mrz_06_1232,P09,
stim_fb/ques.jpg,stim_fb/negf.jpg,stim_fb/posf.jpg,stim_01/f.jpg,stim_01/e.jpg,1,3,f,5,16,316,43,f,1,0.683176977704,01,02,60.0183612598,PLT_learning_01,A,2014_Mrz_06_1232,P09,
stim_fb/ques.jpg,stim_fb/negf.jpg,stim_fb/posf.jpg,stim_01/b.jpg,stim_01/a.jpg,1,1,f,5,17,317,5,f,1,0.649771213107,01,02,60.0183612598,PLT_learning_01,A,2014_Mrz_06_1232,P09,
stim_fb/ques.jpg,stim_fb/negf.jpg,stim_fb/posf.jpg,stim_01/a.jpg,stim_01/b.jpg,2,1,j,5,18,318,15,j,1,0.766421695996,01,02,60.0183612598,PLT_learning_01,A,2014_Mrz_06_1232,P09,
stim_fb/ques.jpg,stim_fb/posf.jpg,stim_fb/negf.jpg,stim_01/f.jpg,stim_01/e.jpg,1,3,f,5,19,319,47,f,1,0.599855267797,01,02,60.0183612598,PLT_learning_01,A,2014_Mrz_06_1232,P09,
stim_fb/ques.jpg,stim_fb/negf.jpg,stim_fb/posf.jpg,stim_01/b.jpg,stim_01/a.jpg,1,1,f,5,20,320,4,f,1,0.549890565144,01,02,60.0183612598,PLT_learning_01,A,2014_Mrz_06_1232,P09,
stim_fb/ques.jpg,stim_fb/negf.jpg,stim_fb/posf.jpg,stim_01/a.jpg,stim_01/b.jpg,2,1,j,5,21,321,17,j,1,0.53318282275,01,02,60.0183612598,PLT_learning_01,A,2014_Mrz_06_1232,P09,
stim_fb/ques.jpg,stim_fb/negf.jpg,stim_fb/posf.jpg,stim_01/c.jpg,stim_01/d.jpg,2,2,j,5,22,322,36,j,1,0.533221180212,01,02,60.0183612598,PLT_learning_01,A,2014_Mrz_06_1232,P09,
stim_fb/ques.jpg,stim_fb/negf.jpg,stim_fb/posf.jpg,stim_01/b.jpg,stim_01/a.jpg,1,1,f,5,23,323,3,f,1,0.766441539381,01,02,60.0183612598,PLT_learning_01,A,2014_Mrz_06_1232,P09,
stim_fb/ques.jpg,stim_fb/negf.jpg,stim_fb/posf.jpg,stim_01/d.jpg,stim_01/c.jpg,1,2,f,5,24,324,24,f,1,0.599862064714,01,02,60.0183612598,PLT_learning_01,A,2014_Mrz_06_1232,P09,
stim_fb/ques.jpg,stim_fb/negf.jpg,stim_fb/posf.jpg,stim_01/e.jpg,stim_01/f.jpg,2,3,j,5,25,325,53,j,1,0.633171337165,01,02,60.0183612598,PLT_learning_01,A,2014_Mrz_06_1232,P09,
stim_fb/ques.jpg,stim_fb/posf.jpg,stim_fb/negf.jpg,stim_01/b.jpg,stim_01/a.jpg,1,1,f,5,26,326,8,f,1,0.299887769687,01,02,60.0183612598,PLT_learning_01,A,2014_Mrz_06_1232,P09,
stim_fb/ques.jpg,stim_fb/posf.jpg,stim_fb/negf.jpg,stim_01/a.jpg,stim_01/b.jpg,2,1,j,5,27,327,18,j,1,0.716520779089,01,02,60.0183612598,PLT_learning_01,A,2014_Mrz_06_1232,P09,
stim_fb/ques.jpg,stim_fb/negf.jpg,stim_fb/posf.jpg,stim_01/f.jpg,stim_01/e.jpg,1,3,f,5,28,328,40,f,1,0.416573013086,01,02,60.0183612598,PLT_learning_01,A,2014_Mrz_06_1232,P09,
stim_fb/ques.jpg,stim_fb/posf.jpg,stim_fb/negf.jpg,stim_01/d.jpg,stim_01/c.jpg,1,2,f,5,29,329,27,f,1,0.599837812355,01,02,60.0183612598,PLT_learning_01,A,2014_Mrz_06_1232,P09,
stim_fb/ques.jpg,stim_fb/posf.jpg,stim_fb/negf.jpg,stim_01/e.jpg,stim_01/f.jpg,2,3,j,5,30,330,58,f,0,0.449908652158,01,02,60.0183612598,PLT_learning_01,A,2014_Mrz_06_1232,P09,
stim_fb/ques.jpg,stim_fb/negf.jpg,stim_fb/posf.jpg,stim_01/e.jpg,stim_01/f.jpg,2,3,j,5,31,331,51,j,1,0.733090754616,01,02,60.0183612598,PLT_learning_01,A,2014_Mrz_06_1232,P09,
stim_fb/ques.jpg,stim_fb/posf.jpg,stim_fb/negf.jpg,stim_01/a.jpg,stim_01/b.jpg,2,1,j,5,32,332,19,f,0,0.583172388282,01,02,60.0183612598,PLT_learning_01,A,2014_Mrz_06_1232,P09,
stim_fb/ques.jpg,stim_fb/negf.jpg,stim_fb/posf.jpg,stim_01/d.jpg,stim_01/c.jpg,1,2,f,5,33,333,26,j,0,0.98306734285,01,02,60.0183612598,PLT_learning_01,A,2014_Mrz_06_1232,P09,
stim_fb/ques.jpg,stim_fb/negf.jpg,stim_fb/posf.jpg,stim_01/d.jpg,stim_01/c.jpg,1,2,f,5,34,334,22,f,1,0.266601360135,01,02,60.0183612598,PLT_learning_01,A,2014_Mrz_06_1232,P09,
stim_fb/ques.jpg,stim_fb/negf.jpg,stim_fb/posf.jpg,stim_01/b.jpg,stim_01/a.jpg,1,1,f,5,35,335,6,j,0,0.249949737409,01,02,60.0183612598,PLT_learning_01,A,2014_Mrz_06_1232,P09,
stim_fb/ques.jpg,stim_fb/negf.jpg,stim_fb/posf.jpg,stim_01/c.jpg,stim_01/d.jpg,2,2,j,5,36,336,33,f,0,0.333268966139,01,02,60.0183612598,PLT_learning_01,A,2014_Mrz_06_1232,P09,
stim_fb/ques.jpg,stim_fb/posf.jpg,stim_fb/negf.jpg,stim_01/e.jpg,stim_01/f.jpg,2,3,j,5,37,337,56,j,1,0.166649019748,01,02,60.0183612598,PLT_learning_01,A,2014_Mrz_06_1232,P09,
stim_fb/ques.jpg,stim_fb/negf.jpg,stim_fb/posf.jpg,stim_01/e.jpg,stim_01/f.jpg,2,3,j,5,38,338,52,f,0,0.549877497622,01,02,60.0183612598,PLT_learning_01,A,2014_Mrz_06_1232,P09,
stim_fb/ques.jpg,stim_fb/negf.jpg,stim_fb/posf.jpg,stim_01/e.jpg,stim_01/f.jpg,2,3,j,5,39,339,50,j,1,0.266633609395,01,02,60.0183612598,PLT_learning_01,A,2014_Mrz_06_1232,P09,
stim_fb/ques.jpg,stim_fb/negf.jpg,stim_fb/posf.jpg,stim_01/a.jpg,stim_01/b.jpg,2,1,j,5,40,340,10,f,0,0.233311843851,01,02,60.0183612598,PLT_learning_01,A,2014_Mrz_06_1232,P09,
stim_fb/ques.jpg,stim_fb/negf.jpg,stim_fb/posf.jpg,stim_01/f.jpg,stim_01/e.jpg,1,3,f,5,41,341,41,j,0,0.449906417597,01,02,60.0183612598,PLT_learning_01,A,2014_Mrz_06_1232,P09,
stim_fb/ques.jpg,stim_fb/posf.jpg,stim_fb/negf.jpg,stim_01/d.jpg,stim_01/c.jpg,1,2,f,5,42,342,29,f,1,0.533201742837,01,02,60.0183612598,PLT_learning_01,A,2014_Mrz_06_1232,P09,
stim_fb/ques.jpg,stim_fb/negf.jpg,stim_fb/posf.jpg,stim_01/e.jpg,stim_01/f.jpg,2,3,j,5,43,343,54,j,1,0.716460136164,01,02,60.0183612598,PLT_learning_01,A,2014_Mrz_06_1232,P09,
stim_fb/ques.jpg,stim_fb/negf.jpg,stim_fb/posf.jpg,stim_01/a.jpg,stim_01/b.jpg,2,1,j,5,44,344,13,j,1,0.933060905328,01,02,60.0183612598,PLT_learning_01,A,2014_Mrz_06_1232,P09,
stim_fb/ques.jpg,stim_fb/negf.jpg,stim_fb/posf.jpg,stim_01/b.jpg,stim_01/a.jpg,1,1,f,5,45,345,7,f,1,0.53319829626,01,02,60.0183612598,PLT_learning_01,A,2014_Mrz_06_1232,P09,
stim_fb/ques.jpg,stim_fb/posf.jpg,stim_fb/negf.jpg,stim_01/c.jpg,stim_01/d.jpg,2,2,j,5,46,346,37,j,1,0.533211631448,01,02,60.0183612598,PLT_learning_01,A,2014_Mrz_06_1232,P09,
stim_fb/ques.jpg,stim_fb/posf.jpg,stim_fb/negf.jpg,stim_01/f.jpg,stim_01/e.jpg,1,3,f,5,47,347,46,f,1,0.683160773375,01,02,60.0183612598,PLT_learning_01,A,2014_Mrz_06_1232,P09,
stim_fb/ques.jpg,stim_fb/posf.jpg,stim_fb/negf.jpg,stim_01/f.jpg,stim_01/e.jpg,1,3,f,5,48,348,48,f,1,0.616511094988,01,02,60.0183612598,PLT_learning_01,A,2014_Mrz_06_1232,P09,
stim_fb/ques.jpg,stim_fb/negf.jpg,stim_fb/posf.jpg,stim_01/f.jpg,stim_01/e.jpg,1,3,f,5,49,349,42,f,1,0.399933429323,01,02,60.0183612598,PLT_learning_01,A,2014_Mrz_06_1232,P09,
stim_fb/ques.jpg,stim_fb/negf.jpg,stim_fb/posf.jpg,stim_01/c.jpg,stim_01/d.jpg,2,2,j,5,50,350,30,j,1,0.699828176374,01,02,60.0183612598,PLT_learning_01,A,2014_Mrz_06_1232,P09,
stim_fb/ques.jpg,stim_fb/negf.jpg,stim_fb/posf.jpg,stim_01/f.jpg,stim_01/e.jpg,1,3,f,5,51,351,45,f,1,0.483239175498,01,02,60.0183612598,PLT_learning_01,A,2014_Mrz_06_1232,P09,
stim_fb/ques.jpg,stim_fb/posf.jpg,stim_fb/negf.jpg,stim_01/f.jpg,stim_01/e.jpg,1,3,f,5,52,352,49,f,1,0.483231737988,01,02,60.0183612598,PLT_learning_01,A,2014_Mrz_06_1232,P09,
stim_fb/ques.jpg,stim_fb/posf.jpg,stim_fb/negf.jpg,stim_01/c.jpg,stim_01/d.jpg,2,2,j,5,53,353,38,j,1,0.566539965339,01,02,60.0183612598,PLT_learning_01,A,2014_Mrz_06_1232,P09,
stim_fb/ques.jpg,stim_fb/negf.jpg,stim_fb/posf.jpg,stim_01/a.jpg,stim_01/b.jpg,2,1,j,5,54,354,12,f,0,0.516499880076,01,02,60.0183612598,PLT_learning_01,A,2014_Mrz_06_1232,P09,
stim_fb/ques.jpg,stim_fb/negf.jpg,stim_fb/posf.jpg,stim_01/d.jpg,stim_01/c.jpg,1,2,f,5,55,355,21,f,1,0.849776208539,01,02,60.0183612598,PLT_learning_01,A,2014_Mrz_06_1232,P09,
stim_fb/ques.jpg,stim_fb/negf.jpg,stim_fb/posf.jpg,stim_01/a.jpg,stim_01/b.jpg,2,1,j,5,56,356,14,j,1,0.733142308922,01,02,60.0183612598,PLT_learning_01,A,2014_Mrz_06_1232,P09,
stim_fb/ques.jpg,stim_fb/negf.jpg,stim_fb/posf.jpg,stim_01/c.jpg,stim_01/d.jpg,2,2,j,5,57,357,32,j,1,0.583192213622,01,02,60.0183612598,PLT_learning_01,A,2014_Mrz_06_1232,P09,
stim_fb/ques.jpg,stim_fb/posf.jpg,stim_fb/negf.jpg,stim_01/d.jpg,stim_01/c.jpg,1,2,f,5,58,358,28,f,1,0.533249261099,01,02,60.0183612598,PLT_learning_01,A,2014_Mrz_06_1232,P09,
stim_fb/ques.jpg,stim_fb/negf.jpg,stim_fb/posf.jpg,stim_01/d.jpg,stim_01/c.jpg,1,2,f,5,59,359,25,j,0,0.69983988752,01,02,60.0183612598,PLT_learning_01,A,2014_Mrz_06_1232,P09,
