Fb3,Fb2,Fb1,Symbol2,Symbol1,PosCond,Pair,Correct,trials.thisRepN,trials.thisTrialN,trials.thisN,trials.thisIndex,Response.keys,Response.corr,Response.rt,Version,Session Number,frameRate,expName,StimCondition,date,Participant,
stim_fb/ques.jpg,stim_fb/negf.jpg,stim_fb/posf.jpg,stim_02/c.jpg,stim_02/d.jpg,2,2,j,0,0,0,32,None,0,,02,03,60.0242073551,PLT_learning_02,A,2014_Feb_24_1525,P10,
stim_fb/ques.jpg,stim_fb/negf.jpg,stim_fb/posf.jpg,stim_02/d.jpg,stim_02/c.jpg,1,2,f,0,1,1,22,j,0,0.849773138548,02,03,60.0242073551,PLT_learning_02,A,2014_Feb_24_1525,P10,
stim_fb/ques.jpg,stim_fb/negf.jpg,stim_fb/posf.jpg,stim_02/d.jpg,stim_02/c.jpg,1,2,f,0,2,2,20,f,1,0.866440980143,02,03,60.0242073551,PLT_learning_02,A,2014_Feb_24_1525,P10,
stim_fb/ques.jpg,stim_fb/negf.jpg,stim_fb/posf.jpg,stim_02/b.jpg,stim_02/a.jpg,1,1,f,0,3,3,1,f,1,1.26634514628,02,03,60.0242073551,PLT_learning_02,A,2014_Feb_24_1525,P10,
stim_fb/ques.jpg,stim_fb/negf.jpg,stim_fb/posf.jpg,stim_02/f.jpg,stim_02/e.jpg,1,3,f,0,4,4,42,j,0,1.03308503545,02,03,60.0242073551,PLT_learning_02,A,2014_Feb_24_1525,P10,
stim_fb/ques.jpg,stim_fb/negf.jpg,stim_fb/posf.jpg,stim_02/a.jpg,stim_02/b.jpg,2,1,j,0,5,5,12,j,1,1.06636687544,02,03,60.0242073551,PLT_learning_02,A,2014_Feb_24_1525,P10,
stim_fb/ques.jpg,stim_fb/negf.jpg,stim_fb/posf.jpg,stim_02/d.jpg,stim_02/c.jpg,1,2,f,0,6,6,23,f,1,0.999942884639,02,03,60.0242073551,PLT_learning_02,A,2014_Feb_24_1525,P10,
stim_fb/ques.jpg,stim_fb/negf.jpg,stim_fb/posf.jpg,stim_02/b.jpg,stim_02/a.jpg,1,1,f,0,7,7,3,f,1,1.13297009195,02,03,60.0242073551,PLT_learning_02,A,2014_Feb_24_1525,P10,
stim_fb/ques.jpg,stim_fb/negf.jpg,stim_fb/posf.jpg,stim_02/b.jpg,stim_02/a.jpg,1,1,f,0,8,8,2,f,1,1.14968436027,02,03,60.0242073551,PLT_learning_02,A,2014_Feb_24_1525,P10,
stim_fb/ques.jpg,stim_fb/negf.jpg,stim_fb/posf.jpg,stim_02/d.jpg,stim_02/c.jpg,1,2,f,0,9,9,21,f,1,0.949724263728,02,03,60.0242073551,PLT_learning_02,A,2014_Feb_24_1525,P10,
stim_fb/ques.jpg,stim_fb/posf.jpg,stim_fb/negf.jpg,stim_02/c.jpg,stim_02/d.jpg,2,2,j,0,10,10,38,j,1,0.899811685626,02,03,60.0242073551,PLT_learning_02,A,2014_Feb_24_1525,P10,
stim_fb/ques.jpg,stim_fb/negf.jpg,stim_fb/posf.jpg,stim_02/a.jpg,stim_02/b.jpg,2,1,j,0,11,11,10,j,1,0.949720588567,02,03,60.0242073551,PLT_learning_02,A,2014_Feb_24_1525,P10,
stim_fb/ques.jpg,stim_fb/negf.jpg,stim_fb/posf.jpg,stim_02/a.jpg,stim_02/b.jpg,2,1,j,0,12,12,15,j,1,1.09967783099,02,03,60.0242073551,PLT_learning_02,A,2014_Feb_24_1525,P10,
stim_fb/ques.jpg,stim_fb/posf.jpg,stim_fb/negf.jpg,stim_02/f.jpg,stim_02/e.jpg,1,3,f,0,13,13,48,j,0,1.01642271863,02,03,60.0242073551,PLT_learning_02,A,2014_Feb_24_1525,P10,
stim_fb/ques.jpg,stim_fb/posf.jpg,stim_fb/negf.jpg,stim_02/c.jpg,stim_02/d.jpg,2,2,j,0,14,14,37,j,1,1.2996587755,02,03,60.0242073551,PLT_learning_02,A,2014_Feb_24_1525,P10,
stim_fb/ques.jpg,stim_fb/posf.jpg,stim_fb/negf.jpg,stim_02/d.jpg,stim_02/c.jpg,1,2,f,0,15,15,28,f,1,0.883112220209,02,03,60.0242073551,PLT_learning_02,A,2014_Feb_24_1525,P10,
stim_fb/ques.jpg,stim_fb/negf.jpg,stim_fb/posf.jpg,stim_02/d.jpg,stim_02/c.jpg,1,2,f,0,16,16,26,f,1,1.06635367854,02,03,60.0242073551,PLT_learning_02,A,2014_Feb_24_1525,P10,
stim_fb/ques.jpg,stim_fb/posf.jpg,stim_fb/negf.jpg,stim_02/b.jpg,stim_02/a.jpg,1,1,f,0,17,17,9,f,1,1.14966741002,02,03,60.0242073551,PLT_learning_02,A,2014_Feb_24_1525,P10,
stim_fb/ques.jpg,stim_fb/negf.jpg,stim_fb/posf.jpg,stim_02/b.jpg,stim_02/a.jpg,1,1,f,0,18,18,4,f,1,0.883093483508,02,03,60.0242073551,PLT_learning_02,A,2014_Feb_24_1525,P10,
stim_fb/ques.jpg,stim_fb/posf.jpg,stim_fb/negf.jpg,stim_02/a.jpg,stim_02/b.jpg,2,1,j,0,19,19,19,j,1,0.81645339208,02,03,60.0242073551,PLT_learning_02,A,2014_Feb_24_1525,P10,
stim_fb/ques.jpg,stim_fb/negf.jpg,stim_fb/posf.jpg,stim_02/c.jpg,stim_02/d.jpg,2,2,j,0,20,20,35,j,1,0.999703253359,02,03,60.0242073551,PLT_learning_02,A,2014_Feb_24_1525,P10,
stim_fb/ques.jpg,stim_fb/posf.jpg,stim_fb/negf.jpg,stim_02/f.jpg,stim_02/e.jpg,1,3,f,0,21,21,46,j,0,0.883113678845,02,03,60.0242073551,PLT_learning_02,A,2014_Feb_24_1525,P10,
stim_fb/ques.jpg,stim_fb/posf.jpg,stim_fb/negf.jpg,stim_02/d.jpg,stim_02/c.jpg,1,2,f,0,22,22,29,f,1,1.0663573928,02,03,60.0242073551,PLT_learning_02,A,2014_Feb_24_1525,P10,
stim_fb/ques.jpg,stim_fb/posf.jpg,stim_fb/negf.jpg,stim_02/e.jpg,stim_02/f.jpg,2,3,j,0,23,23,56,f,0,1.48290247742,02,03,60.0242073551,PLT_learning_02,A,2014_Feb_24_1525,P10,
stim_fb/ques.jpg,stim_fb/negf.jpg,stim_fb/posf.jpg,stim_02/e.jpg,stim_02/f.jpg,2,3,j,0,24,24,51,f,0,0.883075071616,02,03,60.0242073551,PLT_learning_02,A,2014_Feb_24_1525,P10,
stim_fb/ques.jpg,stim_fb/negf.jpg,stim_fb/posf.jpg,stim_02/c.jpg,stim_02/d.jpg,2,2,j,0,25,25,33,j,1,0.799793652679,02,03,60.0242073551,PLT_learning_02,A,2014_Feb_24_1525,P10,
stim_fb/ques.jpg,stim_fb/posf.jpg,stim_fb/negf.jpg,stim_02/f.jpg,stim_02/e.jpg,1,3,f,0,26,26,49,j,0,0.749772341561,02,03,60.0242073551,PLT_learning_02,A,2014_Feb_24_1525,P10,
stim_fb/ques.jpg,stim_fb/negf.jpg,stim_fb/posf.jpg,stim_02/f.jpg,stim_02/e.jpg,1,3,f,0,27,27,41,j,0,0.69982678025,02,03,60.0242073551,PLT_learning_02,A,2014_Feb_24_1525,P10,
stim_fb/ques.jpg,stim_fb/negf.jpg,stim_fb/posf.jpg,stim_02/e.jpg,stim_02/f.jpg,2,3,j,0,28,28,54,f,0,0.749820879542,02,03,60.0242073551,PLT_learning_02,A,2014_Feb_24_1525,P10,
stim_fb/ques.jpg,stim_fb/negf.jpg,stim_fb/posf.jpg,stim_02/b.jpg,stim_02/a.jpg,1,1,f,0,29,29,5,f,1,1.51622819377,02,03,60.0242073551,PLT_learning_02,A,2014_Feb_24_1525,P10,
stim_fb/ques.jpg,stim_fb/negf.jpg,stim_fb/posf.jpg,stim_02/f.jpg,stim_02/e.jpg,1,3,f,0,30,30,45,j,0,0.599835724543,02,03,60.0242073551,PLT_learning_02,A,2014_Feb_24_1525,P10,
stim_fb/ques.jpg,stim_fb/negf.jpg,stim_fb/posf.jpg,stim_02/e.jpg,stim_02/f.jpg,2,3,j,0,31,31,55,f,0,0.616566052887,02,03,60.0242073551,PLT_learning_02,A,2014_Feb_24_1525,P10,
stim_fb/ques.jpg,stim_fb/posf.jpg,stim_fb/negf.jpg,stim_02/e.jpg,stim_02/f.jpg,2,3,j,0,32,32,59,f,0,0.766478555801,02,03,60.0242073551,PLT_learning_02,A,2014_Feb_24_1525,P10,
stim_fb/ques.jpg,stim_fb/negf.jpg,stim_fb/posf.jpg,stim_02/a.jpg,stim_02/b.jpg,2,1,j,0,33,33,13,j,1,0.766461515327,02,03,60.0242073551,PLT_learning_02,A,2014_Feb_24_1525,P10,
stim_fb/ques.jpg,stim_fb/posf.jpg,stim_fb/negf.jpg,stim_02/e.jpg,stim_02/f.jpg,2,3,j,0,34,34,57,f,0,0.766461491267,02,03,60.0242073551,PLT_learning_02,A,2014_Feb_24_1525,P10,
stim_fb/ques.jpg,stim_fb/negf.jpg,stim_fb/posf.jpg,stim_02/e.jpg,stim_02/f.jpg,2,3,j,0,35,35,50,f,0,0.683147077089,02,03,60.0242073551,PLT_learning_02,A,2014_Feb_24_1525,P10,
stim_fb/ques.jpg,stim_fb/negf.jpg,stim_fb/posf.jpg,stim_02/e.jpg,stim_02/f.jpg,2,3,j,0,36,36,52,f,0,0.599867098744,02,03,60.0242073551,PLT_learning_02,A,2014_Feb_24_1525,P10,
stim_fb/ques.jpg,stim_fb/negf.jpg,stim_fb/posf.jpg,stim_02/c.jpg,stim_02/d.jpg,2,2,j,0,37,37,34,j,1,0.983064716806,02,03,60.0242073551,PLT_learning_02,A,2014_Feb_24_1525,P10,
stim_fb/ques.jpg,stim_fb/posf.jpg,stim_fb/negf.jpg,stim_02/d.jpg,stim_02/c.jpg,1,2,f,0,38,38,27,f,1,0.966395551914,02,03,60.0242073551,PLT_learning_02,A,2014_Feb_24_1525,P10,
stim_fb/ques.jpg,stim_fb/posf.jpg,stim_fb/negf.jpg,stim_02/a.jpg,stim_02/b.jpg,2,1,j,0,39,39,18,j,1,0.983056458222,02,03,60.0242073551,PLT_learning_02,A,2014_Feb_24_1525,P10,
stim_fb/ques.jpg,stim_fb/negf.jpg,stim_fb/posf.jpg,stim_02/e.jpg,stim_02/f.jpg,2,3,j,0,40,40,53,f,0,0.966403332305,02,03,60.0242073551,PLT_learning_02,A,2014_Feb_24_1525,P10,
stim_fb/ques.jpg,stim_fb/posf.jpg,stim_fb/negf.jpg,stim_02/c.jpg,stim_02/d.jpg,2,2,j,0,41,41,39,f,0,1.03302526447,02,03,60.0242073551,PLT_learning_02,A,2014_Feb_24_1525,P10,
stim_fb/ques.jpg,stim_fb/negf.jpg,stim_fb/posf.jpg,stim_02/a.jpg,stim_02/b.jpg,2,1,j,0,42,42,11,f,0,0.816447461298,02,03,60.0242073551,PLT_learning_02,A,2014_Feb_24_1525,P10,
stim_fb/ques.jpg,stim_fb/negf.jpg,stim_fb/posf.jpg,stim_02/b.jpg,stim_02/a.jpg,1,1,f,0,43,43,7,f,1,0.949729406546,02,03,60.0242073551,PLT_learning_02,A,2014_Feb_24_1525,P10,
stim_fb/ques.jpg,stim_fb/negf.jpg,stim_fb/posf.jpg,stim_02/a.jpg,stim_02/b.jpg,2,1,j,0,44,44,14,j,1,0.949728865196,02,03,60.0242073551,PLT_learning_02,A,2014_Feb_24_1525,P10,
stim_fb/ques.jpg,stim_fb/negf.jpg,stim_fb/posf.jpg,stim_02/d.jpg,stim_02/c.jpg,1,2,f,0,45,45,24,f,1,1.08301711416,02,03,60.0242073551,PLT_learning_02,A,2014_Feb_24_1525,P10,
stim_fb/ques.jpg,stim_fb/negf.jpg,stim_fb/posf.jpg,stim_02/c.jpg,stim_02/d.jpg,2,2,j,0,46,46,36,f,0,1.29962855618,02,03,60.0242073551,PLT_learning_02,A,2014_Feb_24_1525,P10,
stim_fb/ques.jpg,stim_fb/negf.jpg,stim_fb/posf.jpg,stim_02/a.jpg,stim_02/b.jpg,2,1,j,0,47,47,16,f,0,1.41624156209,02,03,60.0242073551,PLT_learning_02,A,2014_Feb_24_1525,P10,
stim_fb/ques.jpg,stim_fb/negf.jpg,stim_fb/posf.jpg,stim_02/c.jpg,stim_02/d.jpg,2,2,j,0,48,48,30,j,1,1.03302961933,02,03,60.0242073551,PLT_learning_02,A,2014_Feb_24_1525,P10,
stim_fb/ques.jpg,stim_fb/negf.jpg,stim_fb/posf.jpg,stim_02/f.jpg,stim_02/e.jpg,1,3,f,0,49,49,44,j,0,0.733131621567,02,03,60.0242073551,PLT_learning_02,A,2014_Feb_24_1525,P10,
stim_fb/ques.jpg,stim_fb/negf.jpg,stim_fb/posf.jpg,stim_02/d.jpg,stim_02/c.jpg,1,2,f,0,50,50,25,f,1,0.866426977241,02,03,60.0242073551,PLT_learning_02,A,2014_Feb_24_1525,P10,
stim_fb/ques.jpg,stim_fb/negf.jpg,stim_fb/posf.jpg,stim_02/b.jpg,stim_02/a.jpg,1,1,f,0,51,51,0,j,0,1.08309319178,02,03,60.0242073551,PLT_learning_02,A,2014_Feb_24_1525,P10,
stim_fb/ques.jpg,stim_fb/negf.jpg,stim_fb/posf.jpg,stim_02/b.jpg,stim_02/a.jpg,1,1,f,0,52,52,6,f,1,0.799804987932,02,03,60.0242073551,PLT_learning_02,A,2014_Feb_24_1525,P10,
stim_fb/ques.jpg,stim_fb/posf.jpg,stim_fb/negf.jpg,stim_02/b.jpg,stim_02/a.jpg,1,1,f,0,53,53,8,f,1,0.616534603499,02,03,60.0242073551,PLT_learning_02,A,2014_Feb_24_1525,P10,
stim_fb/ques.jpg,stim_fb/negf.jpg,stim_fb/posf.jpg,stim_02/f.jpg,stim_02/e.jpg,1,3,f,0,54,54,40,j,0,0.733131308787,02,03,60.0242073551,PLT_learning_02,A,2014_Feb_24_1525,P10,
stim_fb/ques.jpg,stim_fb/posf.jpg,stim_fb/negf.jpg,stim_02/f.jpg,stim_02/e.jpg,1,3,f,0,55,55,47,j,0,0.949748047007,02,03,60.0242073551,PLT_learning_02,A,2014_Feb_24_1525,P10,
stim_fb/ques.jpg,stim_fb/posf.jpg,stim_fb/negf.jpg,stim_02/e.jpg,stim_02/f.jpg,2,3,j,0,56,56,58,f,0,0.966416291607,02,03,60.0242073551,PLT_learning_02,A,2014_Feb_24_1525,P10,
stim_fb/ques.jpg,stim_fb/negf.jpg,stim_fb/posf.jpg,stim_02/f.jpg,stim_02/e.jpg,1,3,f,0,57,57,43,j,0,0.749769716017,02,03,60.0242073551,PLT_learning_02,A,2014_Feb_24_1525,P10,
stim_fb/ques.jpg,stim_fb/negf.jpg,stim_fb/posf.jpg,stim_02/a.jpg,stim_02/b.jpg,2,1,j,0,58,58,17,f,0,1.06636676416,02,03,60.0242073551,PLT_learning_02,A,2014_Feb_24_1525,P10,
stim_fb/ques.jpg,stim_fb/negf.jpg,stim_fb/posf.jpg,stim_02/c.jpg,stim_02/d.jpg,2,2,j,0,59,59,31,j,1,0.883086421907,02,03,60.0242073551,PLT_learning_02,A,2014_Feb_24_1525,P10,
stim_fb/ques.jpg,stim_fb/negf.jpg,stim_fb/posf.jpg,stim_02/f.jpg,stim_02/e.jpg,1,3,f,1,0,60,44,j,0,0.783120896835,02,03,60.0242073551,PLT_learning_02,A,2014_Feb_24_1525,P10,
stim_fb/ques.jpg,stim_fb/negf.jpg,stim_fb/posf.jpg,stim_02/f.jpg,stim_02/e.jpg,1,3,f,1,1,61,45,j,0,0.899815132217,02,03,60.0242073551,PLT_learning_02,A,2014_Feb_24_1525,P10,
stim_fb/ques.jpg,stim_fb/negf.jpg,stim_fb/posf.jpg,stim_02/a.jpg,stim_02/b.jpg,2,1,j,1,2,62,15,j,1,1.01639052639,02,03,60.0242073551,PLT_learning_02,A,2014_Feb_24_1525,P10,
stim_fb/ques.jpg,stim_fb/posf.jpg,stim_fb/negf.jpg,stim_02/b.jpg,stim_02/a.jpg,1,1,f,1,3,63,9,f,1,0.983074695679,02,03,60.0242073551,PLT_learning_02,A,2014_Feb_24_1525,P10,
stim_fb/ques.jpg,stim_fb/negf.jpg,stim_fb/posf.jpg,stim_02/c.jpg,stim_02/d.jpg,2,2,j,1,4,64,35,j,1,0.849853041706,02,03,60.0242073551,PLT_learning_02,A,2014_Feb_24_1525,P10,
stim_fb/ques.jpg,stim_fb/negf.jpg,stim_fb/posf.jpg,stim_02/b.jpg,stim_02/a.jpg,1,1,f,1,5,65,0,f,1,0.683170884429,02,03,60.0242073551,PLT_learning_02,A,2014_Feb_24_1525,P10,
stim_fb/ques.jpg,stim_fb/negf.jpg,stim_fb/posf.jpg,stim_02/b.jpg,stim_02/a.jpg,1,1,f,1,6,66,7,f,1,0.666501334576,02,03,60.0242073551,PLT_learning_02,A,2014_Feb_24_1525,P10,
stim_fb/ques.jpg,stim_fb/posf.jpg,stim_fb/negf.jpg,stim_02/a.jpg,stim_02/b.jpg,2,1,j,1,7,67,18,j,1,1.11637297163,02,03,60.0242073551,PLT_learning_02,A,2014_Feb_24_1525,P10,
stim_fb/ques.jpg,stim_fb/negf.jpg,stim_fb/posf.jpg,stim_02/f.jpg,stim_02/e.jpg,1,3,f,1,8,68,43,f,1,1.11639493237,02,03,60.0242073551,PLT_learning_02,A,2014_Feb_24_1525,P10,
stim_fb/ques.jpg,stim_fb/negf.jpg,stim_fb/posf.jpg,stim_02/a.jpg,stim_02/b.jpg,2,1,j,1,9,69,10,j,1,1.09968945196,02,03,60.0242073551,PLT_learning_02,A,2014_Feb_24_1525,P10,
stim_fb/ques.jpg,stim_fb/posf.jpg,stim_fb/negf.jpg,stim_02/d.jpg,stim_02/c.jpg,1,2,f,1,10,70,27,f,1,0.999713755536,02,03,60.0242073551,PLT_learning_02,A,2014_Feb_24_1525,P10,
stim_fb/ques.jpg,stim_fb/negf.jpg,stim_fb/posf.jpg,stim_02/d.jpg,stim_02/c.jpg,1,2,f,1,11,71,25,f,1,1.04971462771,02,03,60.0242073551,PLT_learning_02,A,2014_Feb_24_1525,P10,
stim_fb/ques.jpg,stim_fb/negf.jpg,stim_fb/posf.jpg,stim_02/d.jpg,stim_02/c.jpg,1,2,f,1,12,72,24,f,1,0.883094334628,02,03,60.0242073551,PLT_learning_02,A,2014_Feb_24_1525,P10,
stim_fb/ques.jpg,stim_fb/negf.jpg,stim_fb/posf.jpg,stim_02/e.jpg,stim_02/f.jpg,2,3,j,1,13,73,50,f,0,1.48286131382,02,03,60.0242073551,PLT_learning_02,A,2014_Feb_24_1525,P10,
stim_fb/ques.jpg,stim_fb/posf.jpg,stim_fb/negf.jpg,stim_02/e.jpg,stim_02/f.jpg,2,3,j,1,14,74,58,f,0,1.26630497515,02,03,60.0242073551,PLT_learning_02,A,2014_Feb_24_1525,P10,
stim_fb/ques.jpg,stim_fb/negf.jpg,stim_fb/posf.jpg,stim_02/f.jpg,stim_02/e.jpg,1,3,f,1,15,75,42,j,0,0.766459124367,02,03,60.0242073551,PLT_learning_02,A,2014_Feb_24_1525,P10,
stim_fb/ques.jpg,stim_fb/posf.jpg,stim_fb/negf.jpg,stim_02/b.jpg,stim_02/a.jpg,1,1,f,1,16,76,8,f,1,0.533198806024,02,03,60.0242073551,PLT_learning_02,A,2014_Feb_24_1525,P10,
stim_fb/ques.jpg,stim_fb/negf.jpg,stim_fb/posf.jpg,stim_02/a.jpg,stim_02/b.jpg,2,1,j,1,17,77,16,j,1,0.883078779859,02,03,60.0242073551,PLT_learning_02,A,2014_Feb_24_1525,P10,
stim_fb/ques.jpg,stim_fb/posf.jpg,stim_fb/negf.jpg,stim_02/e.jpg,stim_02/f.jpg,2,3,j,1,18,78,59,f,0,0.716693035391,02,03,60.0242073551,PLT_learning_02,A,2014_Feb_24_1525,P10,
stim_fb/ques.jpg,stim_fb/negf.jpg,stim_fb/posf.jpg,stim_02/e.jpg,stim_02/f.jpg,2,3,j,1,19,79,53,f,0,0.566522630657,02,03,60.0242073551,PLT_learning_02,A,2014_Feb_24_1525,P10,
stim_fb/ques.jpg,stim_fb/negf.jpg,stim_fb/posf.jpg,stim_02/d.jpg,stim_02/c.jpg,1,2,f,1,20,80,20,f,1,0.933085826423,02,03,60.0242073551,PLT_learning_02,A,2014_Feb_24_1525,P10,
stim_fb/ques.jpg,stim_fb/negf.jpg,stim_fb/posf.jpg,stim_02/a.jpg,stim_02/b.jpg,2,1,j,1,21,81,14,j,1,1.13301181796,02,03,60.0242073551,PLT_learning_02,A,2014_Feb_24_1525,P10,
stim_fb/ques.jpg,stim_fb/negf.jpg,stim_fb/posf.jpg,stim_02/f.jpg,stim_02/e.jpg,1,3,f,1,22,82,40,j,0,0.883084061023,02,03,60.0242073551,PLT_learning_02,A,2014_Feb_24_1525,P10,
stim_fb/ques.jpg,stim_fb/negf.jpg,stim_fb/posf.jpg,stim_02/a.jpg,stim_02/b.jpg,2,1,j,1,23,83,17,j,1,1.01638421666,02,03,60.0242073551,PLT_learning_02,A,2014_Feb_24_1525,P10,
stim_fb/ques.jpg,stim_fb/negf.jpg,stim_fb/posf.jpg,stim_02/c.jpg,stim_02/d.jpg,2,2,j,1,24,84,31,j,1,0.833135600484,02,03,60.0242073551,PLT_learning_02,A,2014_Feb_24_1525,P10,
stim_fb/ques.jpg,stim_fb/negf.jpg,stim_fb/posf.jpg,stim_02/e.jpg,stim_02/f.jpg,2,3,j,1,25,85,54,f,0,0.716516889346,02,03,60.0242073551,PLT_learning_02,A,2014_Feb_24_1525,P10,
stim_fb/ques.jpg,stim_fb/negf.jpg,stim_fb/posf.jpg,stim_02/c.jpg,stim_02/d.jpg,2,2,j,1,26,86,30,j,1,1.28296725288,02,03,60.0242073551,PLT_learning_02,A,2014_Feb_24_1525,P10,
stim_fb/ques.jpg,stim_fb/negf.jpg,stim_fb/posf.jpg,stim_02/c.jpg,stim_02/d.jpg,2,2,j,1,27,87,34,f,0,0.983062536372,02,03,60.0242073551,PLT_learning_02,A,2014_Feb_24_1525,P10,
stim_fb/ques.jpg,stim_fb/negf.jpg,stim_fb/posf.jpg,stim_02/c.jpg,stim_02/d.jpg,2,2,j,1,28,88,32,j,1,0.699809950301,02,03,60.0242073551,PLT_learning_02,A,2014_Feb_24_1525,P10,
stim_fb/ques.jpg,stim_fb/negf.jpg,stim_fb/posf.jpg,stim_02/d.jpg,stim_02/c.jpg,1,2,f,1,29,89,22,f,1,0.949689800828,02,03,60.0242073551,PLT_learning_02,A,2014_Feb_24_1525,P10,
stim_fb/ques.jpg,stim_fb/negf.jpg,stim_fb/posf.jpg,stim_02/b.jpg,stim_02/a.jpg,1,1,f,1,30,90,3,f,1,0.699836103488,02,03,60.0242073551,PLT_learning_02,A,2014_Feb_24_1525,P10,
stim_fb/ques.jpg,stim_fb/posf.jpg,stim_fb/negf.jpg,stim_02/e.jpg,stim_02/f.jpg,2,3,j,1,31,91,56,j,1,1.03305800107,02,03,60.0242073551,PLT_learning_02,A,2014_Feb_24_1525,P10,
stim_fb/ques.jpg,stim_fb/negf.jpg,stim_fb/posf.jpg,stim_02/f.jpg,stim_02/e.jpg,1,3,f,1,32,92,41,j,0,0.699810317215,02,03,60.0242073551,PLT_learning_02,A,2014_Feb_24_1525,P10,
stim_fb/ques.jpg,stim_fb/posf.jpg,stim_fb/negf.jpg,stim_02/f.jpg,stim_02/e.jpg,1,3,f,1,33,93,49,j,0,1.36630041879,02,03,60.0242073551,PLT_learning_02,A,2014_Feb_24_1525,P10,
stim_fb/ques.jpg,stim_fb/negf.jpg,stim_fb/posf.jpg,stim_02/d.jpg,stim_02/c.jpg,1,2,f,1,34,94,23,None,0,,02,03,60.0242073551,PLT_learning_02,A,2014_Feb_24_1525,P10,
stim_fb/ques.jpg,stim_fb/negf.jpg,stim_fb/posf.jpg,stim_02/e.jpg,stim_02/f.jpg,2,3,j,1,35,95,55,f,0,0.716464652145,02,03,60.0242073551,PLT_learning_02,A,2014_Feb_24_1525,P10,
stim_fb/ques.jpg,stim_fb/negf.jpg,stim_fb/posf.jpg,stim_02/c.jpg,stim_02/d.jpg,2,2,j,1,36,96,33,j,1,0.966407996933,02,03,60.0242073551,PLT_learning_02,A,2014_Feb_24_1525,P10,
stim_fb/ques.jpg,stim_fb/posf.jpg,stim_fb/negf.jpg,stim_02/d.jpg,stim_02/c.jpg,1,2,f,1,37,97,29,f,1,0.816430646386,02,03,60.0242073551,PLT_learning_02,A,2014_Feb_24_1525,P10,
stim_fb/ques.jpg,stim_fb/posf.jpg,stim_fb/negf.jpg,stim_02/f.jpg,stim_02/e.jpg,1,3,f,1,38,98,48,j,0,0.799789475267,02,03,60.0242073551,PLT_learning_02,A,2014_Feb_24_1525,P10,
stim_fb/ques.jpg,stim_fb/negf.jpg,stim_fb/posf.jpg,stim_02/b.jpg,stim_02/a.jpg,1,1,f,1,39,99,1,f,1,1.18299977594,02,03,60.0242073551,PLT_learning_02,A,2014_Feb_24_1525,P10,
stim_fb/ques.jpg,stim_fb/posf.jpg,stim_fb/negf.jpg,stim_02/c.jpg,stim_02/d.jpg,2,2,j,1,40,100,38,j,1,0.733155955219,02,03,60.0242073551,PLT_learning_02,A,2014_Feb_24_1525,P10,
stim_fb/ques.jpg,stim_fb/posf.jpg,stim_fb/negf.jpg,stim_02/f.jpg,stim_02/e.jpg,1,3,f,1,41,101,46,j,0,0.733140180901,02,03,60.0242073551,PLT_learning_02,A,2014_Feb_24_1525,P10,
stim_fb/ques.jpg,stim_fb/negf.jpg,stim_fb/posf.jpg,stim_02/b.jpg,stim_02/a.jpg,1,1,f,1,42,102,4,f,1,1.19971440215,02,03,60.0242073551,PLT_learning_02,A,2014_Feb_24_1525,P10,
stim_fb/ques.jpg,stim_fb/negf.jpg,stim_fb/posf.jpg,stim_02/b.jpg,stim_02/a.jpg,1,1,f,1,43,103,5,j,0,1.53291785475,02,03,60.0242073551,PLT_learning_02,A,2014_Feb_24_1525,P10,
stim_fb/ques.jpg,stim_fb/negf.jpg,stim_fb/posf.jpg,stim_02/a.jpg,stim_02/b.jpg,2,1,j,1,44,104,11,j,1,1.01638577154,02,03,60.0242073551,PLT_learning_02,A,2014_Feb_24_1525,P10,
stim_fb/ques.jpg,stim_fb/posf.jpg,stim_fb/negf.jpg,stim_02/d.jpg,stim_02/c.jpg,1,2,f,1,45,105,28,f,1,0.799776386643,02,03,60.0242073551,PLT_learning_02,A,2014_Feb_24_1525,P10,
stim_fb/ques.jpg,stim_fb/posf.jpg,stim_fb/negf.jpg,stim_02/a.jpg,stim_02/b.jpg,2,1,j,1,46,106,19,j,1,0.683166129578,02,03,60.0242073551,PLT_learning_02,A,2014_Feb_24_1525,P10,
stim_fb/ques.jpg,stim_fb/posf.jpg,stim_fb/negf.jpg,stim_02/f.jpg,stim_02/e.jpg,1,3,f,1,47,107,47,j,0,0.833104548086,02,03,60.0242073551,PLT_learning_02,A,2014_Feb_24_1525,P10,
stim_fb/ques.jpg,stim_fb/posf.jpg,stim_fb/negf.jpg,stim_02/c.jpg,stim_02/d.jpg,2,2,j,1,48,108,37,j,1,0.816443942526,02,03,60.0242073551,PLT_learning_02,A,2014_Feb_24_1525,P10,
stim_fb/ques.jpg,stim_fb/negf.jpg,stim_fb/posf.jpg,stim_02/b.jpg,stim_02/a.jpg,1,1,f,1,49,109,6,f,1,0.549868668657,02,03,60.0242073551,PLT_learning_02,A,2014_Feb_24_1525,P10,
stim_fb/ques.jpg,stim_fb/negf.jpg,stim_fb/posf.jpg,stim_02/a.jpg,stim_02/b.jpg,2,1,j,1,50,110,12,j,1,0.699818617905,02,03,60.0242073551,PLT_learning_02,A,2014_Feb_24_1525,P10,
stim_fb/ques.jpg,stim_fb/negf.jpg,stim_fb/posf.jpg,stim_02/a.jpg,stim_02/b.jpg,2,1,j,1,51,111,13,j,1,0.749791935399,02,03,60.0242073551,PLT_learning_02,A,2014_Feb_24_1525,P10,
stim_fb/ques.jpg,stim_fb/negf.jpg,stim_fb/posf.jpg,stim_02/b.jpg,stim_02/a.jpg,1,1,f,1,52,112,2,f,1,0.58318864971,02,03,60.0242073551,PLT_learning_02,A,2014_Feb_24_1525,P10,
stim_fb/ques.jpg,stim_fb/negf.jpg,stim_fb/posf.jpg,stim_02/c.jpg,stim_02/d.jpg,2,2,j,1,53,113,36,f,0,0.866435888453,02,03,60.0242073551,PLT_learning_02,A,2014_Feb_24_1525,P10,
stim_fb/ques.jpg,stim_fb/posf.jpg,stim_fb/negf.jpg,stim_02/c.jpg,stim_02/d.jpg,2,2,j,1,54,114,39,j,1,0.716512579605,02,03,60.0242073551,PLT_learning_02,A,2014_Feb_24_1525,P10,
stim_fb/ques.jpg,stim_fb/posf.jpg,stim_fb/negf.jpg,stim_02/e.jpg,stim_02/f.jpg,2,3,j,1,55,115,57,f,0,1.01642020436,02,03,60.0242073551,PLT_learning_02,A,2014_Feb_24_1525,P10,
stim_fb/ques.jpg,stim_fb/negf.jpg,stim_fb/posf.jpg,stim_02/d.jpg,stim_02/c.jpg,1,2,f,1,56,116,21,j,0,0.633176249803,02,03,60.0242073551,PLT_learning_02,A,2014_Feb_24_1525,P10,
stim_fb/ques.jpg,stim_fb/negf.jpg,stim_fb/posf.jpg,stim_02/e.jpg,stim_02/f.jpg,2,3,j,1,57,117,51,f,0,0.733145371839,02,03,60.0242073551,PLT_learning_02,A,2014_Feb_24_1525,P10,
stim_fb/ques.jpg,stim_fb/negf.jpg,stim_fb/posf.jpg,stim_02/e.jpg,stim_02/f.jpg,2,3,j,1,58,118,52,f,0,0.766465804016,02,03,60.0242073551,PLT_learning_02,A,2014_Feb_24_1525,P10,
stim_fb/ques.jpg,stim_fb/negf.jpg,stim_fb/posf.jpg,stim_02/d.jpg,stim_02/c.jpg,1,2,f,1,59,119,26,f,1,0.883120475786,02,03,60.0242073551,PLT_learning_02,A,2014_Feb_24_1525,P10,
stim_fb/ques.jpg,stim_fb/negf.jpg,stim_fb/posf.jpg,stim_02/e.jpg,stim_02/f.jpg,2,3,j,2,0,120,51,f,0,0.766466249126,02,03,60.0242073551,PLT_learning_02,A,2014_Feb_24_1525,P10,
stim_fb/ques.jpg,stim_fb/posf.jpg,stim_fb/negf.jpg,stim_02/d.jpg,stim_02/c.jpg,1,2,f,2,1,121,28,f,1,0.833156310104,02,03,60.0242073551,PLT_learning_02,A,2014_Feb_24_1525,P10,
stim_fb/ques.jpg,stim_fb/negf.jpg,stim_fb/posf.jpg,stim_02/e.jpg,stim_02/f.jpg,2,3,j,2,2,122,55,f,0,0.616498275953,02,03,60.0242073551,PLT_learning_02,A,2014_Feb_24_1525,P10,
stim_fb/ques.jpg,stim_fb/negf.jpg,stim_fb/posf.jpg,stim_02/d.jpg,stim_02/c.jpg,1,2,f,2,3,123,22,f,1,0.999724480267,02,03,60.0242073551,PLT_learning_02,A,2014_Feb_24_1525,P10,
stim_fb/ques.jpg,stim_fb/posf.jpg,stim_fb/negf.jpg,stim_02/e.jpg,stim_02/f.jpg,2,3,j,2,4,124,59,j,1,0.816451443222,02,03,60.0242073551,PLT_learning_02,A,2014_Feb_24_1525,P10,
stim_fb/ques.jpg,stim_fb/negf.jpg,stim_fb/posf.jpg,stim_02/c.jpg,stim_02/d.jpg,2,2,j,2,5,125,31,j,1,1.33294161397,02,03,60.0242073551,PLT_learning_02,A,2014_Feb_24_1525,P10,
stim_fb/ques.jpg,stim_fb/negf.jpg,stim_fb/posf.jpg,stim_02/f.jpg,stim_02/e.jpg,1,3,f,2,6,126,41,f,1,1.29962035473,02,03,60.0242073551,PLT_learning_02,A,2014_Feb_24_1525,P10,
stim_fb/ques.jpg,stim_fb/negf.jpg,stim_fb/posf.jpg,stim_02/d.jpg,stim_02/c.jpg,1,2,f,2,7,127,26,j,0,1.39959225269,02,03,60.0242073551,PLT_learning_02,A,2014_Feb_24_1525,P10,
stim_fb/ques.jpg,stim_fb/negf.jpg,stim_fb/posf.jpg,stim_02/e.jpg,stim_02/f.jpg,2,3,j,2,8,128,54,j,1,1.23302779077,02,03,60.0242073551,PLT_learning_02,A,2014_Feb_24_1525,P10,
stim_fb/ques.jpg,stim_fb/negf.jpg,stim_fb/posf.jpg,stim_02/d.jpg,stim_02/c.jpg,1,2,f,2,9,129,24,f,1,0.849768079939,02,03,60.0242073551,PLT_learning_02,A,2014_Feb_24_1525,P10,
stim_fb/ques.jpg,stim_fb/negf.jpg,stim_fb/posf.jpg,stim_02/d.jpg,stim_02/c.jpg,1,2,f,2,10,130,23,f,1,1.16649193615,02,03,60.0242073551,PLT_learning_02,A,2014_Feb_24_1525,P10,
stim_fb/ques.jpg,stim_fb/posf.jpg,stim_fb/negf.jpg,stim_02/a.jpg,stim_02/b.jpg,2,1,j,2,11,131,19,j,1,0.866434550117,02,03,60.0242073551,PLT_learning_02,A,2014_Feb_24_1525,P10,
stim_fb/ques.jpg,stim_fb/posf.jpg,stim_fb/negf.jpg,stim_02/c.jpg,stim_02/d.jpg,2,2,j,2,12,132,38,j,1,1.16632926369,02,03,60.0242073551,PLT_learning_02,A,2014_Feb_24_1525,P10,
stim_fb/ques.jpg,stim_fb/negf.jpg,stim_fb/posf.jpg,stim_02/a.jpg,stim_02/b.jpg,2,1,j,2,13,133,12,j,1,1.03304204029,02,03,60.0242073551,PLT_learning_02,A,2014_Feb_24_1525,P10,
stim_fb/ques.jpg,stim_fb/posf.jpg,stim_fb/negf.jpg,stim_02/a.jpg,stim_02/b.jpg,2,1,j,2,14,134,18,j,1,0.883089618875,02,03,60.0242073551,PLT_learning_02,A,2014_Feb_24_1525,P10,
stim_fb/ques.jpg,stim_fb/negf.jpg,stim_fb/posf.jpg,stim_02/b.jpg,stim_02/a.jpg,1,1,f,2,15,135,2,f,1,0.516537189947,02,03,60.0242073551,PLT_learning_02,A,2014_Feb_24_1525,P10,
stim_fb/ques.jpg,stim_fb/negf.jpg,stim_fb/posf.jpg,stim_02/a.jpg,stim_02/b.jpg,2,1,j,2,16,136,13,j,1,0.833082205398,02,03,60.0242073551,PLT_learning_02,A,2014_Feb_24_1525,P10,
stim_fb/ques.jpg,stim_fb/negf.jpg,stim_fb/posf.jpg,stim_02/a.jpg,stim_02/b.jpg,2,1,j,2,17,137,11,j,1,0.76646969271,02,03,60.0242073551,PLT_learning_02,A,2014_Feb_24_1525,P10,
stim_fb/ques.jpg,stim_fb/posf.jpg,stim_fb/negf.jpg,stim_02/f.jpg,stim_02/e.jpg,1,3,f,2,18,138,46,j,0,0.966392442162,02,03,60.0242073551,PLT_learning_02,A,2014_Feb_24_1525,P10,
stim_fb/ques.jpg,stim_fb/negf.jpg,stim_fb/posf.jpg,stim_02/b.jpg,stim_02/a.jpg,1,1,f,2,19,139,0,f,1,0.549872581409,02,03,60.0242073551,PLT_learning_02,A,2014_Feb_24_1525,P10,
stim_fb/ques.jpg,stim_fb/negf.jpg,stim_fb/posf.jpg,stim_02/c.jpg,stim_02/d.jpg,2,2,j,2,20,140,34,j,1,1.1496353441,02,03,60.0242073551,PLT_learning_02,A,2014_Feb_24_1525,P10,
stim_fb/ques.jpg,stim_fb/negf.jpg,stim_fb/posf.jpg,stim_02/f.jpg,stim_02/e.jpg,1,3,f,2,21,141,42,f,1,0.716536167397,02,03,60.0242073551,PLT_learning_02,A,2014_Feb_24_1525,P10,
stim_fb/ques.jpg,stim_fb/negf.jpg,stim_fb/posf.jpg,stim_02/f.jpg,stim_02/e.jpg,1,3,f,2,22,142,40,f,1,0.583177738513,02,03,60.0242073551,PLT_learning_02,A,2014_Feb_24_1525,P10,
stim_fb/ques.jpg,stim_fb/posf.jpg,stim_fb/negf.jpg,stim_02/b.jpg,stim_02/a.jpg,1,1,f,2,23,143,8,f,1,1.14966759949,02,03,60.0242073551,PLT_learning_02,A,2014_Feb_24_1525,P10,
stim_fb/ques.jpg,stim_fb/negf.jpg,stim_fb/posf.jpg,stim_02/a.jpg,stim_02/b.jpg,2,1,j,2,24,144,16,j,1,0.699859721356,02,03,60.0242073551,PLT_learning_02,A,2014_Feb_24_1525,P10,
stim_fb/ques.jpg,stim_fb/posf.jpg,stim_fb/negf.jpg,stim_02/f.jpg,stim_02/e.jpg,1,3,f,2,25,145,47,f,1,0.699830656913,02,03,60.0242073551,PLT_learning_02,A,2014_Feb_24_1525,P10,
stim_fb/ques.jpg,stim_fb/posf.jpg,stim_fb/negf.jpg,stim_02/c.jpg,stim_02/d.jpg,2,2,j,2,26,146,37,j,1,0.749751956752,02,03,60.0242073551,PLT_learning_02,A,2014_Feb_24_1525,P10,
stim_fb/ques.jpg,stim_fb/negf.jpg,stim_fb/posf.jpg,stim_02/c.jpg,stim_02/d.jpg,2,2,j,2,27,147,33,j,1,1.08304046135,02,03,60.0242073551,PLT_learning_02,A,2014_Feb_24_1525,P10,
stim_fb/ques.jpg,stim_fb/negf.jpg,stim_fb/posf.jpg,stim_02/c.jpg,stim_02/d.jpg,2,2,j,2,28,148,36,j,1,1.13300058496,02,03,60.0242073551,PLT_learning_02,A,2014_Feb_24_1525,P10,
stim_fb/ques.jpg,stim_fb/negf.jpg,stim_fb/posf.jpg,stim_02/f.jpg,stim_02/e.jpg,1,3,f,2,29,149,44,f,1,0.733132454643,02,03,60.0242073551,PLT_learning_02,A,2014_Feb_24_1525,P10,
stim_fb/ques.jpg,stim_fb/posf.jpg,stim_fb/negf.jpg,stim_02/e.jpg,stim_02/f.jpg,2,3,j,2,30,150,56,j,1,0.833109784136,02,03,60.0242073551,PLT_learning_02,A,2014_Feb_24_1525,P10,
stim_fb/ques.jpg,stim_fb/negf.jpg,stim_fb/posf.jpg,stim_02/b.jpg,stim_02/a.jpg,1,1,f,2,31,151,5,f,1,0.616496011308,02,03,60.0242073551,PLT_learning_02,A,2014_Feb_24_1525,P10,
stim_fb/ques.jpg,stim_fb/negf.jpg,stim_fb/posf.jpg,stim_02/d.jpg,stim_02/c.jpg,1,2,f,2,32,152,25,j,0,0.633132734341,02,03,60.0242073551,PLT_learning_02,A,2014_Feb_24_1525,P10,
stim_fb/ques.jpg,stim_fb/negf.jpg,stim_fb/posf.jpg,stim_02/e.jpg,stim_02/f.jpg,2,3,j,2,33,153,50,f,0,0.8831007827,02,03,60.0242073551,PLT_learning_02,A,2014_Feb_24_1525,P10,
stim_fb/ques.jpg,stim_fb/posf.jpg,stim_fb/negf.jpg,stim_02/c.jpg,stim_02/d.jpg,2,2,j,2,34,154,39,j,1,1.08301846152,02,03,60.0242073551,PLT_learning_02,A,2014_Feb_24_1525,P10,
stim_fb/ques.jpg,stim_fb/negf.jpg,stim_fb/posf.jpg,stim_02/c.jpg,stim_02/d.jpg,2,2,j,2,35,155,30,j,1,0.816426264464,02,03,60.0242073551,PLT_learning_02,A,2014_Feb_24_1525,P10,
stim_fb/ques.jpg,stim_fb/negf.jpg,stim_fb/posf.jpg,stim_02/c.jpg,stim_02/d.jpg,2,2,j,2,36,156,35,j,1,0.79972955692,02,03,60.0242073551,PLT_learning_02,A,2014_Feb_24_1525,P10,
stim_fb/ques.jpg,stim_fb/negf.jpg,stim_fb/posf.jpg,stim_02/f.jpg,stim_02/e.jpg,1,3,f,2,37,157,45,f,1,0.78312388328,02,03,60.0242073551,PLT_learning_02,A,2014_Feb_24_1525,P10,
stim_fb/ques.jpg,stim_fb/posf.jpg,stim_fb/negf.jpg,stim_02/b.jpg,stim_02/a.jpg,1,1,f,2,38,158,9,j,0,1.08301887655,02,03,60.0242073551,PLT_learning_02,A,2014_Feb_24_1525,P10,
stim_fb/ques.jpg,stim_fb/negf.jpg,stim_fb/posf.jpg,stim_02/b.jpg,stim_02/a.jpg,1,1,f,2,39,159,7,f,1,0.96639563913,02,03,60.0242073551,PLT_learning_02,A,2014_Feb_24_1525,P10,
stim_fb/ques.jpg,stim_fb/negf.jpg,stim_fb/posf.jpg,stim_02/b.jpg,stim_02/a.jpg,1,1,f,2,40,160,1,f,1,1.24964514552,02,03,60.0242073551,PLT_learning_02,A,2014_Feb_24_1525,P10,
stim_fb/ques.jpg,stim_fb/negf.jpg,stim_fb/posf.jpg,stim_02/b.jpg,stim_02/a.jpg,1,1,f,2,41,161,3,None,0,,02,03,60.0242073551,PLT_learning_02,A,2014_Feb_24_1525,P10,
stim_fb/ques.jpg,stim_fb/negf.jpg,stim_fb/posf.jpg,stim_02/a.jpg,stim_02/b.jpg,2,1,j,2,42,162,17,f,0,0.616505969128,02,03,60.0242073551,PLT_learning_02,A,2014_Feb_24_1525,P10,
stim_fb/ques.jpg,stim_fb/negf.jpg,stim_fb/posf.jpg,stim_02/a.jpg,stim_02/b.jpg,2,1,j,2,43,163,14,j,1,0.833107705957,02,03,60.0242073551,PLT_learning_02,A,2014_Feb_24_1525,P10,
stim_fb/ques.jpg,stim_fb/posf.jpg,stim_fb/negf.jpg,stim_02/d.jpg,stim_02/c.jpg,1,2,f,2,44,164,27,f,1,0.833101931565,02,03,60.0242073551,PLT_learning_02,A,2014_Feb_24_1525,P10,
stim_fb/ques.jpg,stim_fb/negf.jpg,stim_fb/posf.jpg,stim_02/b.jpg,stim_02/a.jpg,1,1,f,2,45,165,4,f,1,0.766471954346,02,03,60.0242073551,PLT_learning_02,A,2014_Feb_24_1525,P10,
stim_fb/ques.jpg,stim_fb/posf.jpg,stim_fb/negf.jpg,stim_02/f.jpg,stim_02/e.jpg,1,3,f,2,46,166,49,j,0,0.883038223773,02,03,60.0242073551,PLT_learning_02,A,2014_Feb_24_1525,P10,
stim_fb/ques.jpg,stim_fb/negf.jpg,stim_fb/posf.jpg,stim_02/a.jpg,stim_02/b.jpg,2,1,j,2,47,167,10,j,1,0.849780973075,02,03,60.0242073551,PLT_learning_02,A,2014_Feb_24_1525,P10,
stim_fb/ques.jpg,stim_fb/negf.jpg,stim_fb/posf.jpg,stim_02/c.jpg,stim_02/d.jpg,2,2,j,2,48,168,32,j,1,1.19964058917,02,03,60.0242073551,PLT_learning_02,A,2014_Feb_24_1525,P10,
stim_fb/ques.jpg,stim_fb/negf.jpg,stim_fb/posf.jpg,stim_02/d.jpg,stim_02/c.jpg,1,2,f,2,49,169,21,f,1,1.24956696566,02,03,60.0242073551,PLT_learning_02,A,2014_Feb_24_1525,P10,
stim_fb/ques.jpg,stim_fb/negf.jpg,stim_fb/posf.jpg,stim_02/b.jpg,stim_02/a.jpg,1,1,f,2,50,170,6,f,1,0.866434787708,02,03,60.0242073551,PLT_learning_02,A,2014_Feb_24_1525,P10,
stim_fb/ques.jpg,stim_fb/posf.jpg,stim_fb/negf.jpg,stim_02/d.jpg,stim_02/c.jpg,1,2,f,2,51,171,29,f,1,0.799776726491,02,03,60.0242073551,PLT_learning_02,A,2014_Feb_24_1525,P10,
stim_fb/ques.jpg,stim_fb/posf.jpg,stim_fb/negf.jpg,stim_02/f.jpg,stim_02/e.jpg,1,3,f,2,52,172,48,j,0,0.54990714957,02,03,60.0242073551,PLT_learning_02,A,2014_Feb_24_1525,P10,
stim_fb/ques.jpg,stim_fb/negf.jpg,stim_fb/posf.jpg,stim_02/e.jpg,stim_02/f.jpg,2,3,j,2,53,173,53,j,1,1.08305280411,02,03,60.0242073551,PLT_learning_02,A,2014_Feb_24_1525,P10,
stim_fb/ques.jpg,stim_fb/negf.jpg,stim_fb/posf.jpg,stim_02/a.jpg,stim_02/b.jpg,2,1,j,2,54,174,15,j,1,0.883104719514,02,03,60.0242073551,PLT_learning_02,A,2014_Feb_24_1525,P10,
stim_fb/ques.jpg,stim_fb/negf.jpg,stim_fb/posf.jpg,stim_02/f.jpg,stim_02/e.jpg,1,3,f,2,55,175,43,f,1,1.03306505665,02,03,60.0242073551,PLT_learning_02,A,2014_Feb_24_1525,P10,
stim_fb/ques.jpg,stim_fb/posf.jpg,stim_fb/negf.jpg,stim_02/e.jpg,stim_02/f.jpg,2,3,j,2,56,176,57,j,1,1.03304219968,02,03,60.0242073551,PLT_learning_02,A,2014_Feb_24_1525,P10,
stim_fb/ques.jpg,stim_fb/negf.jpg,stim_fb/posf.jpg,stim_02/e.jpg,stim_02/f.jpg,2,3,j,2,57,177,52,j,1,1.14968067609,02,03,60.0242073551,PLT_learning_02,A,2014_Feb_24_1525,P10,
stim_fb/ques.jpg,stim_fb/posf.jpg,stim_fb/negf.jpg,stim_02/e.jpg,stim_02/f.jpg,2,3,j,2,58,178,58,j,1,0.683155522139,02,03,60.0242073551,PLT_learning_02,A,2014_Feb_24_1525,P10,
stim_fb/ques.jpg,stim_fb/negf.jpg,stim_fb/posf.jpg,stim_02/d.jpg,stim_02/c.jpg,1,2,f,2,59,179,20,f,1,0.816427608815,02,03,60.0242073551,PLT_learning_02,A,2014_Feb_24_1525,P10,
stim_fb/ques.jpg,stim_fb/negf.jpg,stim_fb/posf.jpg,stim_02/d.jpg,stim_02/c.jpg,1,2,f,3,0,180,24,f,1,0.63317077616,02,03,60.0242073551,PLT_learning_02,A,2014_Feb_24_1525,P10,
stim_fb/ques.jpg,stim_fb/posf.jpg,stim_fb/negf.jpg,stim_02/d.jpg,stim_02/c.jpg,1,2,f,3,1,181,29,f,1,0.799787529417,02,03,60.0242073551,PLT_learning_02,A,2014_Feb_24_1525,P10,
stim_fb/ques.jpg,stim_fb/negf.jpg,stim_fb/posf.jpg,stim_02/f.jpg,stim_02/e.jpg,1,3,f,3,2,182,43,j,0,0.666467019045,02,03,60.0242073551,PLT_learning_02,A,2014_Feb_24_1525,P10,
stim_fb/ques.jpg,stim_fb/negf.jpg,stim_fb/posf.jpg,stim_02/b.jpg,stim_02/a.jpg,1,1,f,3,3,183,5,f,1,0.883090587288,02,03,60.0242073551,PLT_learning_02,A,2014_Feb_24_1525,P10,
stim_fb/ques.jpg,stim_fb/negf.jpg,stim_fb/posf.jpg,stim_02/c.jpg,stim_02/d.jpg,2,2,j,3,4,184,32,j,1,0.916404451094,02,03,60.0242073551,PLT_learning_02,A,2014_Feb_24_1525,P10,
stim_fb/ques.jpg,stim_fb/negf.jpg,stim_fb/posf.jpg,stim_02/e.jpg,stim_02/f.jpg,2,3,j,3,5,185,54,f,0,0.566576185141,02,03,60.0242073551,PLT_learning_02,A,2014_Feb_24_1525,P10,
stim_fb/ques.jpg,stim_fb/negf.jpg,stim_fb/posf.jpg,stim_02/c.jpg,stim_02/d.jpg,2,2,j,3,6,186,31,j,1,0.666496940625,02,03,60.0242073551,PLT_learning_02,A,2014_Feb_24_1525,P10,
stim_fb/ques.jpg,stim_fb/posf.jpg,stim_fb/negf.jpg,stim_02/e.jpg,stim_02/f.jpg,2,3,j,3,7,187,59,f,0,0.583182833212,02,03,60.0242073551,PLT_learning_02,A,2014_Feb_24_1525,P10,
stim_fb/ques.jpg,stim_fb/posf.jpg,stim_fb/negf.jpg,stim_02/a.jpg,stim_02/b.jpg,2,1,j,3,8,188,18,j,1,0.699811249539,02,03,60.0242073551,PLT_learning_02,A,2014_Feb_24_1525,P10,
stim_fb/ques.jpg,stim_fb/posf.jpg,stim_fb/negf.jpg,stim_02/c.jpg,stim_02/d.jpg,2,2,j,3,9,189,39,j,1,0.64982710506,02,03,60.0242073551,PLT_learning_02,A,2014_Feb_24_1525,P10,
stim_fb/ques.jpg,stim_fb/negf.jpg,stim_fb/posf.jpg,stim_02/a.jpg,stim_02/b.jpg,2,1,j,3,10,190,15,j,1,0.849797625581,02,03,60.0242073551,PLT_learning_02,A,2014_Feb_24_1525,P10,
stim_fb/ques.jpg,stim_fb/negf.jpg,stim_fb/posf.jpg,stim_02/d.jpg,stim_02/c.jpg,1,2,f,3,11,191,25,f,1,0.799776458824,02,03,60.0242073551,PLT_learning_02,A,2014_Feb_24_1525,P10,
stim_fb/ques.jpg,stim_fb/negf.jpg,stim_fb/posf.jpg,stim_02/c.jpg,stim_02/d.jpg,2,2,j,3,12,192,35,j,1,0.566525508831,02,03,60.0242073551,PLT_learning_02,A,2014_Feb_24_1525,P10,
stim_fb/ques.jpg,stim_fb/negf.jpg,stim_fb/posf.jpg,stim_02/d.jpg,stim_02/c.jpg,1,2,f,3,13,193,22,f,1,0.749804873648,02,03,60.0242073551,PLT_learning_02,A,2014_Feb_24_1525,P10,
stim_fb/ques.jpg,stim_fb/negf.jpg,stim_fb/posf.jpg,stim_02/e.jpg,stim_02/f.jpg,2,3,j,3,14,194,52,j,1,1.11634414478,02,03,60.0242073551,PLT_learning_02,A,2014_Feb_24_1525,P10,
stim_fb/ques.jpg,stim_fb/posf.jpg,stim_fb/negf.jpg,stim_02/b.jpg,stim_02/a.jpg,1,1,f,3,15,195,8,f,1,0.816419888572,02,03,60.0242073551,PLT_learning_02,A,2014_Feb_24_1525,P10,
stim_fb/ques.jpg,stim_fb/negf.jpg,stim_fb/posf.jpg,stim_02/f.jpg,stim_02/e.jpg,1,3,f,3,16,196,44,f,1,0.766458832641,02,03,60.0242073551,PLT_learning_02,A,2014_Feb_24_1525,P10,
stim_fb/ques.jpg,stim_fb/negf.jpg,stim_fb/posf.jpg,stim_02/b.jpg,stim_02/a.jpg,1,1,f,3,17,197,4,f,1,0.916420481049,02,03,60.0242073551,PLT_learning_02,A,2014_Feb_24_1525,P10,
stim_fb/ques.jpg,stim_fb/posf.jpg,stim_fb/negf.jpg,stim_02/e.jpg,stim_02/f.jpg,2,3,j,3,18,198,58,j,1,0.983050013157,02,03,60.0242073551,PLT_learning_02,A,2014_Feb_24_1525,P10,
stim_fb/ques.jpg,stim_fb/posf.jpg,stim_fb/negf.jpg,stim_02/f.jpg,stim_02/e.jpg,1,3,f,3,19,199,47,f,1,0.799777213705,02,03,60.0242073551,PLT_learning_02,A,2014_Feb_24_1525,P10,
stim_fb/ques.jpg,stim_fb/negf.jpg,stim_fb/posf.jpg,stim_02/b.jpg,stim_02/a.jpg,1,1,f,3,20,200,6,f,1,0.866423040428,02,03,60.0242073551,PLT_learning_02,A,2014_Feb_24_1525,P10,
stim_fb/ques.jpg,stim_fb/negf.jpg,stim_fb/posf.jpg,stim_02/b.jpg,stim_02/a.jpg,1,1,f,3,21,201,1,f,1,0.849781057285,02,03,60.0242073551,PLT_learning_02,A,2014_Feb_24_1525,P10,
stim_fb/ques.jpg,stim_fb/posf.jpg,stim_fb/negf.jpg,stim_02/f.jpg,stim_02/e.jpg,1,3,f,3,22,202,49,j,0,1.08283252006,02,03,60.0242073551,PLT_learning_02,A,2014_Feb_24_1525,P10,
stim_fb/ques.jpg,stim_fb/negf.jpg,stim_fb/posf.jpg,stim_02/a.jpg,stim_02/b.jpg,2,1,j,3,23,203,14,f,0,0.633151798859,02,03,60.0242073551,PLT_learning_02,A,2014_Feb_24_1525,P10,
stim_fb/ques.jpg,stim_fb/negf.jpg,stim_fb/posf.jpg,stim_02/b.jpg,stim_02/a.jpg,1,1,f,3,24,204,0,f,1,0.633168812265,02,03,60.0242073551,PLT_learning_02,A,2014_Feb_24_1525,P10,
stim_fb/ques.jpg,stim_fb/negf.jpg,stim_fb/posf.jpg,stim_02/d.jpg,stim_02/c.jpg,1,2,f,3,25,205,21,f,1,0.599845225223,02,03,60.0242073551,PLT_learning_02,A,2014_Feb_24_1525,P10,
stim_fb/ques.jpg,stim_fb/negf.jpg,stim_fb/posf.jpg,stim_02/b.jpg,stim_02/a.jpg,1,1,f,3,26,206,3,f,1,0.683152274043,02,03,60.0242073551,PLT_learning_02,A,2014_Feb_24_1525,P10,
stim_fb/ques.jpg,stim_fb/negf.jpg,stim_fb/posf.jpg,stim_02/b.jpg,stim_02/a.jpg,1,1,f,3,27,207,2,f,1,1.01637325434,02,03,60.0242073551,PLT_learning_02,A,2014_Feb_24_1525,P10,
stim_fb/ques.jpg,stim_fb/posf.jpg,stim_fb/negf.jpg,stim_02/c.jpg,stim_02/d.jpg,2,2,j,3,28,208,38,j,1,0.666459849174,02,03,60.0242073551,PLT_learning_02,A,2014_Feb_24_1525,P10,
stim_fb/ques.jpg,stim_fb/posf.jpg,stim_fb/negf.jpg,stim_02/e.jpg,stim_02/f.jpg,2,3,j,3,29,209,57,f,0,0.683155068007,02,03,60.0242073551,PLT_learning_02,A,2014_Feb_24_1525,P10,
stim_fb/ques.jpg,stim_fb/negf.jpg,stim_fb/posf.jpg,stim_02/b.jpg,stim_02/a.jpg,1,1,f,3,30,210,7,f,1,0.783116451757,02,03,60.0242073551,PLT_learning_02,A,2014_Feb_24_1525,P10,
stim_fb/ques.jpg,stim_fb/negf.jpg,stim_fb/posf.jpg,stim_02/a.jpg,stim_02/b.jpg,2,1,j,3,31,211,11,j,1,0.849760786761,02,03,60.0242073551,PLT_learning_02,A,2014_Feb_24_1525,P10,
stim_fb/ques.jpg,stim_fb/posf.jpg,stim_fb/negf.jpg,stim_02/f.jpg,stim_02/e.jpg,1,3,f,3,32,212,46,j,0,0.949717000623,02,03,60.0242073551,PLT_learning_02,A,2014_Feb_24_1525,P10,
stim_fb/ques.jpg,stim_fb/negf.jpg,stim_fb/posf.jpg,stim_02/e.jpg,stim_02/f.jpg,2,3,j,3,33,213,55,j,1,1.28297055511,02,03,60.0242073551,PLT_learning_02,A,2014_Feb_24_1525,P10,
stim_fb/ques.jpg,stim_fb/negf.jpg,stim_fb/posf.jpg,stim_02/d.jpg,stim_02/c.jpg,1,2,f,3,34,214,26,f,1,0.883097116563,02,03,60.0242073551,PLT_learning_02,A,2014_Feb_24_1525,P10,
stim_fb/ques.jpg,stim_fb/negf.jpg,stim_fb/posf.jpg,stim_02/e.jpg,stim_02/f.jpg,2,3,j,3,35,215,53,f,0,1.31629467448,02,03,60.0242073551,PLT_learning_02,A,2014_Feb_24_1525,P10,
stim_fb/ques.jpg,stim_fb/negf.jpg,stim_fb/posf.jpg,stim_02/e.jpg,stim_02/f.jpg,2,3,j,3,36,216,50,j,1,0.916408784897,02,03,60.0242073551,PLT_learning_02,A,2014_Feb_24_1525,P10,
stim_fb/ques.jpg,stim_fb/negf.jpg,stim_fb/posf.jpg,stim_02/c.jpg,stim_02/d.jpg,2,2,j,3,37,217,34,j,1,0.733131399013,02,03,60.0242073551,PLT_learning_02,A,2014_Feb_24_1525,P10,
stim_fb/ques.jpg,stim_fb/negf.jpg,stim_fb/posf.jpg,stim_02/a.jpg,stim_02/b.jpg,2,1,j,3,38,218,17,j,1,0.966390153458,02,03,60.0242073551,PLT_learning_02,A,2014_Feb_24_1525,P10,
stim_fb/ques.jpg,stim_fb/negf.jpg,stim_fb/posf.jpg,stim_02/a.jpg,stim_02/b.jpg,2,1,j,3,39,219,12,j,1,0.816448634221,02,03,60.0242073551,PLT_learning_02,A,2014_Feb_24_1525,P10,
stim_fb/ques.jpg,stim_fb/posf.jpg,stim_fb/negf.jpg,stim_02/a.jpg,stim_02/b.jpg,2,1,j,3,40,220,19,j,1,0.783126857693,02,03,60.0242073551,PLT_learning_02,A,2014_Feb_24_1525,P10,
stim_fb/ques.jpg,stim_fb/negf.jpg,stim_fb/posf.jpg,stim_02/f.jpg,stim_02/e.jpg,1,3,f,3,41,221,41,f,1,0.766468185953,02,03,60.0242073551,PLT_learning_02,A,2014_Feb_24_1525,P10,
stim_fb/ques.jpg,stim_fb/negf.jpg,stim_fb/posf.jpg,stim_02/d.jpg,stim_02/c.jpg,1,2,f,3,42,222,23,f,1,0.999685888076,02,03,60.0242073551,PLT_learning_02,A,2014_Feb_24_1525,P10,
stim_fb/ques.jpg,stim_fb/posf.jpg,stim_fb/negf.jpg,stim_02/e.jpg,stim_02/f.jpg,2,3,j,3,43,223,56,j,1,1.13307772122,02,03,60.0242073551,PLT_learning_02,A,2014_Feb_24_1525,P10,
stim_fb/ques.jpg,stim_fb/negf.jpg,stim_fb/posf.jpg,stim_02/e.jpg,stim_02/f.jpg,2,3,j,3,44,224,51,f,0,0.683141110217,02,03,60.0242073551,PLT_learning_02,A,2014_Feb_24_1525,P10,
stim_fb/ques.jpg,stim_fb/negf.jpg,stim_fb/posf.jpg,stim_02/c.jpg,stim_02/d.jpg,2,2,j,3,45,225,33,j,1,0.583154938685,02,03,60.0242073551,PLT_learning_02,A,2014_Feb_24_1525,P10,
stim_fb/ques.jpg,stim_fb/negf.jpg,stim_fb/posf.jpg,stim_02/c.jpg,stim_02/d.jpg,2,2,j,3,46,226,30,j,1,0.616510639769,02,03,60.0242073551,PLT_learning_02,A,2014_Feb_24_1525,P10,
stim_fb/ques.jpg,stim_fb/posf.jpg,stim_fb/negf.jpg,stim_02/c.jpg,stim_02/d.jpg,2,2,j,3,47,227,37,j,1,0.599853468771,02,03,60.0242073551,PLT_learning_02,A,2014_Feb_24_1525,P10,
stim_fb/ques.jpg,stim_fb/negf.jpg,stim_fb/posf.jpg,stim_02/f.jpg,stim_02/e.jpg,1,3,f,3,48,228,40,f,1,0.983046554536,02,03,60.0242073551,PLT_learning_02,A,2014_Feb_24_1525,P10,
stim_fb/ques.jpg,stim_fb/negf.jpg,stim_fb/posf.jpg,stim_02/a.jpg,stim_02/b.jpg,2,1,j,3,49,229,16,j,1,0.649826653935,02,03,60.0242073551,PLT_learning_02,A,2014_Feb_24_1525,P10,
stim_fb/ques.jpg,stim_fb/negf.jpg,stim_fb/posf.jpg,stim_02/a.jpg,stim_02/b.jpg,2,1,j,3,50,230,13,j,1,0.716501701491,02,03,60.0242073551,PLT_learning_02,A,2014_Feb_24_1525,P10,
stim_fb/ques.jpg,stim_fb/posf.jpg,stim_fb/negf.jpg,stim_02/f.jpg,stim_02/e.jpg,1,3,f,3,51,231,48,j,0,0.916418405876,02,03,60.0242073551,PLT_learning_02,A,2014_Feb_24_1525,P10,
stim_fb/ques.jpg,stim_fb/negf.jpg,stim_fb/posf.jpg,stim_02/f.jpg,stim_02/e.jpg,1,3,f,3,52,232,42,j,0,1.01639725416,02,03,60.0242073551,PLT_learning_02,A,2014_Feb_24_1525,P10,
stim_fb/ques.jpg,stim_fb/posf.jpg,stim_fb/negf.jpg,stim_02/b.jpg,stim_02/a.jpg,1,1,f,3,53,233,9,f,1,0.833109008203,02,03,60.0242073551,PLT_learning_02,A,2014_Feb_24_1525,P10,
stim_fb/ques.jpg,stim_fb/negf.jpg,stim_fb/posf.jpg,stim_02/c.jpg,stim_02/d.jpg,2,2,j,3,54,234,36,j,1,0.583186165518,02,03,60.0242073551,PLT_learning_02,A,2014_Feb_24_1525,P10,
stim_fb/ques.jpg,stim_fb/posf.jpg,stim_fb/negf.jpg,stim_02/d.jpg,stim_02/c.jpg,1,2,f,3,55,235,27,f,1,0.766450408643,02,03,60.0242073551,PLT_learning_02,A,2014_Feb_24_1525,P10,
stim_fb/ques.jpg,stim_fb/negf.jpg,stim_fb/posf.jpg,stim_02/a.jpg,stim_02/b.jpg,2,1,j,3,56,236,10,j,1,0.799797369945,02,03,60.0242073551,PLT_learning_02,A,2014_Feb_24_1525,P10,
stim_fb/ques.jpg,stim_fb/negf.jpg,stim_fb/posf.jpg,stim_02/d.jpg,stim_02/c.jpg,1,2,f,3,57,237,20,f,1,0.849751544725,02,03,60.0242073551,PLT_learning_02,A,2014_Feb_24_1525,P10,
stim_fb/ques.jpg,stim_fb/negf.jpg,stim_fb/posf.jpg,stim_02/f.jpg,stim_02/e.jpg,1,3,f,3,58,238,45,j,0,1.38293467568,02,03,60.0242073551,PLT_learning_02,A,2014_Feb_24_1525,P10,
stim_fb/ques.jpg,stim_fb/posf.jpg,stim_fb/negf.jpg,stim_02/d.jpg,stim_02/c.jpg,1,2,f,3,59,239,28,f,1,0.7664845738,02,03,60.0242073551,PLT_learning_02,A,2014_Feb_24_1525,P10,
stim_fb/ques.jpg,stim_fb/negf.jpg,stim_fb/posf.jpg,stim_02/b.jpg,stim_02/a.jpg,1,1,f,4,0,240,7,f,1,0.749799264668,02,03,60.0242073551,PLT_learning_02,A,2014_Feb_24_1525,P10,
stim_fb/ques.jpg,stim_fb/negf.jpg,stim_fb/posf.jpg,stim_02/a.jpg,stim_02/b.jpg,2,1,j,4,1,241,15,j,1,0.666494342148,02,03,60.0242073551,PLT_learning_02,A,2014_Feb_24_1525,P10,
stim_fb/ques.jpg,stim_fb/negf.jpg,stim_fb/posf.jpg,stim_02/d.jpg,stim_02/c.jpg,1,2,f,4,2,242,23,f,1,0.69981499688,02,03,60.0242073551,PLT_learning_02,A,2014_Feb_24_1525,P10,
stim_fb/ques.jpg,stim_fb/negf.jpg,stim_fb/posf.jpg,stim_02/d.jpg,stim_02/c.jpg,1,2,f,4,3,243,22,f,1,0.833131038113,02,03,60.0242073551,PLT_learning_02,A,2014_Feb_24_1525,P10,
stim_fb/ques.jpg,stim_fb/negf.jpg,stim_fb/posf.jpg,stim_02/a.jpg,stim_02/b.jpg,2,1,j,4,4,244,12,j,1,0.949697012804,02,03,60.0242073551,PLT_learning_02,A,2014_Feb_24_1525,P10,
stim_fb/ques.jpg,stim_fb/negf.jpg,stim_fb/posf.jpg,stim_02/c.jpg,stim_02/d.jpg,2,2,j,4,5,245,31,j,1,0.683173549071,02,03,60.0242073551,PLT_learning_02,A,2014_Feb_24_1525,P10,
stim_fb/ques.jpg,stim_fb/posf.jpg,stim_fb/negf.jpg,stim_02/c.jpg,stim_02/d.jpg,2,2,j,4,6,246,37,j,1,0.583169807745,02,03,60.0242073551,PLT_learning_02,A,2014_Feb_24_1525,P10,
stim_fb/ques.jpg,stim_fb/negf.jpg,stim_fb/posf.jpg,stim_02/c.jpg,stim_02/d.jpg,2,2,j,4,7,247,36,j,1,0.533217079571,02,03,60.0242073551,PLT_learning_02,A,2014_Feb_24_1525,P10,
stim_fb/ques.jpg,stim_fb/posf.jpg,stim_fb/negf.jpg,stim_02/e.jpg,stim_02/f.jpg,2,3,j,4,8,248,56,f,0,1.08303137871,02,03,60.0242073551,PLT_learning_02,A,2014_Feb_24_1525,P10,
stim_fb/ques.jpg,stim_fb/posf.jpg,stim_fb/negf.jpg,stim_02/e.jpg,stim_02/f.jpg,2,3,j,4,9,249,58,f,0,0.883084761769,02,03,60.0242073551,PLT_learning_02,A,2014_Feb_24_1525,P10,
stim_fb/ques.jpg,stim_fb/negf.jpg,stim_fb/posf.jpg,stim_02/d.jpg,stim_02/c.jpg,1,2,f,4,10,250,21,f,1,0.833116343486,02,03,60.0242073551,PLT_learning_02,A,2014_Feb_24_1525,P10,
stim_fb/ques.jpg,stim_fb/negf.jpg,stim_fb/posf.jpg,stim_02/f.jpg,stim_02/e.jpg,1,3,f,4,11,251,42,f,1,1.21630043985,02,03,60.0242073551,PLT_learning_02,A,2014_Feb_24_1525,P10,
stim_fb/ques.jpg,stim_fb/posf.jpg,stim_fb/negf.jpg,stim_02/d.jpg,stim_02/c.jpg,1,2,f,4,12,252,27,f,1,0.749760822851,02,03,60.0242073551,PLT_learning_02,A,2014_Feb_24_1525,P10,
stim_fb/ques.jpg,stim_fb/posf.jpg,stim_fb/negf.jpg,stim_02/d.jpg,stim_02/c.jpg,1,2,f,4,13,253,29,f,1,0.716475316727,02,03,60.0242073551,PLT_learning_02,A,2014_Feb_24_1525,P10,
stim_fb/ques.jpg,stim_fb/negf.jpg,stim_fb/posf.jpg,stim_02/d.jpg,stim_02/c.jpg,1,2,f,4,14,254,25,f,1,0.783129865189,02,03,60.0242073551,PLT_learning_02,A,2014_Feb_24_1525,P10,
stim_fb/ques.jpg,stim_fb/posf.jpg,stim_fb/negf.jpg,stim_02/b.jpg,stim_02/a.jpg,1,1,f,4,15,255,9,f,1,0.799785138457,02,03,60.0242073551,PLT_learning_02,A,2014_Feb_24_1525,P10,
stim_fb/ques.jpg,stim_fb/posf.jpg,stim_fb/negf.jpg,stim_02/f.jpg,stim_02/e.jpg,1,3,f,4,16,256,46,j,0,0.749830828339,02,03,60.0242073551,PLT_learning_02,A,2014_Feb_24_1525,P10,
stim_fb/ques.jpg,stim_fb/negf.jpg,stim_fb/posf.jpg,stim_02/c.jpg,stim_02/d.jpg,2,2,j,4,17,257,30,j,1,0.716510417215,02,03,60.0242073551,PLT_learning_02,A,2014_Feb_24_1525,P10,
stim_fb/ques.jpg,stim_fb/posf.jpg,stim_fb/negf.jpg,stim_02/b.jpg,stim_02/a.jpg,1,1,f,4,18,258,8,f,1,0.566518823167,02,03,60.0242073551,PLT_learning_02,A,2014_Feb_24_1525,P10,
stim_fb/ques.jpg,stim_fb/negf.jpg,stim_fb/posf.jpg,stim_02/c.jpg,stim_02/d.jpg,2,2,j,4,19,259,34,j,1,0.633176511455,02,03,60.0242073551,PLT_learning_02,A,2014_Feb_24_1525,P10,
stim_fb/ques.jpg,stim_fb/posf.jpg,stim_fb/negf.jpg,stim_02/c.jpg,stim_02/d.jpg,2,2,j,4,20,260,39,j,1,0.533232387726,02,03,60.0242073551,PLT_learning_02,A,2014_Feb_24_1525,P10,
stim_fb/ques.jpg,stim_fb/posf.jpg,stim_fb/negf.jpg,stim_02/f.jpg,stim_02/e.jpg,1,3,f,4,21,261,49,f,1,0.849768621289,02,03,60.0242073551,PLT_learning_02,A,2014_Feb_24_1525,P10,
stim_fb/ques.jpg,stim_fb/negf.jpg,stim_fb/posf.jpg,stim_02/b.jpg,stim_02/a.jpg,1,1,f,4,22,262,3,f,1,0.633176174615,02,03,60.0242073551,PLT_learning_02,A,2014_Feb_24_1525,P10,
stim_fb/ques.jpg,stim_fb/negf.jpg,stim_fb/posf.jpg,stim_02/c.jpg,stim_02/d.jpg,2,2,j,4,23,263,32,j,1,0.699795646649,02,03,60.0242073551,PLT_learning_02,A,2014_Feb_24_1525,P10,
stim_fb/ques.jpg,stim_fb/negf.jpg,stim_fb/posf.jpg,stim_02/c.jpg,stim_02/d.jpg,2,2,j,4,24,264,35,j,1,0.51653222457,02,03,60.0242073551,PLT_learning_02,A,2014_Feb_24_1525,P10,
stim_fb/ques.jpg,stim_fb/negf.jpg,stim_fb/posf.jpg,stim_02/a.jpg,stim_02/b.jpg,2,1,j,4,25,265,13,j,1,0.816448550011,02,03,60.0242073551,PLT_learning_02,A,2014_Feb_24_1525,P10,
stim_fb/ques.jpg,stim_fb/negf.jpg,stim_fb/posf.jpg,stim_02/b.jpg,stim_02/a.jpg,1,1,f,4,26,266,2,f,1,0.583200595484,02,03,60.0242073551,PLT_learning_02,A,2014_Feb_24_1525,P10,
stim_fb/ques.jpg,stim_fb/posf.jpg,stim_fb/negf.jpg,stim_02/f.jpg,stim_02/e.jpg,1,3,f,4,27,267,47,j,0,0.816449777069,02,03,60.0242073551,PLT_learning_02,A,2014_Feb_24_1525,P10,
stim_fb/ques.jpg,stim_fb/posf.jpg,stim_fb/negf.jpg,stim_02/e.jpg,stim_02/f.jpg,2,3,j,4,28,268,57,f,0,1.09969715115,02,03,60.0242073551,PLT_learning_02,A,2014_Feb_24_1525,P10,
stim_fb/ques.jpg,stim_fb/negf.jpg,stim_fb/posf.jpg,stim_02/b.jpg,stim_02/a.jpg,1,1,f,4,29,269,1,f,1,0.666481746754,02,03,60.0242073551,PLT_learning_02,A,2014_Feb_24_1525,P10,
stim_fb/ques.jpg,stim_fb/negf.jpg,stim_fb/posf.jpg,stim_02/f.jpg,stim_02/e.jpg,1,3,f,4,30,270,41,j,0,0.833102000736,02,03,60.0242073551,PLT_learning_02,A,2014_Feb_24_1525,P10,
stim_fb/ques.jpg,stim_fb/negf.jpg,stim_fb/posf.jpg,stim_02/d.jpg,stim_02/c.jpg,1,2,f,4,31,271,26,f,1,0.783121808106,02,03,60.0242073551,PLT_learning_02,A,2014_Feb_24_1525,P10,
stim_fb/ques.jpg,stim_fb/negf.jpg,stim_fb/posf.jpg,stim_02/e.jpg,stim_02/f.jpg,2,3,j,4,32,272,51,f,0,0.516536323787,02,03,60.0242073551,PLT_learning_02,A,2014_Feb_24_1525,P10,
stim_fb/ques.jpg,stim_fb/negf.jpg,stim_fb/posf.jpg,stim_02/a.jpg,stim_02/b.jpg,2,1,j,4,33,273,10,j,1,0.716466853632,02,03,60.0242073551,PLT_learning_02,A,2014_Feb_24_1525,P10,
stim_fb/ques.jpg,stim_fb/negf.jpg,stim_fb/posf.jpg,stim_02/b.jpg,stim_02/a.jpg,1,1,f,4,34,274,5,f,1,0.583166099503,02,03,60.0242073551,PLT_learning_02,A,2014_Feb_24_1525,P10,
stim_fb/ques.jpg,stim_fb/negf.jpg,stim_fb/posf.jpg,stim_02/e.jpg,stim_02/f.jpg,2,3,j,4,35,275,55,f,0,0.583195395523,02,03,60.0242073551,PLT_learning_02,A,2014_Feb_24_1525,P10,
stim_fb/ques.jpg,stim_fb/negf.jpg,stim_fb/posf.jpg,stim_02/c.jpg,stim_02/d.jpg,2,2,j,4,36,276,33,j,1,0.799787736933,02,03,60.0242073551,PLT_learning_02,A,2014_Feb_24_1525,P10,
stim_fb/ques.jpg,stim_fb/posf.jpg,stim_fb/negf.jpg,stim_02/c.jpg,stim_02/d.jpg,2,2,j,4,37,277,38,j,1,0.583191560965,02,03,60.0242073551,PLT_learning_02,A,2014_Feb_24_1525,P10,
stim_fb/ques.jpg,stim_fb/negf.jpg,stim_fb/posf.jpg,stim_02/e.jpg,stim_02/f.jpg,2,3,j,4,38,278,52,f,0,0.99973214036,02,03,60.0242073551,PLT_learning_02,A,2014_Feb_24_1525,P10,
stim_fb/ques.jpg,stim_fb/negf.jpg,stim_fb/posf.jpg,stim_02/f.jpg,stim_02/e.jpg,1,3,f,4,39,279,43,f,1,0.983065303269,02,03,60.0242073551,PLT_learning_02,A,2014_Feb_24_1525,P10,
stim_fb/ques.jpg,stim_fb/negf.jpg,stim_fb/posf.jpg,stim_02/b.jpg,stim_02/a.jpg,1,1,f,4,40,280,4,f,1,1.11635902587,02,03,60.0242073551,PLT_learning_02,A,2014_Feb_24_1525,P10,
stim_fb/ques.jpg,stim_fb/negf.jpg,stim_fb/posf.jpg,stim_02/b.jpg,stim_02/a.jpg,1,1,f,4,41,281,0,f,1,0.716458709333,02,03,60.0242073551,PLT_learning_02,A,2014_Feb_24_1525,P10,
stim_fb/ques.jpg,stim_fb/negf.jpg,stim_fb/posf.jpg,stim_02/d.jpg,stim_02/c.jpg,1,2,f,4,42,282,24,f,1,0.749797312803,02,03,60.0242073551,PLT_learning_02,A,2014_Feb_24_1525,P10,
stim_fb/ques.jpg,stim_fb/posf.jpg,stim_fb/negf.jpg,stim_02/e.jpg,stim_02/f.jpg,2,3,j,4,43,283,59,j,1,1.14962555169,02,03,60.0242073551,PLT_learning_02,A,2014_Feb_24_1525,P10,
stim_fb/ques.jpg,stim_fb/negf.jpg,stim_fb/posf.jpg,stim_02/b.jpg,stim_02/a.jpg,1,1,f,4,44,284,6,f,1,0.983068746852,02,03,60.0242073551,PLT_learning_02,A,2014_Feb_24_1525,P10,
stim_fb/ques.jpg,stim_fb/negf.jpg,stim_fb/posf.jpg,stim_02/e.jpg,stim_02/f.jpg,2,3,j,4,45,285,50,j,1,1.24965706724,02,03,60.0242073551,PLT_learning_02,A,2014_Feb_24_1525,P10,
stim_fb/ques.jpg,stim_fb/posf.jpg,stim_fb/negf.jpg,stim_02/a.jpg,stim_02/b.jpg,2,1,j,4,46,286,18,j,1,0.899761322095,02,03,60.0242073551,PLT_learning_02,A,2014_Feb_24_1525,P10,
stim_fb/ques.jpg,stim_fb/negf.jpg,stim_fb/posf.jpg,stim_02/a.jpg,stim_02/b.jpg,2,1,j,4,47,287,16,j,1,0.849766128074,02,03,60.0242073551,PLT_learning_02,A,2014_Feb_24_1525,P10,
stim_fb/ques.jpg,stim_fb/negf.jpg,stim_fb/posf.jpg,stim_02/a.jpg,stim_02/b.jpg,2,1,j,4,48,288,14,j,1,0.983099170683,02,03,60.0242073551,PLT_learning_02,A,2014_Feb_24_1525,P10,
stim_fb/ques.jpg,stim_fb/posf.jpg,stim_fb/negf.jpg,stim_02/a.jpg,stim_02/b.jpg,2,1,j,4,49,289,19,j,1,0.783133943353,02,03,60.0242073551,PLT_learning_02,A,2014_Feb_24_1525,P10,
stim_fb/ques.jpg,stim_fb/negf.jpg,stim_fb/posf.jpg,stim_02/e.jpg,stim_02/f.jpg,2,3,j,4,50,290,53,f,0,0.766458041669,02,03,60.0242073551,PLT_learning_02,A,2014_Feb_24_1525,P10,
stim_fb/ques.jpg,stim_fb/negf.jpg,stim_fb/posf.jpg,stim_02/a.jpg,stim_02/b.jpg,2,1,j,4,51,291,11,j,1,0.849812278103,02,03,60.0242073551,PLT_learning_02,A,2014_Feb_24_1525,P10,
stim_fb/ques.jpg,stim_fb/negf.jpg,stim_fb/posf.jpg,stim_02/f.jpg,stim_02/e.jpg,1,3,f,4,52,292,44,j,0,1.04969266697,02,03,60.0242073551,PLT_learning_02,A,2014_Feb_24_1525,P10,
stim_fb/ques.jpg,stim_fb/posf.jpg,stim_fb/negf.jpg,stim_02/f.jpg,stim_02/e.jpg,1,3,f,4,53,293,48,j,0,1.13300041052,02,03,60.0242073551,PLT_learning_02,A,2014_Feb_24_1525,P10,
stim_fb/ques.jpg,stim_fb/negf.jpg,stim_fb/posf.jpg,stim_02/e.jpg,stim_02/f.jpg,2,3,j,4,54,294,54,j,1,1.64953206668,02,03,60.0242073551,PLT_learning_02,A,2014_Feb_24_1525,P10,
stim_fb/ques.jpg,stim_fb/negf.jpg,stim_fb/posf.jpg,stim_02/f.jpg,stim_02/e.jpg,1,3,f,4,55,295,45,j,0,1.08305891234,02,03,60.0242073551,PLT_learning_02,A,2014_Feb_24_1525,P10,
stim_fb/ques.jpg,stim_fb/posf.jpg,stim_fb/negf.jpg,stim_02/d.jpg,stim_02/c.jpg,1,2,f,4,56,296,28,f,1,0.783132647123,02,03,60.0242073551,PLT_learning_02,A,2014_Feb_24_1525,P10,
stim_fb/ques.jpg,stim_fb/negf.jpg,stim_fb/posf.jpg,stim_02/a.jpg,stim_02/b.jpg,2,1,j,4,57,297,17,j,1,0.683145516199,02,03,60.0242073551,PLT_learning_02,A,2014_Feb_24_1525,P10,
stim_fb/ques.jpg,stim_fb/negf.jpg,stim_fb/posf.jpg,stim_02/d.jpg,stim_02/c.jpg,1,2,f,4,58,298,20,f,1,0.716472396448,02,03,60.0242073551,PLT_learning_02,A,2014_Feb_24_1525,P10,
stim_fb/ques.jpg,stim_fb/negf.jpg,stim_fb/posf.jpg,stim_02/f.jpg,stim_02/e.jpg,1,3,f,4,59,299,40,j,0,0.899759710077,02,03,60.0242073551,PLT_learning_02,A,2014_Feb_24_1525,P10,
stim_fb/ques.jpg,stim_fb/negf.jpg,stim_fb/posf.jpg,stim_02/f.jpg,stim_02/e.jpg,1,3,f,5,0,300,40,j,0,0.866427620845,02,03,60.0242073551,PLT_learning_02,A,2014_Feb_24_1525,P10,
stim_fb/ques.jpg,stim_fb/negf.jpg,stim_fb/posf.jpg,stim_02/d.jpg,stim_02/c.jpg,1,2,f,5,1,301,22,f,1,0.866434995225,02,03,60.0242073551,PLT_learning_02,A,2014_Feb_24_1525,P10,
stim_fb/ques.jpg,stim_fb/posf.jpg,stim_fb/negf.jpg,stim_02/e.jpg,stim_02/f.jpg,2,3,j,5,2,302,57,j,1,0.933060861197,02,03,60.0242073551,PLT_learning_02,A,2014_Feb_24_1525,P10,
stim_fb/ques.jpg,stim_fb/posf.jpg,stim_fb/negf.jpg,stim_02/b.jpg,stim_02/a.jpg,1,1,f,5,3,303,8,f,1,0.533211900663,02,03,60.0242073551,PLT_learning_02,A,2014_Feb_24_1525,P10,
stim_fb/ques.jpg,stim_fb/negf.jpg,stim_fb/posf.jpg,stim_02/b.jpg,stim_02/a.jpg,1,1,f,5,4,304,2,f,1,0.51684360268,02,03,60.0242073551,PLT_learning_02,A,2014_Feb_24_1525,P10,
stim_fb/ques.jpg,stim_fb/negf.jpg,stim_fb/posf.jpg,stim_02/b.jpg,stim_02/a.jpg,1,1,f,5,5,305,6,f,1,0.566544013955,02,03,60.0242073551,PLT_learning_02,A,2014_Feb_24_1525,P10,
stim_fb/ques.jpg,stim_fb/negf.jpg,stim_fb/posf.jpg,stim_02/f.jpg,stim_02/e.jpg,1,3,f,5,6,306,45,j,0,0.866438769634,02,03,60.0242073551,PLT_learning_02,A,2014_Feb_24_1525,P10,
stim_fb/ques.jpg,stim_fb/negf.jpg,stim_fb/posf.jpg,stim_02/d.jpg,stim_02/c.jpg,1,2,f,5,7,307,26,f,1,0.783127158443,02,03,60.0242073551,PLT_learning_02,A,2014_Feb_24_1525,P10,
stim_fb/ques.jpg,stim_fb/negf.jpg,stim_fb/posf.jpg,stim_02/a.jpg,stim_02/b.jpg,2,1,j,5,8,308,14,j,1,0.683155095074,02,03,60.0242073551,PLT_learning_02,A,2014_Feb_24_1525,P10,
stim_fb/ques.jpg,stim_fb/negf.jpg,stim_fb/posf.jpg,stim_02/d.jpg,stim_02/c.jpg,1,2,f,5,9,309,25,j,0,0.683160039398,02,03,60.0242073551,PLT_learning_02,A,2014_Feb_24_1525,P10,
stim_fb/ques.jpg,stim_fb/negf.jpg,stim_fb/posf.jpg,stim_02/a.jpg,stim_02/b.jpg,2,1,j,5,10,310,12,j,1,0.83310369095,02,03,60.0242073551,PLT_learning_02,A,2014_Feb_24_1525,P10,
stim_fb/ques.jpg,stim_fb/negf.jpg,stim_fb/posf.jpg,stim_02/b.jpg,stim_02/a.jpg,1,1,f,5,11,311,7,f,1,0.616512026225,02,03,60.0242073551,PLT_learning_02,A,2014_Feb_24_1525,P10,
stim_fb/ques.jpg,stim_fb/negf.jpg,stim_fb/posf.jpg,stim_02/a.jpg,stim_02/b.jpg,2,1,j,5,12,312,13,j,1,0.916462787498,02,03,60.0242073551,PLT_learning_02,A,2014_Feb_24_1525,P10,
stim_fb/ques.jpg,stim_fb/negf.jpg,stim_fb/posf.jpg,stim_02/a.jpg,stim_02/b.jpg,2,1,j,5,13,313,11,j,1,0.849775709958,02,03,60.0242073551,PLT_learning_02,A,2014_Feb_24_1525,P10,
stim_fb/ques.jpg,stim_fb/posf.jpg,stim_fb/negf.jpg,stim_02/d.jpg,stim_02/c.jpg,1,2,f,5,14,314,28,f,1,0.766459689777,02,03,60.0242073551,PLT_learning_02,A,2014_Feb_24_1525,P10,
stim_fb/ques.jpg,stim_fb/posf.jpg,stim_fb/negf.jpg,stim_02/b.jpg,stim_02/a.jpg,1,1,f,5,15,315,9,f,1,1.3162814024,02,03,60.0242073551,PLT_learning_02,A,2014_Feb_24_1525,P10,
stim_fb/ques.jpg,stim_fb/negf.jpg,stim_fb/posf.jpg,stim_02/b.jpg,stim_02/a.jpg,1,1,f,5,16,316,3,f,1,1.03306207322,02,03,60.0242073551,PLT_learning_02,A,2014_Feb_24_1525,P10,
stim_fb/ques.jpg,stim_fb/negf.jpg,stim_fb/posf.jpg,stim_02/b.jpg,stim_02/a.jpg,1,1,f,5,17,317,0,f,1,0.833060163457,02,03,60.0242073551,PLT_learning_02,A,2014_Feb_24_1525,P10,
stim_fb/ques.jpg,stim_fb/negf.jpg,stim_fb/posf.jpg,stim_02/c.jpg,stim_02/d.jpg,2,2,j,5,18,318,31,j,1,0.733145356802,02,03,60.0242073551,PLT_learning_02,A,2014_Feb_24_1525,P10,
stim_fb/ques.jpg,stim_fb/posf.jpg,stim_fb/negf.jpg,stim_02/a.jpg,stim_02/b.jpg,2,1,j,5,19,319,19,j,1,0.749818172796,02,03,60.0242073551,PLT_learning_02,A,2014_Feb_24_1525,P10,
stim_fb/ques.jpg,stim_fb/negf.jpg,stim_fb/posf.jpg,stim_02/b.jpg,stim_02/a.jpg,1,1,f,5,20,320,1,f,1,0.883132153894,02,03,60.0242073551,PLT_learning_02,A,2014_Feb_24_1525,P10,
stim_fb/ques.jpg,stim_fb/posf.jpg,stim_fb/negf.jpg,stim_02/c.jpg,stim_02/d.jpg,2,2,j,5,21,321,39,j,1,0.616524564477,02,03,60.0242073551,PLT_learning_02,A,2014_Feb_24_1525,P10,
stim_fb/ques.jpg,stim_fb/posf.jpg,stim_fb/negf.jpg,stim_02/e.jpg,stim_02/f.jpg,2,3,j,5,22,322,56,j,1,1.08285637852,02,03,60.0242073551,PLT_learning_02,A,2014_Feb_24_1525,P10,
stim_fb/ques.jpg,stim_fb/posf.jpg,stim_fb/negf.jpg,stim_02/f.jpg,stim_02/e.jpg,1,3,f,5,23,323,46,j,0,0.799780765558,02,03,60.0242073551,PLT_learning_02,A,2014_Feb_24_1525,P10,
stim_fb/ques.jpg,stim_fb/negf.jpg,stim_fb/posf.jpg,stim_02/d.jpg,stim_02/c.jpg,1,2,f,5,24,324,20,f,1,0.766468300238,02,03,60.0242073551,PLT_learning_02,A,2014_Feb_24_1525,P10,
stim_fb/ques.jpg,stim_fb/negf.jpg,stim_fb/posf.jpg,stim_02/c.jpg,stim_02/d.jpg,2,2,j,5,25,325,36,j,1,0.649799688724,02,03,60.0242073551,PLT_learning_02,A,2014_Feb_24_1525,P10,
stim_fb/ques.jpg,stim_fb/negf.jpg,stim_fb/posf.jpg,stim_02/f.jpg,stim_02/e.jpg,1,3,f,5,26,326,44,f,1,0.833114307412,02,03,60.0242073551,PLT_learning_02,A,2014_Feb_24_1525,P10,
stim_fb/ques.jpg,stim_fb/negf.jpg,stim_fb/posf.jpg,stim_02/a.jpg,stim_02/b.jpg,2,1,j,5,27,327,15,j,1,0.833144502673,02,03,60.0242073551,PLT_learning_02,A,2014_Feb_24_1525,P10,
stim_fb/ques.jpg,stim_fb/negf.jpg,stim_fb/posf.jpg,stim_02/f.jpg,stim_02/e.jpg,1,3,f,5,28,328,41,f,1,0.949776973106,02,03,60.0242073551,PLT_learning_02,A,2014_Feb_24_1525,P10,
stim_fb/ques.jpg,stim_fb/negf.jpg,stim_fb/posf.jpg,stim_02/e.jpg,stim_02/f.jpg,2,3,j,5,29,329,51,f,0,1.09968451365,02,03,60.0242073551,PLT_learning_02,A,2014_Feb_24_1525,P10,
stim_fb/ques.jpg,stim_fb/negf.jpg,stim_fb/posf.jpg,stim_02/d.jpg,stim_02/c.jpg,1,2,f,5,30,330,23,f,1,0.816437566635,02,03,60.0242073551,PLT_learning_02,A,2014_Feb_24_1525,P10,
stim_fb/ques.jpg,stim_fb/posf.jpg,stim_fb/negf.jpg,stim_02/a.jpg,stim_02/b.jpg,2,1,j,5,31,331,18,j,1,0.649845766573,02,03,60.0242073551,PLT_learning_02,A,2014_Feb_24_1525,P10,
stim_fb/ques.jpg,stim_fb/posf.jpg,stim_fb/negf.jpg,stim_02/e.jpg,stim_02/f.jpg,2,3,j,5,32,332,59,f,0,1.24965347328,02,03,60.0242073551,PLT_learning_02,A,2014_Feb_24_1525,P10,
stim_fb/ques.jpg,stim_fb/negf.jpg,stim_fb/posf.jpg,stim_02/e.jpg,stim_02/f.jpg,2,3,j,5,33,333,54,j,1,0.933136379425,02,03,60.0242073551,PLT_learning_02,A,2014_Feb_24_1525,P10,
stim_fb/ques.jpg,stim_fb/negf.jpg,stim_fb/posf.jpg,stim_02/e.jpg,stim_02/f.jpg,2,3,j,5,34,334,55,f,0,0.916402589454,02,03,60.0242073551,PLT_learning_02,A,2014_Feb_24_1525,P10,
stim_fb/ques.jpg,stim_fb/negf.jpg,stim_fb/posf.jpg,stim_02/c.jpg,stim_02/d.jpg,2,2,j,5,35,335,33,j,1,0.649853655235,02,03,60.0242073551,PLT_learning_02,A,2014_Feb_24_1525,P10,
stim_fb/ques.jpg,stim_fb/negf.jpg,stim_fb/posf.jpg,stim_02/b.jpg,stim_02/a.jpg,1,1,f,5,36,336,4,f,1,0.59985453944,02,03,60.0242073551,PLT_learning_02,A,2014_Feb_24_1525,P10,
stim_fb/ques.jpg,stim_fb/negf.jpg,stim_fb/posf.jpg,stim_02/c.jpg,stim_02/d.jpg,2,2,j,5,37,337,34,j,1,0.599842160585,02,03,60.0242073551,PLT_learning_02,A,2014_Feb_24_1525,P10,
stim_fb/ques.jpg,stim_fb/negf.jpg,stim_fb/posf.jpg,stim_02/c.jpg,stim_02/d.jpg,2,2,j,5,38,338,32,j,1,0.633169374667,02,03,60.0242073551,PLT_learning_02,A,2014_Feb_24_1525,P10,
stim_fb/ques.jpg,stim_fb/posf.jpg,stim_fb/negf.jpg,stim_02/c.jpg,stim_02/d.jpg,2,2,j,5,39,339,38,j,1,0.599870452102,02,03,60.0242073551,PLT_learning_02,A,2014_Feb_24_1525,P10,
stim_fb/ques.jpg,stim_fb/posf.jpg,stim_fb/negf.jpg,stim_02/d.jpg,stim_02/c.jpg,1,2,f,5,40,340,27,j,0,0.599870581425,02,03,60.0242073551,PLT_learning_02,A,2014_Feb_24_1525,P10,
stim_fb/ques.jpg,stim_fb/negf.jpg,stim_fb/posf.jpg,stim_02/a.jpg,stim_02/b.jpg,2,1,j,5,41,341,10,j,1,0.84976359877,02,03,60.0242073551,PLT_learning_02,A,2014_Feb_24_1525,P10,
stim_fb/ques.jpg,stim_fb/posf.jpg,stim_fb/negf.jpg,stim_02/f.jpg,stim_02/e.jpg,1,3,f,5,42,342,47,f,1,0.966390962474,02,03,60.0242073551,PLT_learning_02,A,2014_Feb_24_1525,P10,
stim_fb/ques.jpg,stim_fb/negf.jpg,stim_fb/posf.jpg,stim_02/d.jpg,stim_02/c.jpg,1,2,f,5,43,343,24,f,1,0.949720537439,02,03,60.0242073551,PLT_learning_02,A,2014_Feb_24_1525,P10,
stim_fb/ques.jpg,stim_fb/negf.jpg,stim_fb/posf.jpg,stim_02/c.jpg,stim_02/d.jpg,2,2,j,5,44,344,30,j,1,0.699834109518,02,03,60.0242073551,PLT_learning_02,A,2014_Feb_24_1525,P10,
stim_fb/ques.jpg,stim_fb/posf.jpg,stim_fb/negf.jpg,stim_02/c.jpg,stim_02/d.jpg,2,2,j,5,45,345,37,j,1,0.616532949376,02,03,60.0242073551,PLT_learning_02,A,2014_Feb_24_1525,P10,
stim_fb/ques.jpg,stim_fb/posf.jpg,stim_fb/negf.jpg,stim_02/f.jpg,stim_02/e.jpg,1,3,f,5,46,346,49,j,0,1.13300339095,02,03,60.0242073551,PLT_learning_02,A,2014_Feb_24_1525,P10,
stim_fb/ques.jpg,stim_fb/negf.jpg,stim_fb/posf.jpg,stim_02/f.jpg,stim_02/e.jpg,1,3,f,5,47,347,42,j,0,0.916458904821,02,03,60.0242073551,PLT_learning_02,A,2014_Feb_24_1525,P10,
stim_fb/ques.jpg,stim_fb/posf.jpg,stim_fb/negf.jpg,stim_02/d.jpg,stim_02/c.jpg,1,2,f,5,48,348,29,f,1,0.949700865407,02,03,60.0242073551,PLT_learning_02,A,2014_Feb_24_1525,P10,
stim_fb/ques.jpg,stim_fb/negf.jpg,stim_fb/posf.jpg,stim_02/e.jpg,stim_02/f.jpg,2,3,j,5,49,349,53,f,0,1.21618867227,02,03,60.0242073551,PLT_learning_02,A,2014_Feb_24_1525,P10,
stim_fb/ques.jpg,stim_fb/negf.jpg,stim_fb/posf.jpg,stim_02/e.jpg,stim_02/f.jpg,2,3,j,5,50,350,50,f,0,1.16634267712,02,03,60.0242073551,PLT_learning_02,A,2014_Feb_24_1525,P10,
stim_fb/ques.jpg,stim_fb/negf.jpg,stim_fb/posf.jpg,stim_02/a.jpg,stim_02/b.jpg,2,1,j,5,51,351,16,j,1,0.716489554214,02,03,60.0242073551,PLT_learning_02,A,2014_Feb_24_1525,P10,
stim_fb/ques.jpg,stim_fb/negf.jpg,stim_fb/posf.jpg,stim_02/d.jpg,stim_02/c.jpg,1,2,f,5,52,352,21,f,1,0.9330858174,02,03,60.0242073551,PLT_learning_02,A,2014_Feb_24_1525,P10,
stim_fb/ques.jpg,stim_fb/negf.jpg,stim_fb/posf.jpg,stim_02/a.jpg,stim_02/b.jpg,2,1,j,5,53,353,17,j,1,0.833127877234,02,03,60.0242073551,PLT_learning_02,A,2014_Feb_24_1525,P10,
stim_fb/ques.jpg,stim_fb/negf.jpg,stim_fb/posf.jpg,stim_02/b.jpg,stim_02/a.jpg,1,1,f,5,54,354,5,f,1,0.499861919835,02,03,60.0242073551,PLT_learning_02,A,2014_Feb_24_1525,P10,
stim_fb/ques.jpg,stim_fb/negf.jpg,stim_fb/posf.jpg,stim_02/e.jpg,stim_02/f.jpg,2,3,j,5,55,355,52,f,0,0.766458901813,02,03,60.0242073551,PLT_learning_02,A,2014_Feb_24_1525,P10,
stim_fb/ques.jpg,stim_fb/posf.jpg,stim_fb/negf.jpg,stim_02/e.jpg,stim_02/f.jpg,2,3,j,5,56,356,58,f,0,0.69975385749,02,03,60.0242073551,PLT_learning_02,A,2014_Feb_24_1525,P10,
stim_fb/ques.jpg,stim_fb/negf.jpg,stim_fb/posf.jpg,stim_02/c.jpg,stim_02/d.jpg,2,2,j,5,57,357,35,j,1,0.549873110728,02,03,60.0242073551,PLT_learning_02,A,2014_Feb_24_1525,P10,
stim_fb/ques.jpg,stim_fb/posf.jpg,stim_fb/negf.jpg,stim_02/f.jpg,stim_02/e.jpg,1,3,f,5,58,358,48,f,1,0.966454646205,02,03,60.0242073551,PLT_learning_02,A,2014_Feb_24_1525,P10,
stim_fb/ques.jpg,stim_fb/negf.jpg,stim_fb/posf.jpg,stim_02/f.jpg,stim_02/e.jpg,1,3,f,5,59,359,43,j,0,0.616529102789,02,03,60.0242073551,PLT_learning_02,A,2014_Feb_24_1525,P10,
