Fb3,Fb2,Fb1,Symbol2,Symbol1,PosCond,Pair,Correct,trials.thisRepN,trials.thisTrialN,trials.thisN,trials.thisIndex,Response.keys,Response.corr,Response.rt,Version,Session Number,frameRate,expName,StimCondition,date,Participant,
stim_fb/ques.jpg,stim_fb/negf.jpg,stim_fb/posf.jpg,stim_02/b.jpg,stim_02/a.jpg,1,1,f,0,0,0,3,f,1,1.31626311282,02,02,60.0203427859,PLT_learning_02,A,2014_Feb_17_1906,P11,
stim_fb/ques.jpg,stim_fb/negf.jpg,stim_fb/posf.jpg,stim_02/d.jpg,stim_02/c.jpg,1,2,f,0,1,1,26,f,1,1.24964306418,02,02,60.0203427859,PLT_learning_02,A,2014_Feb_17_1906,P11,
stim_fb/ques.jpg,stim_fb/negf.jpg,stim_fb/posf.jpg,stim_02/a.jpg,stim_02/b.jpg,2,1,j,0,2,2,10,j,1,1.29964505062,02,02,60.0203427859,PLT_learning_02,A,2014_Feb_17_1906,P11,
stim_fb/ques.jpg,stim_fb/negf.jpg,stim_fb/posf.jpg,stim_02/c.jpg,stim_02/d.jpg,2,2,j,0,3,3,31,f,0,1.34958013556,02,02,60.0203427859,PLT_learning_02,A,2014_Feb_17_1906,P11,
stim_fb/ques.jpg,stim_fb/posf.jpg,stim_fb/negf.jpg,stim_02/b.jpg,stim_02/a.jpg,1,1,f,0,4,4,8,f,1,1.28295075168,02,02,60.0203427859,PLT_learning_02,A,2014_Feb_17_1906,P11,
stim_fb/ques.jpg,stim_fb/negf.jpg,stim_fb/posf.jpg,stim_02/e.jpg,stim_02/f.jpg,2,3,j,0,5,5,51,f,0,1.2829576689,02,02,60.0203427859,PLT_learning_02,A,2014_Feb_17_1906,P11,
stim_fb/ques.jpg,stim_fb/negf.jpg,stim_fb/posf.jpg,stim_02/a.jpg,stim_02/b.jpg,2,1,j,0,6,6,15,f,0,1.26630587174,02,02,60.0203427859,PLT_learning_02,A,2014_Feb_17_1906,P11,
stim_fb/ques.jpg,stim_fb/negf.jpg,stim_fb/posf.jpg,stim_02/b.jpg,stim_02/a.jpg,1,1,f,0,7,7,4,None,0,,02,02,60.0203427859,PLT_learning_02,A,2014_Feb_17_1906,P11,
stim_fb/ques.jpg,stim_fb/negf.jpg,stim_fb/posf.jpg,stim_02/a.jpg,stim_02/b.jpg,2,1,j,0,8,8,16,f,0,0.883128617346,02,02,60.0203427859,PLT_learning_02,A,2014_Feb_17_1906,P11,
stim_fb/ques.jpg,stim_fb/negf.jpg,stim_fb/posf.jpg,stim_02/d.jpg,stim_02/c.jpg,1,2,f,0,9,9,20,j,0,0.966356541843,02,02,60.0203427859,PLT_learning_02,A,2014_Feb_17_1906,P11,
stim_fb/ques.jpg,stim_fb/posf.jpg,stim_fb/negf.jpg,stim_02/c.jpg,stim_02/d.jpg,2,2,j,0,10,10,37,j,1,0.716452331741,02,02,60.0203427859,PLT_learning_02,A,2014_Feb_17_1906,P11,
stim_fb/ques.jpg,stim_fb/negf.jpg,stim_fb/posf.jpg,stim_02/e.jpg,stim_02/f.jpg,2,3,j,0,11,11,53,f,0,0.816469865377,02,02,60.0203427859,PLT_learning_02,A,2014_Feb_17_1906,P11,
stim_fb/ques.jpg,stim_fb/negf.jpg,stim_fb/posf.jpg,stim_02/d.jpg,stim_02/c.jpg,1,2,f,0,12,12,23,f,1,1.01634448634,02,02,60.0203427859,PLT_learning_02,A,2014_Feb_17_1906,P11,
stim_fb/ques.jpg,stim_fb/negf.jpg,stim_fb/posf.jpg,stim_02/a.jpg,stim_02/b.jpg,2,1,j,0,13,13,14,f,0,0.949756437333,02,02,60.0203427859,PLT_learning_02,A,2014_Feb_17_1906,P11,
stim_fb/ques.jpg,stim_fb/negf.jpg,stim_fb/posf.jpg,stim_02/c.jpg,stim_02/d.jpg,2,2,j,0,14,14,30,j,1,1.18300365635,02,02,60.0203427859,PLT_learning_02,A,2014_Feb_17_1906,P11,
stim_fb/ques.jpg,stim_fb/negf.jpg,stim_fb/posf.jpg,stim_02/f.jpg,stim_02/e.jpg,1,3,f,0,15,15,43,f,1,1.14974169765,02,02,60.0203427859,PLT_learning_02,A,2014_Feb_17_1906,P11,
stim_fb/ques.jpg,stim_fb/posf.jpg,stim_fb/negf.jpg,stim_02/e.jpg,stim_02/f.jpg,2,3,j,0,16,16,57,j,1,0.916356762893,02,02,60.0203427859,PLT_learning_02,A,2014_Feb_17_1906,P11,
stim_fb/ques.jpg,stim_fb/negf.jpg,stim_fb/posf.jpg,stim_02/c.jpg,stim_02/d.jpg,2,2,j,0,17,17,32,f,0,1.1330119134,02,02,60.0203427859,PLT_learning_02,A,2014_Feb_17_1906,P11,
stim_fb/ques.jpg,stim_fb/negf.jpg,stim_fb/posf.jpg,stim_02/b.jpg,stim_02/a.jpg,1,1,f,0,18,18,5,j,0,1.1662726661,02,02,60.0203427859,PLT_learning_02,A,2014_Feb_17_1906,P11,
stim_fb/ques.jpg,stim_fb/negf.jpg,stim_fb/posf.jpg,stim_02/c.jpg,stim_02/d.jpg,2,2,j,0,19,19,33,j,1,0.983089017793,02,02,60.0203427859,PLT_learning_02,A,2014_Feb_17_1906,P11,
stim_fb/ques.jpg,stim_fb/negf.jpg,stim_fb/posf.jpg,stim_02/f.jpg,stim_02/e.jpg,1,3,f,0,20,20,44,f,1,1.1663329782,02,02,60.0203427859,PLT_learning_02,A,2014_Feb_17_1906,P11,
stim_fb/ques.jpg,stim_fb/negf.jpg,stim_fb/posf.jpg,stim_02/b.jpg,stim_02/a.jpg,1,1,f,0,21,21,2,j,0,0.91642567941,02,02,60.0203427859,PLT_learning_02,A,2014_Feb_17_1906,P11,
stim_fb/ques.jpg,stim_fb/negf.jpg,stim_fb/posf.jpg,stim_02/a.jpg,stim_02/b.jpg,2,1,j,0,22,22,17,f,0,0.716480599091,02,02,60.0203427859,PLT_learning_02,A,2014_Feb_17_1906,P11,
stim_fb/ques.jpg,stim_fb/negf.jpg,stim_fb/posf.jpg,stim_02/a.jpg,stim_02/b.jpg,2,1,j,0,23,23,11,j,1,0.933089876429,02,02,60.0203427859,PLT_learning_02,A,2014_Feb_17_1906,P11,
stim_fb/ques.jpg,stim_fb/negf.jpg,stim_fb/posf.jpg,stim_02/b.jpg,stim_02/a.jpg,1,1,f,0,24,24,0,j,0,1.23293169776,02,02,60.0203427859,PLT_learning_02,A,2014_Feb_17_1906,P11,
stim_fb/ques.jpg,stim_fb/negf.jpg,stim_fb/posf.jpg,stim_02/c.jpg,stim_02/d.jpg,2,2,j,0,25,25,34,f,0,0.86645318737,02,02,60.0203427859,PLT_learning_02,A,2014_Feb_17_1906,P11,
stim_fb/ques.jpg,stim_fb/negf.jpg,stim_fb/posf.jpg,stim_02/f.jpg,stim_02/e.jpg,1,3,f,0,26,26,42,f,1,1.166349772,02,02,60.0203427859,PLT_learning_02,A,2014_Feb_17_1906,P11,
stim_fb/ques.jpg,stim_fb/posf.jpg,stim_fb/negf.jpg,stim_02/f.jpg,stim_02/e.jpg,1,3,f,0,27,27,49,f,1,0.749818180998,02,02,60.0203427859,PLT_learning_02,A,2014_Feb_17_1906,P11,
stim_fb/ques.jpg,stim_fb/negf.jpg,stim_fb/posf.jpg,stim_02/f.jpg,stim_02/e.jpg,1,3,f,0,28,28,45,f,1,0.799791361751,02,02,60.0203427859,PLT_learning_02,A,2014_Feb_17_1906,P11,
stim_fb/ques.jpg,stim_fb/posf.jpg,stim_fb/negf.jpg,stim_02/c.jpg,stim_02/d.jpg,2,2,j,0,29,29,39,j,1,1.24963421916,02,02,60.0203427859,PLT_learning_02,A,2014_Feb_17_1906,P11,
stim_fb/ques.jpg,stim_fb/posf.jpg,stim_fb/negf.jpg,stim_02/d.jpg,stim_02/c.jpg,1,2,f,0,30,30,28,f,1,0.949730431612,02,02,60.0203427859,PLT_learning_02,A,2014_Feb_17_1906,P11,
stim_fb/ques.jpg,stim_fb/posf.jpg,stim_fb/negf.jpg,stim_02/c.jpg,stim_02/d.jpg,2,2,j,0,31,31,38,f,0,1.49952905794,02,02,60.0203427859,PLT_learning_02,A,2014_Feb_17_1906,P11,
stim_fb/ques.jpg,stim_fb/negf.jpg,stim_fb/posf.jpg,stim_02/e.jpg,stim_02/f.jpg,2,3,j,0,32,32,54,j,1,1.33299253617,02,02,60.0203427859,PLT_learning_02,A,2014_Feb_17_1906,P11,
stim_fb/ques.jpg,stim_fb/negf.jpg,stim_fb/posf.jpg,stim_02/f.jpg,stim_02/e.jpg,1,3,f,0,33,33,41,f,1,1.16631283407,02,02,60.0203427859,PLT_learning_02,A,2014_Feb_17_1906,P11,
stim_fb/ques.jpg,stim_fb/negf.jpg,stim_fb/posf.jpg,stim_02/d.jpg,stim_02/c.jpg,1,2,f,0,34,34,25,j,0,1.099685787,02,02,60.0203427859,PLT_learning_02,A,2014_Feb_17_1906,P11,
stim_fb/ques.jpg,stim_fb/posf.jpg,stim_fb/negf.jpg,stim_02/e.jpg,stim_02/f.jpg,2,3,j,0,35,35,56,j,1,1.14967418262,02,02,60.0203427859,PLT_learning_02,A,2014_Feb_17_1906,P11,
stim_fb/ques.jpg,stim_fb/posf.jpg,stim_fb/negf.jpg,stim_02/a.jpg,stim_02/b.jpg,2,1,j,0,36,36,19,j,1,1.18298718736,02,02,60.0203427859,PLT_learning_02,A,2014_Feb_17_1906,P11,
stim_fb/ques.jpg,stim_fb/negf.jpg,stim_fb/posf.jpg,stim_02/f.jpg,stim_02/e.jpg,1,3,f,0,37,37,40,f,1,0.866400463153,02,02,60.0203427859,PLT_learning_02,A,2014_Feb_17_1906,P11,
stim_fb/ques.jpg,stim_fb/negf.jpg,stim_fb/posf.jpg,stim_02/c.jpg,stim_02/d.jpg,2,2,j,0,38,38,36,f,0,1.13304135668,02,02,60.0203427859,PLT_learning_02,A,2014_Feb_17_1906,P11,
stim_fb/ques.jpg,stim_fb/negf.jpg,stim_fb/posf.jpg,stim_02/d.jpg,stim_02/c.jpg,1,2,f,0,39,39,21,f,1,0.949766034218,02,02,60.0203427859,PLT_learning_02,A,2014_Feb_17_1906,P11,
stim_fb/ques.jpg,stim_fb/posf.jpg,stim_fb/negf.jpg,stim_02/e.jpg,stim_02/f.jpg,2,3,j,0,40,40,58,j,1,0.949714606226,02,02,60.0203427859,PLT_learning_02,A,2014_Feb_17_1906,P11,
stim_fb/ques.jpg,stim_fb/posf.jpg,stim_fb/negf.jpg,stim_02/f.jpg,stim_02/e.jpg,1,3,f,0,41,41,47,f,1,0.699819821581,02,02,60.0203427859,PLT_learning_02,A,2014_Feb_17_1906,P11,
stim_fb/ques.jpg,stim_fb/posf.jpg,stim_fb/negf.jpg,stim_02/a.jpg,stim_02/b.jpg,2,1,j,0,42,42,18,f,0,1.11633939467,02,02,60.0203427859,PLT_learning_02,A,2014_Feb_17_1906,P11,
stim_fb/ques.jpg,stim_fb/negf.jpg,stim_fb/posf.jpg,stim_02/d.jpg,stim_02/c.jpg,1,2,f,0,43,43,22,j,0,1.03306114593,02,02,60.0203427859,PLT_learning_02,A,2014_Feb_17_1906,P11,
stim_fb/ques.jpg,stim_fb/posf.jpg,stim_fb/negf.jpg,stim_02/f.jpg,stim_02/e.jpg,1,3,f,0,44,44,46,f,1,0.666471728515,02,02,60.0203427859,PLT_learning_02,A,2014_Feb_17_1906,P11,
stim_fb/ques.jpg,stim_fb/negf.jpg,stim_fb/posf.jpg,stim_02/a.jpg,stim_02/b.jpg,2,1,j,0,45,45,13,j,1,1.08303410413,02,02,60.0203427859,PLT_learning_02,A,2014_Feb_17_1906,P11,
stim_fb/ques.jpg,stim_fb/negf.jpg,stim_fb/posf.jpg,stim_02/e.jpg,stim_02/f.jpg,2,3,j,0,46,46,50,j,1,0.983025499712,02,02,60.0203427859,PLT_learning_02,A,2014_Feb_17_1906,P11,
stim_fb/ques.jpg,stim_fb/posf.jpg,stim_fb/negf.jpg,stim_02/f.jpg,stim_02/e.jpg,1,3,f,0,47,47,48,f,1,0.899789500118,02,02,60.0203427859,PLT_learning_02,A,2014_Feb_17_1906,P11,
stim_fb/ques.jpg,stim_fb/negf.jpg,stim_fb/posf.jpg,stim_02/b.jpg,stim_02/a.jpg,1,1,f,0,48,48,1,f,1,1.36613513983,02,02,60.0203427859,PLT_learning_02,A,2014_Feb_17_1906,P11,
stim_fb/ques.jpg,stim_fb/negf.jpg,stim_fb/posf.jpg,stim_02/a.jpg,stim_02/b.jpg,2,1,j,0,49,49,12,j,1,0.933115527268,02,02,60.0203427859,PLT_learning_02,A,2014_Feb_17_1906,P11,
stim_fb/ques.jpg,stim_fb/negf.jpg,stim_fb/posf.jpg,stim_02/e.jpg,stim_02/f.jpg,2,3,j,0,50,50,52,j,1,0.833112835569,02,02,60.0203427859,PLT_learning_02,A,2014_Feb_17_1906,P11,
stim_fb/ques.jpg,stim_fb/negf.jpg,stim_fb/posf.jpg,stim_02/e.jpg,stim_02/f.jpg,2,3,j,0,51,51,55,j,1,0.616497146273,02,02,60.0203427859,PLT_learning_02,A,2014_Feb_17_1906,P11,
stim_fb/ques.jpg,stim_fb/negf.jpg,stim_fb/posf.jpg,stim_02/b.jpg,stim_02/a.jpg,1,1,f,0,52,52,6,f,1,0.966379365646,02,02,60.0203427859,PLT_learning_02,A,2014_Feb_17_1906,P11,
stim_fb/ques.jpg,stim_fb/posf.jpg,stim_fb/negf.jpg,stim_02/e.jpg,stim_02/f.jpg,2,3,j,0,53,53,59,j,1,0.999720706909,02,02,60.0203427859,PLT_learning_02,A,2014_Feb_17_1906,P11,
stim_fb/ques.jpg,stim_fb/negf.jpg,stim_fb/posf.jpg,stim_02/b.jpg,stim_02/a.jpg,1,1,f,0,54,54,7,f,1,1.0163918452,02,02,60.0203427859,PLT_learning_02,A,2014_Feb_17_1906,P11,
stim_fb/ques.jpg,stim_fb/negf.jpg,stim_fb/posf.jpg,stim_02/d.jpg,stim_02/c.jpg,1,2,f,0,55,55,24,j,0,1.53289115085,02,02,60.0203427859,PLT_learning_02,A,2014_Feb_17_1906,P11,
stim_fb/ques.jpg,stim_fb/posf.jpg,stim_fb/negf.jpg,stim_02/b.jpg,stim_02/a.jpg,1,1,f,0,56,56,9,f,1,0.866412270539,02,02,60.0203427859,PLT_learning_02,A,2014_Feb_17_1906,P11,
stim_fb/ques.jpg,stim_fb/negf.jpg,stim_fb/posf.jpg,stim_02/c.jpg,stim_02/d.jpg,2,2,j,0,57,57,35,j,1,1.04974571565,02,02,60.0203427859,PLT_learning_02,A,2014_Feb_17_1906,P11,
stim_fb/ques.jpg,stim_fb/posf.jpg,stim_fb/negf.jpg,stim_02/d.jpg,stim_02/c.jpg,1,2,f,0,58,58,27,f,1,0.966389976053,02,02,60.0203427859,PLT_learning_02,A,2014_Feb_17_1906,P11,
stim_fb/ques.jpg,stim_fb/posf.jpg,stim_fb/negf.jpg,stim_02/d.jpg,stim_02/c.jpg,1,2,f,0,59,59,29,f,1,1.18296981613,02,02,60.0203427859,PLT_learning_02,A,2014_Feb_17_1906,P11,
stim_fb/ques.jpg,stim_fb/negf.jpg,stim_fb/posf.jpg,stim_02/b.jpg,stim_02/a.jpg,1,1,f,1,0,60,1,f,1,1.11637917768,02,02,60.0203427859,PLT_learning_02,A,2014_Feb_17_1906,P11,
stim_fb/ques.jpg,stim_fb/negf.jpg,stim_fb/posf.jpg,stim_02/b.jpg,stim_02/a.jpg,1,1,f,1,1,61,4,f,1,0.749804021759,02,02,60.0203427859,PLT_learning_02,A,2014_Feb_17_1906,P11,
stim_fb/ques.jpg,stim_fb/posf.jpg,stim_fb/negf.jpg,stim_02/b.jpg,stim_02/a.jpg,1,1,f,1,2,62,8,f,1,0.666511252881,02,02,60.0203427859,PLT_learning_02,A,2014_Feb_17_1906,P11,
stim_fb/ques.jpg,stim_fb/negf.jpg,stim_fb/posf.jpg,stim_02/c.jpg,stim_02/d.jpg,2,2,j,1,3,63,33,f,0,0.766476065308,02,02,60.0203427859,PLT_learning_02,A,2014_Feb_17_1906,P11,
stim_fb/ques.jpg,stim_fb/negf.jpg,stim_fb/posf.jpg,stim_02/a.jpg,stim_02/b.jpg,2,1,j,1,4,64,16,j,1,0.949743390864,02,02,60.0203427859,PLT_learning_02,A,2014_Feb_17_1906,P11,
stim_fb/ques.jpg,stim_fb/negf.jpg,stim_fb/posf.jpg,stim_02/a.jpg,stim_02/b.jpg,2,1,j,1,5,65,10,j,1,1.04966929847,02,02,60.0203427859,PLT_learning_02,A,2014_Feb_17_1906,P11,
stim_fb/ques.jpg,stim_fb/negf.jpg,stim_fb/posf.jpg,stim_02/a.jpg,stim_02/b.jpg,2,1,j,1,6,66,14,j,1,1.04968899148,02,02,60.0203427859,PLT_learning_02,A,2014_Feb_17_1906,P11,
stim_fb/ques.jpg,stim_fb/negf.jpg,stim_fb/posf.jpg,stim_02/d.jpg,stim_02/c.jpg,1,2,f,1,7,67,23,f,1,0.866430017706,02,02,60.0203427859,PLT_learning_02,A,2014_Feb_17_1906,P11,
stim_fb/ques.jpg,stim_fb/posf.jpg,stim_fb/negf.jpg,stim_02/e.jpg,stim_02/f.jpg,2,3,j,1,8,68,57,j,1,0.899767223678,02,02,60.0203427859,PLT_learning_02,A,2014_Feb_17_1906,P11,
stim_fb/ques.jpg,stim_fb/negf.jpg,stim_fb/posf.jpg,stim_02/e.jpg,stim_02/f.jpg,2,3,j,1,9,69,50,j,1,0.866436246208,02,02,60.0203427859,PLT_learning_02,A,2014_Feb_17_1906,P11,
stim_fb/ques.jpg,stim_fb/posf.jpg,stim_fb/negf.jpg,stim_02/c.jpg,stim_02/d.jpg,2,2,j,1,10,70,38,f,0,0.96636951914,02,02,60.0203427859,PLT_learning_02,A,2014_Feb_17_1906,P11,
stim_fb/ques.jpg,stim_fb/negf.jpg,stim_fb/posf.jpg,stim_02/f.jpg,stim_02/e.jpg,1,3,f,1,11,71,41,f,1,0.933055338473,02,02,60.0203427859,PLT_learning_02,A,2014_Feb_17_1906,P11,
stim_fb/ques.jpg,stim_fb/negf.jpg,stim_fb/posf.jpg,stim_02/e.jpg,stim_02/f.jpg,2,3,j,1,12,72,52,j,1,0.933073777363,02,02,60.0203427859,PLT_learning_02,A,2014_Feb_17_1906,P11,
stim_fb/ques.jpg,stim_fb/negf.jpg,stim_fb/posf.jpg,stim_02/f.jpg,stim_02/e.jpg,1,3,f,1,13,73,42,f,1,0.833099870302,02,02,60.0203427859,PLT_learning_02,A,2014_Feb_17_1906,P11,
stim_fb/ques.jpg,stim_fb/negf.jpg,stim_fb/posf.jpg,stim_02/b.jpg,stim_02/a.jpg,1,1,f,1,14,74,6,f,1,1.24965250768,02,02,60.0203427859,PLT_learning_02,A,2014_Feb_17_1906,P11,
stim_fb/ques.jpg,stim_fb/negf.jpg,stim_fb/posf.jpg,stim_02/a.jpg,stim_02/b.jpg,2,1,j,1,15,75,11,j,1,1.14965888054,02,02,60.0203427859,PLT_learning_02,A,2014_Feb_17_1906,P11,
stim_fb/ques.jpg,stim_fb/negf.jpg,stim_fb/posf.jpg,stim_02/a.jpg,stim_02/b.jpg,2,1,j,1,16,76,13,j,1,0.849780704729,02,02,60.0203427859,PLT_learning_02,A,2014_Feb_17_1906,P11,
stim_fb/ques.jpg,stim_fb/negf.jpg,stim_fb/posf.jpg,stim_02/e.jpg,stim_02/f.jpg,2,3,j,1,17,77,51,j,1,0.716468223291,02,02,60.0203427859,PLT_learning_02,A,2014_Feb_17_1906,P11,
stim_fb/ques.jpg,stim_fb/negf.jpg,stim_fb/posf.jpg,stim_02/b.jpg,stim_02/a.jpg,1,1,f,1,18,78,7,f,1,1.11635787266,02,02,60.0203427859,PLT_learning_02,A,2014_Feb_17_1906,P11,
stim_fb/ques.jpg,stim_fb/negf.jpg,stim_fb/posf.jpg,stim_02/c.jpg,stim_02/d.jpg,2,2,j,1,19,79,35,f,0,1.24964365364,02,02,60.0203427859,PLT_learning_02,A,2014_Feb_17_1906,P11,
stim_fb/ques.jpg,stim_fb/negf.jpg,stim_fb/posf.jpg,stim_02/b.jpg,stim_02/a.jpg,1,1,f,1,20,80,2,f,1,0.883108313816,02,02,60.0203427859,PLT_learning_02,A,2014_Feb_17_1906,P11,
stim_fb/ques.jpg,stim_fb/posf.jpg,stim_fb/negf.jpg,stim_02/e.jpg,stim_02/f.jpg,2,3,j,1,21,81,59,j,1,0.749804782653,02,02,60.0203427859,PLT_learning_02,A,2014_Feb_17_1906,P11,
stim_fb/ques.jpg,stim_fb/posf.jpg,stim_fb/negf.jpg,stim_02/a.jpg,stim_02/b.jpg,2,1,j,1,22,82,19,f,0,1.39961039236,02,02,60.0203427859,PLT_learning_02,A,2014_Feb_17_1906,P11,
stim_fb/ques.jpg,stim_fb/negf.jpg,stim_fb/posf.jpg,stim_02/d.jpg,stim_02/c.jpg,1,2,f,1,23,83,26,f,1,0.933044932575,02,02,60.0203427859,PLT_learning_02,A,2014_Feb_17_1906,P11,
stim_fb/ques.jpg,stim_fb/negf.jpg,stim_fb/posf.jpg,stim_02/c.jpg,stim_02/d.jpg,2,2,j,1,24,84,31,j,1,0.866428444791,02,02,60.0203427859,PLT_learning_02,A,2014_Feb_17_1906,P11,
stim_fb/ques.jpg,stim_fb/negf.jpg,stim_fb/posf.jpg,stim_02/c.jpg,stim_02/d.jpg,2,2,j,1,25,85,34,j,1,0.64988229456,02,02,60.0203427859,PLT_learning_02,A,2014_Feb_17_1906,P11,
stim_fb/ques.jpg,stim_fb/posf.jpg,stim_fb/negf.jpg,stim_02/d.jpg,stim_02/c.jpg,1,2,f,1,26,86,27,f,1,0.649812851735,02,02,60.0203427859,PLT_learning_02,A,2014_Feb_17_1906,P11,
stim_fb/ques.jpg,stim_fb/negf.jpg,stim_fb/posf.jpg,stim_02/d.jpg,stim_02/c.jpg,1,2,f,1,27,87,25,f,1,0.949684221607,02,02,60.0203427859,PLT_learning_02,A,2014_Feb_17_1906,P11,
stim_fb/ques.jpg,stim_fb/negf.jpg,stim_fb/posf.jpg,stim_02/a.jpg,stim_02/b.jpg,2,1,j,1,28,88,15,j,1,0.833048358101,02,02,60.0203427859,PLT_learning_02,A,2014_Feb_17_1906,P11,
stim_fb/ques.jpg,stim_fb/negf.jpg,stim_fb/posf.jpg,stim_02/c.jpg,stim_02/d.jpg,2,2,j,1,29,89,32,j,1,1.09972051142,02,02,60.0203427859,PLT_learning_02,A,2014_Feb_17_1906,P11,
stim_fb/ques.jpg,stim_fb/negf.jpg,stim_fb/posf.jpg,stim_02/f.jpg,stim_02/e.jpg,1,3,f,1,30,90,43,f,1,0.866401741334,02,02,60.0203427859,PLT_learning_02,A,2014_Feb_17_1906,P11,
stim_fb/ques.jpg,stim_fb/negf.jpg,stim_fb/posf.jpg,stim_02/b.jpg,stim_02/a.jpg,1,1,f,1,31,91,5,f,1,1.18298220396,02,02,60.0203427859,PLT_learning_02,A,2014_Feb_17_1906,P11,
stim_fb/ques.jpg,stim_fb/negf.jpg,stim_fb/posf.jpg,stim_02/a.jpg,stim_02/b.jpg,2,1,j,1,32,92,12,j,1,1.31626688722,02,02,60.0203427859,PLT_learning_02,A,2014_Feb_17_1906,P11,
stim_fb/ques.jpg,stim_fb/negf.jpg,stim_fb/posf.jpg,stim_02/d.jpg,stim_02/c.jpg,1,2,f,1,33,93,24,f,1,1.08302528919,02,02,60.0203427859,PLT_learning_02,A,2014_Feb_17_1906,P11,
stim_fb/ques.jpg,stim_fb/negf.jpg,stim_fb/posf.jpg,stim_02/d.jpg,stim_02/c.jpg,1,2,f,1,34,94,22,f,1,0.566532212043,02,02,60.0203427859,PLT_learning_02,A,2014_Feb_17_1906,P11,
stim_fb/ques.jpg,stim_fb/negf.jpg,stim_fb/posf.jpg,stim_02/f.jpg,stim_02/e.jpg,1,3,f,1,35,95,45,f,1,0.716467748108,02,02,60.0203427859,PLT_learning_02,A,2014_Feb_17_1906,P11,
stim_fb/ques.jpg,stim_fb/negf.jpg,stim_fb/posf.jpg,stim_02/b.jpg,stim_02/a.jpg,1,1,f,1,36,96,0,f,1,1.06638826179,02,02,60.0203427859,PLT_learning_02,A,2014_Feb_17_1906,P11,
stim_fb/ques.jpg,stim_fb/posf.jpg,stim_fb/negf.jpg,stim_02/f.jpg,stim_02/e.jpg,1,3,f,1,37,97,48,f,1,0.766472471363,02,02,60.0203427859,PLT_learning_02,A,2014_Feb_17_1906,P11,
stim_fb/ques.jpg,stim_fb/posf.jpg,stim_fb/negf.jpg,stim_02/a.jpg,stim_02/b.jpg,2,1,j,1,38,98,18,f,0,1.34959861054,02,02,60.0203427859,PLT_learning_02,A,2014_Feb_17_1906,P11,
stim_fb/ques.jpg,stim_fb/posf.jpg,stim_fb/negf.jpg,stim_02/e.jpg,stim_02/f.jpg,2,3,j,1,39,99,56,j,1,0.766449376886,02,02,60.0203427859,PLT_learning_02,A,2014_Feb_17_1906,P11,
stim_fb/ques.jpg,stim_fb/posf.jpg,stim_fb/negf.jpg,stim_02/b.jpg,stim_02/a.jpg,1,1,f,1,40,100,9,f,1,0.93306796991,02,02,60.0203427859,PLT_learning_02,A,2014_Feb_17_1906,P11,
stim_fb/ques.jpg,stim_fb/negf.jpg,stim_fb/posf.jpg,stim_02/f.jpg,stim_02/e.jpg,1,3,f,1,41,101,40,f,1,0.849771414608,02,02,60.0203427859,PLT_learning_02,A,2014_Feb_17_1906,P11,
stim_fb/ques.jpg,stim_fb/posf.jpg,stim_fb/negf.jpg,stim_02/e.jpg,stim_02/f.jpg,2,3,j,1,42,102,58,j,1,0.733197433111,02,02,60.0203427859,PLT_learning_02,A,2014_Feb_17_1906,P11,
stim_fb/ques.jpg,stim_fb/negf.jpg,stim_fb/posf.jpg,stim_02/c.jpg,stim_02/d.jpg,2,2,j,1,43,103,30,j,1,1.21628886291,02,02,60.0203427859,PLT_learning_02,A,2014_Feb_17_1906,P11,
stim_fb/ques.jpg,stim_fb/posf.jpg,stim_fb/negf.jpg,stim_02/f.jpg,stim_02/e.jpg,1,3,f,1,44,104,46,f,1,0.733158841066,02,02,60.0203427859,PLT_learning_02,A,2014_Feb_17_1906,P11,
stim_fb/ques.jpg,stim_fb/negf.jpg,stim_fb/posf.jpg,stim_02/e.jpg,stim_02/f.jpg,2,3,j,1,45,105,55,j,1,0.633185782115,02,02,60.0203427859,PLT_learning_02,A,2014_Feb_17_1906,P11,
stim_fb/ques.jpg,stim_fb/posf.jpg,stim_fb/negf.jpg,stim_02/c.jpg,stim_02/d.jpg,2,2,j,1,46,106,37,j,1,1.36631898437,02,02,60.0203427859,PLT_learning_02,A,2014_Feb_17_1906,P11,
stim_fb/ques.jpg,stim_fb/negf.jpg,stim_fb/posf.jpg,stim_02/b.jpg,stim_02/a.jpg,1,1,f,1,47,107,3,f,1,1.08302134337,02,02,60.0203427859,PLT_learning_02,A,2014_Feb_17_1906,P11,
stim_fb/ques.jpg,stim_fb/posf.jpg,stim_fb/negf.jpg,stim_02/d.jpg,stim_02/c.jpg,1,2,f,1,48,108,29,f,1,1.04971286188,02,02,60.0203427859,PLT_learning_02,A,2014_Feb_17_1906,P11,
stim_fb/ques.jpg,stim_fb/negf.jpg,stim_fb/posf.jpg,stim_02/a.jpg,stim_02/b.jpg,2,1,j,1,49,109,17,f,0,1.11631600847,02,02,60.0203427859,PLT_learning_02,A,2014_Feb_17_1906,P11,
stim_fb/ques.jpg,stim_fb/posf.jpg,stim_fb/negf.jpg,stim_02/f.jpg,stim_02/e.jpg,1,3,f,1,50,110,47,f,1,0.733083726123,02,02,60.0203427859,PLT_learning_02,A,2014_Feb_17_1906,P11,
stim_fb/ques.jpg,stim_fb/posf.jpg,stim_fb/negf.jpg,stim_02/d.jpg,stim_02/c.jpg,1,2,f,1,51,111,28,j,0,1.14967733447,02,02,60.0203427859,PLT_learning_02,A,2014_Feb_17_1906,P11,
stim_fb/ques.jpg,stim_fb/negf.jpg,stim_fb/posf.jpg,stim_02/d.jpg,stim_02/c.jpg,1,2,f,1,52,112,20,j,0,0.883099694364,02,02,60.0203427859,PLT_learning_02,A,2014_Feb_17_1906,P11,
stim_fb/ques.jpg,stim_fb/negf.jpg,stim_fb/posf.jpg,stim_02/e.jpg,stim_02/f.jpg,2,3,j,1,53,113,54,j,1,1.14964322057,02,02,60.0203427859,PLT_learning_02,A,2014_Feb_17_1906,P11,
stim_fb/ques.jpg,stim_fb/posf.jpg,stim_fb/negf.jpg,stim_02/c.jpg,stim_02/d.jpg,2,2,j,1,54,114,39,j,1,1.04971361376,02,02,60.0203427859,PLT_learning_02,A,2014_Feb_17_1906,P11,
stim_fb/ques.jpg,stim_fb/negf.jpg,stim_fb/posf.jpg,stim_02/c.jpg,stim_02/d.jpg,2,2,j,1,55,115,36,j,1,0.783104133412,02,02,60.0203427859,PLT_learning_02,A,2014_Feb_17_1906,P11,
stim_fb/ques.jpg,stim_fb/negf.jpg,stim_fb/posf.jpg,stim_02/f.jpg,stim_02/e.jpg,1,3,f,1,56,116,44,f,1,0.783111778438,02,02,60.0203427859,PLT_learning_02,A,2014_Feb_17_1906,P11,
stim_fb/ques.jpg,stim_fb/negf.jpg,stim_fb/posf.jpg,stim_02/d.jpg,stim_02/c.jpg,1,2,f,1,57,117,21,f,1,0.833107861189,02,02,60.0203427859,PLT_learning_02,A,2014_Feb_17_1906,P11,
stim_fb/ques.jpg,stim_fb/posf.jpg,stim_fb/negf.jpg,stim_02/f.jpg,stim_02/e.jpg,1,3,f,1,58,118,49,f,1,0.733128814336,02,02,60.0203427859,PLT_learning_02,A,2014_Feb_17_1906,P11,
stim_fb/ques.jpg,stim_fb/negf.jpg,stim_fb/posf.jpg,stim_02/e.jpg,stim_02/f.jpg,2,3,j,1,59,119,53,j,1,0.666533812025,02,02,60.0203427859,PLT_learning_02,A,2014_Feb_17_1906,P11,
stim_fb/ques.jpg,stim_fb/negf.jpg,stim_fb/posf.jpg,stim_02/b.jpg,stim_02/a.jpg,1,1,f,2,0,120,2,f,1,0.949764900396,02,02,60.0203427859,PLT_learning_02,A,2014_Feb_17_1906,P11,
stim_fb/ques.jpg,stim_fb/negf.jpg,stim_fb/posf.jpg,stim_02/a.jpg,stim_02/b.jpg,2,1,j,2,1,121,13,j,1,1.21631601749,02,02,60.0203427859,PLT_learning_02,A,2014_Feb_17_1906,P11,
stim_fb/ques.jpg,stim_fb/negf.jpg,stim_fb/posf.jpg,stim_02/b.jpg,stim_02/a.jpg,1,1,f,2,2,122,6,f,1,1.23296714097,02,02,60.0203427859,PLT_learning_02,A,2014_Feb_17_1906,P11,
stim_fb/ques.jpg,stim_fb/posf.jpg,stim_fb/negf.jpg,stim_02/f.jpg,stim_02/e.jpg,1,3,f,2,3,123,48,f,1,1.13307356082,02,02,60.0203427859,PLT_learning_02,A,2014_Feb_17_1906,P11,
stim_fb/ques.jpg,stim_fb/negf.jpg,stim_fb/posf.jpg,stim_02/e.jpg,stim_02/f.jpg,2,3,j,2,4,124,50,j,1,0.833140609692,02,02,60.0203427859,PLT_learning_02,A,2014_Feb_17_1906,P11,
stim_fb/ques.jpg,stim_fb/negf.jpg,stim_fb/posf.jpg,stim_02/d.jpg,stim_02/c.jpg,1,2,f,2,5,125,20,j,0,1.16632977523,02,02,60.0203427859,PLT_learning_02,A,2014_Feb_17_1906,P11,
stim_fb/ques.jpg,stim_fb/negf.jpg,stim_fb/posf.jpg,stim_02/d.jpg,stim_02/c.jpg,1,2,f,2,6,126,25,f,1,0.566508293516,02,02,60.0203427859,PLT_learning_02,A,2014_Feb_17_1906,P11,
stim_fb/ques.jpg,stim_fb/negf.jpg,stim_fb/posf.jpg,stim_02/c.jpg,stim_02/d.jpg,2,2,j,2,7,127,34,j,1,0.749789447487,02,02,60.0203427859,PLT_learning_02,A,2014_Feb_17_1906,P11,
stim_fb/ques.jpg,stim_fb/negf.jpg,stim_fb/posf.jpg,stim_02/b.jpg,stim_02/a.jpg,1,1,f,2,8,128,3,f,1,1.04974628106,02,02,60.0203427859,PLT_learning_02,A,2014_Feb_17_1906,P11,
stim_fb/ques.jpg,stim_fb/negf.jpg,stim_fb/posf.jpg,stim_02/a.jpg,stim_02/b.jpg,2,1,j,2,9,129,12,f,0,1.13297450029,02,02,60.0203427859,PLT_learning_02,A,2014_Feb_17_1906,P11,
stim_fb/ques.jpg,stim_fb/negf.jpg,stim_fb/posf.jpg,stim_02/b.jpg,stim_02/a.jpg,1,1,f,2,10,130,1,f,1,0.966562142532,02,02,60.0203427859,PLT_learning_02,A,2014_Feb_17_1906,P11,
stim_fb/ques.jpg,stim_fb/posf.jpg,stim_fb/negf.jpg,stim_02/e.jpg,stim_02/f.jpg,2,3,j,2,11,131,59,j,1,0.916224235065,02,02,60.0203427859,PLT_learning_02,A,2014_Feb_17_1906,P11,
stim_fb/ques.jpg,stim_fb/negf.jpg,stim_fb/posf.jpg,stim_02/d.jpg,stim_02/c.jpg,1,2,f,2,12,132,22,f,1,0.599862503806,02,02,60.0203427859,PLT_learning_02,A,2014_Feb_17_1906,P11,
stim_fb/ques.jpg,stim_fb/negf.jpg,stim_fb/posf.jpg,stim_02/b.jpg,stim_02/a.jpg,1,1,f,2,13,133,0,f,1,1.19954546979,02,02,60.0203427859,PLT_learning_02,A,2014_Feb_17_1906,P11,
stim_fb/ques.jpg,stim_fb/negf.jpg,stim_fb/posf.jpg,stim_02/f.jpg,stim_02/e.jpg,1,3,f,2,14,134,40,j,0,1.11633855558,02,02,60.0203427859,PLT_learning_02,A,2014_Feb_17_1906,P11,
stim_fb/ques.jpg,stim_fb/negf.jpg,stim_fb/posf.jpg,stim_02/a.jpg,stim_02/b.jpg,2,1,j,2,15,135,14,j,1,1.09968076751,02,02,60.0203427859,PLT_learning_02,A,2014_Feb_17_1906,P11,
stim_fb/ques.jpg,stim_fb/negf.jpg,stim_fb/posf.jpg,stim_02/b.jpg,stim_02/a.jpg,1,1,f,2,16,136,7,f,1,1.09969187114,02,02,60.0203427859,PLT_learning_02,A,2014_Feb_17_1906,P11,
stim_fb/ques.jpg,stim_fb/negf.jpg,stim_fb/posf.jpg,stim_02/f.jpg,stim_02/e.jpg,1,3,f,2,17,137,42,f,1,0.849780518265,02,02,60.0203427859,PLT_learning_02,A,2014_Feb_17_1906,P11,
stim_fb/ques.jpg,stim_fb/posf.jpg,stim_fb/negf.jpg,stim_02/b.jpg,stim_02/a.jpg,1,1,f,2,18,138,8,f,1,1.266287093,02,02,60.0203427859,PLT_learning_02,A,2014_Feb_17_1906,P11,
stim_fb/ques.jpg,stim_fb/negf.jpg,stim_fb/posf.jpg,stim_02/a.jpg,stim_02/b.jpg,2,1,j,2,19,139,15,j,1,1.48293432781,02,02,60.0203427859,PLT_learning_02,A,2014_Feb_17_1906,P11,
stim_fb/ques.jpg,stim_fb/negf.jpg,stim_fb/posf.jpg,stim_02/b.jpg,stim_02/a.jpg,1,1,f,2,20,140,5,f,1,0.899660018872,02,02,60.0203427859,PLT_learning_02,A,2014_Feb_17_1906,P11,
stim_fb/ques.jpg,stim_fb/negf.jpg,stim_fb/posf.jpg,stim_02/e.jpg,stim_02/f.jpg,2,3,j,2,21,141,51,j,1,0.74979103544,02,02,60.0203427859,PLT_learning_02,A,2014_Feb_17_1906,P11,
stim_fb/ques.jpg,stim_fb/negf.jpg,stim_fb/posf.jpg,stim_02/e.jpg,stim_02/f.jpg,2,3,j,2,22,142,52,j,1,0.733154200516,02,02,60.0203427859,PLT_learning_02,A,2014_Feb_17_1906,P11,
stim_fb/ques.jpg,stim_fb/posf.jpg,stim_fb/negf.jpg,stim_02/e.jpg,stim_02/f.jpg,2,3,j,2,23,143,56,j,1,0.666520416687,02,02,60.0203427859,PLT_learning_02,A,2014_Feb_17_1906,P11,
stim_fb/ques.jpg,stim_fb/negf.jpg,stim_fb/posf.jpg,stim_02/f.jpg,stim_02/e.jpg,1,3,f,2,24,144,43,f,1,0.716470196201,02,02,60.0203427859,PLT_learning_02,A,2014_Feb_17_1906,P11,
stim_fb/ques.jpg,stim_fb/posf.jpg,stim_fb/negf.jpg,stim_02/d.jpg,stim_02/c.jpg,1,2,f,2,25,145,28,f,1,0.933073801423,02,02,60.0203427859,PLT_learning_02,A,2014_Feb_17_1906,P11,
stim_fb/ques.jpg,stim_fb/negf.jpg,stim_fb/posf.jpg,stim_02/e.jpg,stim_02/f.jpg,2,3,j,2,26,146,54,j,1,0.666526612106,02,02,60.0203427859,PLT_learning_02,A,2014_Feb_17_1906,P11,
stim_fb/ques.jpg,stim_fb/posf.jpg,stim_fb/negf.jpg,stim_02/c.jpg,stim_02/d.jpg,2,2,j,2,27,147,39,j,1,0.666455599373,02,02,60.0203427859,PLT_learning_02,A,2014_Feb_17_1906,P11,
stim_fb/ques.jpg,stim_fb/negf.jpg,stim_fb/posf.jpg,stim_02/e.jpg,stim_02/f.jpg,2,3,j,2,28,148,55,j,1,0.749807907429,02,02,60.0203427859,PLT_learning_02,A,2014_Feb_17_1906,P11,
stim_fb/ques.jpg,stim_fb/negf.jpg,stim_fb/posf.jpg,stim_02/c.jpg,stim_02/d.jpg,2,2,j,2,29,149,32,f,0,0.716465513547,02,02,60.0203427859,PLT_learning_02,A,2014_Feb_17_1906,P11,
stim_fb/ques.jpg,stim_fb/negf.jpg,stim_fb/posf.jpg,stim_02/c.jpg,stim_02/d.jpg,2,2,j,2,30,150,33,j,1,0.59984086796,02,02,60.0203427859,PLT_learning_02,A,2014_Feb_17_1906,P11,
stim_fb/ques.jpg,stim_fb/negf.jpg,stim_fb/posf.jpg,stim_02/c.jpg,stim_02/d.jpg,2,2,j,2,31,151,35,j,1,0.566528175998,02,02,60.0203427859,PLT_learning_02,A,2014_Feb_17_1906,P11,
stim_fb/ques.jpg,stim_fb/posf.jpg,stim_fb/negf.jpg,stim_02/e.jpg,stim_02/f.jpg,2,3,j,2,32,152,57,j,1,0.716490779428,02,02,60.0203427859,PLT_learning_02,A,2014_Feb_17_1906,P11,
stim_fb/ques.jpg,stim_fb/negf.jpg,stim_fb/posf.jpg,stim_02/c.jpg,stim_02/d.jpg,2,2,j,2,33,153,31,j,1,0.666479902858,02,02,60.0203427859,PLT_learning_02,A,2014_Feb_17_1906,P11,
stim_fb/ques.jpg,stim_fb/posf.jpg,stim_fb/negf.jpg,stim_02/d.jpg,stim_02/c.jpg,1,2,f,2,34,154,27,f,1,0.616486105796,02,02,60.0203427859,PLT_learning_02,A,2014_Feb_17_1906,P11,
stim_fb/ques.jpg,stim_fb/negf.jpg,stim_fb/posf.jpg,stim_02/f.jpg,stim_02/e.jpg,1,3,f,2,35,155,45,f,1,1.18303482292,02,02,60.0203427859,PLT_learning_02,A,2014_Feb_17_1906,P11,
stim_fb/ques.jpg,stim_fb/negf.jpg,stim_fb/posf.jpg,stim_02/f.jpg,stim_02/e.jpg,1,3,f,2,36,156,41,f,1,1.28294392169,02,02,60.0203427859,PLT_learning_02,A,2014_Feb_17_1906,P11,
stim_fb/ques.jpg,stim_fb/negf.jpg,stim_fb/posf.jpg,stim_02/e.jpg,stim_02/f.jpg,2,3,j,2,37,157,53,f,0,1.1164187622,02,02,60.0203427859,PLT_learning_02,A,2014_Feb_17_1906,P11,
stim_fb/ques.jpg,stim_fb/negf.jpg,stim_fb/posf.jpg,stim_02/d.jpg,stim_02/c.jpg,1,2,f,2,38,158,26,j,0,1.13298922193,02,02,60.0203427859,PLT_learning_02,A,2014_Feb_17_1906,P11,
stim_fb/ques.jpg,stim_fb/negf.jpg,stim_fb/posf.jpg,stim_02/a.jpg,stim_02/b.jpg,2,1,j,2,39,159,17,j,1,1.06635425014,02,02,60.0203427859,PLT_learning_02,A,2014_Feb_17_1906,P11,
stim_fb/ques.jpg,stim_fb/negf.jpg,stim_fb/posf.jpg,stim_02/c.jpg,stim_02/d.jpg,2,2,j,2,40,160,36,j,1,0.933053949016,02,02,60.0203427859,PLT_learning_02,A,2014_Feb_17_1906,P11,
stim_fb/ques.jpg,stim_fb/negf.jpg,stim_fb/posf.jpg,stim_02/b.jpg,stim_02/a.jpg,1,1,f,2,41,161,4,f,1,0.949757011763,02,02,60.0203427859,PLT_learning_02,A,2014_Feb_17_1906,P11,
stim_fb/ques.jpg,stim_fb/negf.jpg,stim_fb/posf.jpg,stim_02/d.jpg,stim_02/c.jpg,1,2,f,2,42,162,24,f,1,0.883105980008,02,02,60.0203427859,PLT_learning_02,A,2014_Feb_17_1906,P11,
stim_fb/ques.jpg,stim_fb/negf.jpg,stim_fb/posf.jpg,stim_02/a.jpg,stim_02/b.jpg,2,1,j,2,43,163,11,j,1,0.816444542354,02,02,60.0203427859,PLT_learning_02,A,2014_Feb_17_1906,P11,
stim_fb/ques.jpg,stim_fb/negf.jpg,stim_fb/posf.jpg,stim_02/a.jpg,stim_02/b.jpg,2,1,j,2,44,164,10,j,1,1.38289942895,02,02,60.0203427859,PLT_learning_02,A,2014_Feb_17_1906,P11,
stim_fb/ques.jpg,stim_fb/negf.jpg,stim_fb/posf.jpg,stim_02/d.jpg,stim_02/c.jpg,1,2,f,2,45,165,23,j,0,1.4329270903,02,02,60.0203427859,PLT_learning_02,A,2014_Feb_17_1906,P11,
stim_fb/ques.jpg,stim_fb/posf.jpg,stim_fb/negf.jpg,stim_02/f.jpg,stim_02/e.jpg,1,3,f,2,46,166,46,f,1,0.799805069868,02,02,60.0203427859,PLT_learning_02,A,2014_Feb_17_1906,P11,
stim_fb/ques.jpg,stim_fb/posf.jpg,stim_fb/negf.jpg,stim_02/f.jpg,stim_02/e.jpg,1,3,f,2,47,167,47,f,1,0.733130188757,02,02,60.0203427859,PLT_learning_02,A,2014_Feb_17_1906,P11,
stim_fb/ques.jpg,stim_fb/posf.jpg,stim_fb/negf.jpg,stim_02/f.jpg,stim_02/e.jpg,1,3,f,2,48,168,49,j,0,0.599845430314,02,02,60.0203427859,PLT_learning_02,A,2014_Feb_17_1906,P11,
stim_fb/ques.jpg,stim_fb/posf.jpg,stim_fb/negf.jpg,stim_02/a.jpg,stim_02/b.jpg,2,1,j,2,49,169,19,j,1,1.24962062533,02,02,60.0203427859,PLT_learning_02,A,2014_Feb_17_1906,P11,
stim_fb/ques.jpg,stim_fb/posf.jpg,stim_fb/negf.jpg,stim_02/c.jpg,stim_02/d.jpg,2,2,j,2,50,170,38,j,1,0.833052249786,02,02,60.0203427859,PLT_learning_02,A,2014_Feb_17_1906,P11,
stim_fb/ques.jpg,stim_fb/negf.jpg,stim_fb/posf.jpg,stim_02/d.jpg,stim_02/c.jpg,1,2,f,2,51,171,21,f,1,0.549878682571,02,02,60.0203427859,PLT_learning_02,A,2014_Feb_17_1906,P11,
stim_fb/ques.jpg,stim_fb/negf.jpg,stim_fb/posf.jpg,stim_02/c.jpg,stim_02/d.jpg,2,2,j,2,52,172,30,j,1,0.866437605591,02,02,60.0203427859,PLT_learning_02,A,2014_Feb_17_1906,P11,
stim_fb/ques.jpg,stim_fb/posf.jpg,stim_fb/negf.jpg,stim_02/e.jpg,stim_02/f.jpg,2,3,j,2,53,173,58,j,1,1.01638081976,02,02,60.0203427859,PLT_learning_02,A,2014_Feb_17_1906,P11,
stim_fb/ques.jpg,stim_fb/posf.jpg,stim_fb/negf.jpg,stim_02/d.jpg,stim_02/c.jpg,1,2,f,2,54,174,29,f,1,0.766418742646,02,02,60.0203427859,PLT_learning_02,A,2014_Feb_17_1906,P11,
stim_fb/ques.jpg,stim_fb/negf.jpg,stim_fb/posf.jpg,stim_02/a.jpg,stim_02/b.jpg,2,1,j,2,55,175,16,j,1,0.849684311831,02,02,60.0203427859,PLT_learning_02,A,2014_Feb_17_1906,P11,
stim_fb/ques.jpg,stim_fb/negf.jpg,stim_fb/posf.jpg,stim_02/f.jpg,stim_02/e.jpg,1,3,f,2,56,176,44,f,1,1.04969486209,02,02,60.0203427859,PLT_learning_02,A,2014_Feb_17_1906,P11,
stim_fb/ques.jpg,stim_fb/posf.jpg,stim_fb/negf.jpg,stim_02/a.jpg,stim_02/b.jpg,2,1,j,2,57,177,18,j,1,0.816444076194,02,02,60.0203427859,PLT_learning_02,A,2014_Feb_17_1906,P11,
stim_fb/ques.jpg,stim_fb/posf.jpg,stim_fb/negf.jpg,stim_02/c.jpg,stim_02/d.jpg,2,2,j,2,58,178,37,j,1,0.783108184494,02,02,60.0203427859,PLT_learning_02,A,2014_Feb_17_1906,P11,
stim_fb/ques.jpg,stim_fb/posf.jpg,stim_fb/negf.jpg,stim_02/b.jpg,stim_02/a.jpg,1,1,f,2,59,179,9,f,1,0.899763900407,02,02,60.0203427859,PLT_learning_02,A,2014_Feb_17_1906,P11,
stim_fb/ques.jpg,stim_fb/negf.jpg,stim_fb/posf.jpg,stim_02/b.jpg,stim_02/a.jpg,1,1,f,3,0,180,4,f,1,0.983060254208,02,02,60.0203427859,PLT_learning_02,A,2014_Feb_17_1906,P11,
stim_fb/ques.jpg,stim_fb/negf.jpg,stim_fb/posf.jpg,stim_02/f.jpg,stim_02/e.jpg,1,3,f,3,1,181,44,j,0,0.883126755713,02,02,60.0203427859,PLT_learning_02,A,2014_Feb_17_1906,P11,
stim_fb/ques.jpg,stim_fb/posf.jpg,stim_fb/negf.jpg,stim_02/b.jpg,stim_02/a.jpg,1,1,f,3,2,182,8,f,1,0.849763953038,02,02,60.0203427859,PLT_learning_02,A,2014_Feb_17_1906,P11,
stim_fb/ques.jpg,stim_fb/posf.jpg,stim_fb/negf.jpg,stim_02/e.jpg,stim_02/f.jpg,2,3,j,3,3,183,56,j,1,0.68322981019,02,02,60.0203427859,PLT_learning_02,A,2014_Feb_17_1906,P11,
stim_fb/ques.jpg,stim_fb/posf.jpg,stim_fb/negf.jpg,stim_02/e.jpg,stim_02/f.jpg,2,3,j,3,4,184,59,j,1,0.64983324549,02,02,60.0203427859,PLT_learning_02,A,2014_Feb_17_1906,P11,
stim_fb/ques.jpg,stim_fb/negf.jpg,stim_fb/posf.jpg,stim_02/d.jpg,stim_02/c.jpg,1,2,f,3,5,185,21,f,1,0.666452688128,02,02,60.0203427859,PLT_learning_02,A,2014_Feb_17_1906,P11,
stim_fb/ques.jpg,stim_fb/negf.jpg,stim_fb/posf.jpg,stim_02/d.jpg,stim_02/c.jpg,1,2,f,3,6,186,25,f,1,0.599863577479,02,02,60.0203427859,PLT_learning_02,A,2014_Feb_17_1906,P11,
stim_fb/ques.jpg,stim_fb/negf.jpg,stim_fb/posf.jpg,stim_02/b.jpg,stim_02/a.jpg,1,1,f,3,7,187,0,f,1,1.11632661587,02,02,60.0203427859,PLT_learning_02,A,2014_Feb_17_1906,P11,
stim_fb/ques.jpg,stim_fb/posf.jpg,stim_fb/negf.jpg,stim_02/c.jpg,stim_02/d.jpg,2,2,j,3,8,188,39,j,1,0.833098980086,02,02,60.0203427859,PLT_learning_02,A,2014_Feb_17_1906,P11,
stim_fb/ques.jpg,stim_fb/negf.jpg,stim_fb/posf.jpg,stim_02/e.jpg,stim_02/f.jpg,2,3,j,3,9,189,54,j,1,1.04966819773,02,02,60.0203427859,PLT_learning_02,A,2014_Feb_17_1906,P11,
stim_fb/ques.jpg,stim_fb/negf.jpg,stim_fb/posf.jpg,stim_02/c.jpg,stim_02/d.jpg,2,2,j,3,10,190,31,j,1,1.01638222727,02,02,60.0203427859,PLT_learning_02,A,2014_Feb_17_1906,P11,
stim_fb/ques.jpg,stim_fb/negf.jpg,stim_fb/posf.jpg,stim_02/a.jpg,stim_02/b.jpg,2,1,j,3,11,191,10,j,1,0.933082375763,02,02,60.0203427859,PLT_learning_02,A,2014_Feb_17_1906,P11,
stim_fb/ques.jpg,stim_fb/negf.jpg,stim_fb/posf.jpg,stim_02/c.jpg,stim_02/d.jpg,2,2,j,3,12,192,35,j,1,0.716512758127,02,02,60.0203427859,PLT_learning_02,A,2014_Feb_17_1906,P11,
stim_fb/ques.jpg,stim_fb/negf.jpg,stim_fb/posf.jpg,stim_02/a.jpg,stim_02/b.jpg,2,1,j,3,13,193,11,j,1,1.01631827912,02,02,60.0203427859,PLT_learning_02,A,2014_Feb_17_1906,P11,
stim_fb/ques.jpg,stim_fb/negf.jpg,stim_fb/posf.jpg,stim_02/c.jpg,stim_02/d.jpg,2,2,j,3,14,194,32,j,1,0.616506051436,02,02,60.0203427859,PLT_learning_02,A,2014_Feb_17_1906,P11,
stim_fb/ques.jpg,stim_fb/negf.jpg,stim_fb/posf.jpg,stim_02/b.jpg,stim_02/a.jpg,1,1,f,3,15,195,2,f,1,0.98305979707,02,02,60.0203427859,PLT_learning_02,A,2014_Feb_17_1906,P11,
stim_fb/ques.jpg,stim_fb/negf.jpg,stim_fb/posf.jpg,stim_02/b.jpg,stim_02/a.jpg,1,1,f,3,16,196,3,f,1,0.966403266129,02,02,60.0203427859,PLT_learning_02,A,2014_Feb_17_1906,P11,
stim_fb/ques.jpg,stim_fb/negf.jpg,stim_fb/posf.jpg,stim_02/f.jpg,stim_02/e.jpg,1,3,f,3,17,197,40,f,1,0.983076100646,02,02,60.0203427859,PLT_learning_02,A,2014_Feb_17_1906,P11,
stim_fb/ques.jpg,stim_fb/negf.jpg,stim_fb/posf.jpg,stim_02/f.jpg,stim_02/e.jpg,1,3,f,3,18,198,45,f,1,0.8331092717,02,02,60.0203427859,PLT_learning_02,A,2014_Feb_17_1906,P11,
stim_fb/ques.jpg,stim_fb/posf.jpg,stim_fb/negf.jpg,stim_02/c.jpg,stim_02/d.jpg,2,2,j,3,19,199,37,j,1,0.783006594663,02,02,60.0203427859,PLT_learning_02,A,2014_Feb_17_1906,P11,
stim_fb/ques.jpg,stim_fb/negf.jpg,stim_fb/posf.jpg,stim_02/c.jpg,stim_02/d.jpg,2,2,j,3,20,200,33,j,1,0.699816011097,02,02,60.0203427859,PLT_learning_02,A,2014_Feb_17_1906,P11,
stim_fb/ques.jpg,stim_fb/posf.jpg,stim_fb/negf.jpg,stim_02/e.jpg,stim_02/f.jpg,2,3,j,3,21,201,57,j,1,0.966408297651,02,02,60.0203427859,PLT_learning_02,A,2014_Feb_17_1906,P11,
stim_fb/ques.jpg,stim_fb/negf.jpg,stim_fb/posf.jpg,stim_02/e.jpg,stim_02/f.jpg,2,3,j,3,22,202,53,j,1,0.649838812345,02,02,60.0203427859,PLT_learning_02,A,2014_Feb_17_1906,P11,
stim_fb/ques.jpg,stim_fb/negf.jpg,stim_fb/posf.jpg,stim_02/b.jpg,stim_02/a.jpg,1,1,f,3,23,203,7,f,1,0.833102405612,02,02,60.0203427859,PLT_learning_02,A,2014_Feb_17_1906,P11,
stim_fb/ques.jpg,stim_fb/negf.jpg,stim_fb/posf.jpg,stim_02/a.jpg,stim_02/b.jpg,2,1,j,3,24,204,14,j,1,0.849754662917,02,02,60.0203427859,PLT_learning_02,A,2014_Feb_17_1906,P11,
stim_fb/ques.jpg,stim_fb/posf.jpg,stim_fb/negf.jpg,stim_02/f.jpg,stim_02/e.jpg,1,3,f,3,25,205,47,f,1,0.666551568215,02,02,60.0203427859,PLT_learning_02,A,2014_Feb_17_1906,P11,
stim_fb/ques.jpg,stim_fb/negf.jpg,stim_fb/posf.jpg,stim_02/f.jpg,stim_02/e.jpg,1,3,f,3,26,206,41,f,1,0.799731064687,02,02,60.0203427859,PLT_learning_02,A,2014_Feb_17_1906,P11,
stim_fb/ques.jpg,stim_fb/posf.jpg,stim_fb/negf.jpg,stim_02/d.jpg,stim_02/c.jpg,1,2,f,3,27,207,28,f,1,0.749794845922,02,02,60.0203427859,PLT_learning_02,A,2014_Feb_17_1906,P11,
stim_fb/ques.jpg,stim_fb/posf.jpg,stim_fb/negf.jpg,stim_02/f.jpg,stim_02/e.jpg,1,3,f,3,28,208,48,f,1,1.16631526411,02,02,60.0203427859,PLT_learning_02,A,2014_Feb_17_1906,P11,
stim_fb/ques.jpg,stim_fb/posf.jpg,stim_fb/negf.jpg,stim_02/f.jpg,stim_02/e.jpg,1,3,f,3,29,209,49,j,0,0.649824914756,02,02,60.0203427859,PLT_learning_02,A,2014_Feb_17_1906,P11,
stim_fb/ques.jpg,stim_fb/negf.jpg,stim_fb/posf.jpg,stim_02/a.jpg,stim_02/b.jpg,2,1,j,3,30,210,12,j,1,1.16632215727,02,02,60.0203427859,PLT_learning_02,A,2014_Feb_17_1906,P11,
stim_fb/ques.jpg,stim_fb/posf.jpg,stim_fb/negf.jpg,stim_02/d.jpg,stim_02/c.jpg,1,2,f,3,31,211,29,j,0,0.999683008086,02,02,60.0203427859,PLT_learning_02,A,2014_Feb_17_1906,P11,
stim_fb/ques.jpg,stim_fb/negf.jpg,stim_fb/posf.jpg,stim_02/a.jpg,stim_02/b.jpg,2,1,j,3,32,212,17,j,1,0.816434193599,02,02,60.0203427859,PLT_learning_02,A,2014_Feb_17_1906,P11,
stim_fb/ques.jpg,stim_fb/negf.jpg,stim_fb/posf.jpg,stim_02/d.jpg,stim_02/c.jpg,1,2,f,3,33,213,24,j,0,1.09968634339,02,02,60.0203427859,PLT_learning_02,A,2014_Feb_17_1906,P11,
stim_fb/ques.jpg,stim_fb/posf.jpg,stim_fb/negf.jpg,stim_02/d.jpg,stim_02/c.jpg,1,2,f,3,34,214,27,f,1,0.416514282922,02,02,60.0203427859,PLT_learning_02,A,2014_Feb_17_1906,P11,
stim_fb/ques.jpg,stim_fb/negf.jpg,stim_fb/posf.jpg,stim_02/a.jpg,stim_02/b.jpg,2,1,j,3,35,215,15,j,1,0.816435318399,02,02,60.0203427859,PLT_learning_02,A,2014_Feb_17_1906,P11,
stim_fb/ques.jpg,stim_fb/posf.jpg,stim_fb/negf.jpg,stim_02/f.jpg,stim_02/e.jpg,1,3,f,3,36,216,46,f,1,0.749780082179,02,02,60.0203427859,PLT_learning_02,A,2014_Feb_17_1906,P11,
stim_fb/ques.jpg,stim_fb/negf.jpg,stim_fb/posf.jpg,stim_02/c.jpg,stim_02/d.jpg,2,2,j,3,37,217,30,j,1,0.63314203524,02,02,60.0203427859,PLT_learning_02,A,2014_Feb_17_1906,P11,
stim_fb/ques.jpg,stim_fb/negf.jpg,stim_fb/posf.jpg,stim_02/d.jpg,stim_02/c.jpg,1,2,f,3,38,218,26,f,1,0.666490765893,02,02,60.0203427859,PLT_learning_02,A,2014_Feb_17_1906,P11,
stim_fb/ques.jpg,stim_fb/negf.jpg,stim_fb/posf.jpg,stim_02/e.jpg,stim_02/f.jpg,2,3,j,3,39,219,50,j,1,0.849711646862,02,02,60.0203427859,PLT_learning_02,A,2014_Feb_17_1906,P11,
stim_fb/ques.jpg,stim_fb/negf.jpg,stim_fb/posf.jpg,stim_02/e.jpg,stim_02/f.jpg,2,3,j,3,40,220,51,j,1,0.683174634873,02,02,60.0203427859,PLT_learning_02,A,2014_Feb_17_1906,P11,
stim_fb/ques.jpg,stim_fb/negf.jpg,stim_fb/posf.jpg,stim_02/c.jpg,stim_02/d.jpg,2,2,j,3,41,221,34,j,1,0.666508816818,02,02,60.0203427859,PLT_learning_02,A,2014_Feb_17_1906,P11,
stim_fb/ques.jpg,stim_fb/negf.jpg,stim_fb/posf.jpg,stim_02/d.jpg,stim_02/c.jpg,1,2,f,3,42,222,23,f,1,0.533237628147,02,02,60.0203427859,PLT_learning_02,A,2014_Feb_17_1906,P11,
stim_fb/ques.jpg,stim_fb/negf.jpg,stim_fb/posf.jpg,stim_02/e.jpg,stim_02/f.jpg,2,3,j,3,43,223,52,j,1,0.799784110706,02,02,60.0203427859,PLT_learning_02,A,2014_Feb_17_1906,P11,
stim_fb/ques.jpg,stim_fb/negf.jpg,stim_fb/posf.jpg,stim_02/f.jpg,stim_02/e.jpg,1,3,f,3,44,224,42,f,1,0.616510619805,02,02,60.0203427859,PLT_learning_02,A,2014_Feb_17_1906,P11,
stim_fb/ques.jpg,stim_fb/posf.jpg,stim_fb/negf.jpg,stim_02/a.jpg,stim_02/b.jpg,2,1,j,3,45,225,19,j,1,1.21633875708,02,02,60.0203427859,PLT_learning_02,A,2014_Feb_17_1906,P11,
stim_fb/ques.jpg,stim_fb/posf.jpg,stim_fb/negf.jpg,stim_02/a.jpg,stim_02/b.jpg,2,1,j,3,46,226,18,f,0,1.0830297523,02,02,60.0203427859,PLT_learning_02,A,2014_Feb_17_1906,P11,
stim_fb/ques.jpg,stim_fb/negf.jpg,stim_fb/posf.jpg,stim_02/a.jpg,stim_02/b.jpg,2,1,j,3,47,227,13,j,1,0.766456447484,02,02,60.0203427859,PLT_learning_02,A,2014_Feb_17_1906,P11,
stim_fb/ques.jpg,stim_fb/negf.jpg,stim_fb/posf.jpg,stim_02/e.jpg,stim_02/f.jpg,2,3,j,3,48,228,55,j,1,1.06637122438,02,02,60.0203427859,PLT_learning_02,A,2014_Feb_17_1906,P11,
stim_fb/ques.jpg,stim_fb/posf.jpg,stim_fb/negf.jpg,stim_02/c.jpg,stim_02/d.jpg,2,2,j,3,49,229,38,j,1,0.683189404631,02,02,60.0203427859,PLT_learning_02,A,2014_Feb_17_1906,P11,
stim_fb/ques.jpg,stim_fb/negf.jpg,stim_fb/posf.jpg,stim_02/b.jpg,stim_02/a.jpg,1,1,f,3,50,230,5,f,1,0.81641533667,02,02,60.0203427859,PLT_learning_02,A,2014_Feb_17_1906,P11,
stim_fb/ques.jpg,stim_fb/posf.jpg,stim_fb/negf.jpg,stim_02/b.jpg,stim_02/a.jpg,1,1,f,3,51,231,9,f,1,0.949786602408,02,02,60.0203427859,PLT_learning_02,A,2014_Feb_17_1906,P11,
stim_fb/ques.jpg,stim_fb/negf.jpg,stim_fb/posf.jpg,stim_02/c.jpg,stim_02/d.jpg,2,2,j,3,52,232,36,j,1,1.16631711973,02,02,60.0203427859,PLT_learning_02,A,2014_Feb_17_1906,P11,
stim_fb/ques.jpg,stim_fb/negf.jpg,stim_fb/posf.jpg,stim_02/f.jpg,stim_02/e.jpg,1,3,f,3,53,233,43,f,1,0.683137943557,02,02,60.0203427859,PLT_learning_02,A,2014_Feb_17_1906,P11,
stim_fb/ques.jpg,stim_fb/posf.jpg,stim_fb/negf.jpg,stim_02/e.jpg,stim_02/f.jpg,2,3,j,3,54,234,58,j,1,0.666490170412,02,02,60.0203427859,PLT_learning_02,A,2014_Feb_17_1906,P11,
stim_fb/ques.jpg,stim_fb/negf.jpg,stim_fb/posf.jpg,stim_02/b.jpg,stim_02/a.jpg,1,1,f,3,55,235,6,f,1,0.816449125761,02,02,60.0203427859,PLT_learning_02,A,2014_Feb_17_1906,P11,
stim_fb/ques.jpg,stim_fb/negf.jpg,stim_fb/posf.jpg,stim_02/d.jpg,stim_02/c.jpg,1,2,f,3,56,236,22,f,1,0.833104697315,02,02,60.0203427859,PLT_learning_02,A,2014_Feb_17_1906,P11,
stim_fb/ques.jpg,stim_fb/negf.jpg,stim_fb/posf.jpg,stim_02/a.jpg,stim_02/b.jpg,2,1,j,3,57,237,16,f,0,1.16637169957,02,02,60.0203427859,PLT_learning_02,A,2014_Feb_17_1906,P11,
stim_fb/ques.jpg,stim_fb/negf.jpg,stim_fb/posf.jpg,stim_02/d.jpg,stim_02/c.jpg,1,2,f,3,58,238,20,f,1,1.16633772702,02,02,60.0203427859,PLT_learning_02,A,2014_Feb_17_1906,P11,
stim_fb/ques.jpg,stim_fb/negf.jpg,stim_fb/posf.jpg,stim_02/b.jpg,stim_02/a.jpg,1,1,f,3,59,239,1,f,1,1.01636965297,02,02,60.0203427859,PLT_learning_02,A,2014_Feb_17_1906,P11,
stim_fb/ques.jpg,stim_fb/negf.jpg,stim_fb/posf.jpg,stim_02/b.jpg,stim_02/a.jpg,1,1,f,4,0,240,2,f,1,0.749811161529,02,02,60.0203427859,PLT_learning_02,A,2014_Feb_17_1906,P11,
stim_fb/ques.jpg,stim_fb/negf.jpg,stim_fb/posf.jpg,stim_02/c.jpg,stim_02/d.jpg,2,2,j,4,1,241,33,j,1,1.26629034109,02,02,60.0203427859,PLT_learning_02,A,2014_Feb_17_1906,P11,
stim_fb/ques.jpg,stim_fb/negf.jpg,stim_fb/posf.jpg,stim_02/e.jpg,stim_02/f.jpg,2,3,j,4,2,242,52,j,1,0.966328551182,02,02,60.0203427859,PLT_learning_02,A,2014_Feb_17_1906,P11,
stim_fb/ques.jpg,stim_fb/posf.jpg,stim_fb/negf.jpg,stim_02/c.jpg,stim_02/d.jpg,2,2,j,4,3,243,38,j,1,0.833105151446,02,02,60.0203427859,PLT_learning_02,A,2014_Feb_17_1906,P11,
stim_fb/ques.jpg,stim_fb/negf.jpg,stim_fb/posf.jpg,stim_02/a.jpg,stim_02/b.jpg,2,1,j,4,4,244,14,j,1,0.933020298267,02,02,60.0203427859,PLT_learning_02,A,2014_Feb_17_1906,P11,
stim_fb/ques.jpg,stim_fb/posf.jpg,stim_fb/negf.jpg,stim_02/f.jpg,stim_02/e.jpg,1,3,f,4,5,245,49,f,1,0.783121474569,02,02,60.0203427859,PLT_learning_02,A,2014_Feb_17_1906,P11,
stim_fb/ques.jpg,stim_fb/negf.jpg,stim_fb/posf.jpg,stim_02/c.jpg,stim_02/d.jpg,2,2,j,4,6,246,34,j,1,0.99971667688,02,02,60.0203427859,PLT_learning_02,A,2014_Feb_17_1906,P11,
stim_fb/ques.jpg,stim_fb/negf.jpg,stim_fb/posf.jpg,stim_02/c.jpg,stim_02/d.jpg,2,2,j,4,7,247,36,f,0,1.18296835148,02,02,60.0203427859,PLT_learning_02,A,2014_Feb_17_1906,P11,
stim_fb/ques.jpg,stim_fb/negf.jpg,stim_fb/posf.jpg,stim_02/e.jpg,stim_02/f.jpg,2,3,j,4,8,248,54,f,0,1.24964907915,02,02,60.0203427859,PLT_learning_02,A,2014_Feb_17_1906,P11,
stim_fb/ques.jpg,stim_fb/negf.jpg,stim_fb/posf.jpg,stim_02/c.jpg,stim_02/d.jpg,2,2,j,4,9,249,35,j,1,0.916423676425,02,02,60.0203427859,PLT_learning_02,A,2014_Feb_17_1906,P11,
stim_fb/ques.jpg,stim_fb/posf.jpg,stim_fb/negf.jpg,stim_02/c.jpg,stim_02/d.jpg,2,2,j,4,10,250,39,j,1,0.699810802133,02,02,60.0203427859,PLT_learning_02,A,2014_Feb_17_1906,P11,
stim_fb/ques.jpg,stim_fb/negf.jpg,stim_fb/posf.jpg,stim_02/f.jpg,stim_02/e.jpg,1,3,f,4,11,251,41,j,0,1.14964812577,02,02,60.0203427859,PLT_learning_02,A,2014_Feb_17_1906,P11,
stim_fb/ques.jpg,stim_fb/negf.jpg,stim_fb/posf.jpg,stim_02/b.jpg,stim_02/a.jpg,1,1,f,4,12,252,1,f,1,0.99972441213,02,02,60.0203427859,PLT_learning_02,A,2014_Feb_17_1906,P11,
stim_fb/ques.jpg,stim_fb/posf.jpg,stim_fb/negf.jpg,stim_02/d.jpg,stim_02/c.jpg,1,2,f,4,13,253,29,f,1,0.699868118781,02,02,60.0203427859,PLT_learning_02,A,2014_Feb_17_1906,P11,
stim_fb/ques.jpg,stim_fb/negf.jpg,stim_fb/posf.jpg,stim_02/a.jpg,stim_02/b.jpg,2,1,j,4,14,254,10,j,1,0.816442767938,02,02,60.0203427859,PLT_learning_02,A,2014_Feb_17_1906,P11,
stim_fb/ques.jpg,stim_fb/posf.jpg,stim_fb/negf.jpg,stim_02/e.jpg,stim_02/f.jpg,2,3,j,4,15,255,57,j,1,0.799787710665,02,02,60.0203427859,PLT_learning_02,A,2014_Feb_17_1906,P11,
stim_fb/ques.jpg,stim_fb/negf.jpg,stim_fb/posf.jpg,stim_02/d.jpg,stim_02/c.jpg,1,2,f,4,16,256,23,f,1,0.683119495645,02,02,60.0203427859,PLT_learning_02,A,2014_Feb_17_1906,P11,
stim_fb/ques.jpg,stim_fb/negf.jpg,stim_fb/posf.jpg,stim_02/f.jpg,stim_02/e.jpg,1,3,f,4,17,257,42,f,1,0.816415126145,02,02,60.0203427859,PLT_learning_02,A,2014_Feb_17_1906,P11,
stim_fb/ques.jpg,stim_fb/negf.jpg,stim_fb/posf.jpg,stim_02/f.jpg,stim_02/e.jpg,1,3,f,4,18,258,43,f,1,0.616487146385,02,02,60.0203427859,PLT_learning_02,A,2014_Feb_17_1906,P11,
stim_fb/ques.jpg,stim_fb/negf.jpg,stim_fb/posf.jpg,stim_02/a.jpg,stim_02/b.jpg,2,1,j,4,19,259,15,j,1,0.933061398556,02,02,60.0203427859,PLT_learning_02,A,2014_Feb_17_1906,P11,
stim_fb/ques.jpg,stim_fb/negf.jpg,stim_fb/posf.jpg,stim_02/a.jpg,stim_02/b.jpg,2,1,j,4,20,260,16,j,1,1.29962637113,02,02,60.0203427859,PLT_learning_02,A,2014_Feb_17_1906,P11,
stim_fb/ques.jpg,stim_fb/negf.jpg,stim_fb/posf.jpg,stim_02/c.jpg,stim_02/d.jpg,2,2,j,4,21,261,31,f,0,0.816448975387,02,02,60.0203427859,PLT_learning_02,A,2014_Feb_17_1906,P11,
stim_fb/ques.jpg,stim_fb/negf.jpg,stim_fb/posf.jpg,stim_02/a.jpg,stim_02/b.jpg,2,1,j,4,22,262,11,j,1,1.04970958373,02,02,60.0203427859,PLT_learning_02,A,2014_Feb_17_1906,P11,
stim_fb/ques.jpg,stim_fb/negf.jpg,stim_fb/posf.jpg,stim_02/a.jpg,stim_02/b.jpg,2,1,j,4,23,263,12,j,1,0.633164952275,02,02,60.0203427859,PLT_learning_02,A,2014_Feb_17_1906,P11,
stim_fb/ques.jpg,stim_fb/posf.jpg,stim_fb/negf.jpg,stim_02/f.jpg,stim_02/e.jpg,1,3,f,4,24,264,47,f,1,1.04970630256,02,02,60.0203427859,PLT_learning_02,A,2014_Feb_17_1906,P11,
stim_fb/ques.jpg,stim_fb/negf.jpg,stim_fb/posf.jpg,stim_02/b.jpg,stim_02/a.jpg,1,1,f,4,25,265,6,f,1,1.00072784442,02,02,60.0203427859,PLT_learning_02,A,2014_Feb_17_1906,P11,
stim_fb/ques.jpg,stim_fb/posf.jpg,stim_fb/negf.jpg,stim_02/e.jpg,stim_02/f.jpg,2,3,j,4,26,266,56,j,1,1.23296548686,02,02,60.0203427859,PLT_learning_02,A,2014_Feb_17_1906,P11,
stim_fb/ques.jpg,stim_fb/posf.jpg,stim_fb/negf.jpg,stim_02/e.jpg,stim_02/f.jpg,2,3,j,4,27,267,58,f,0,0.916414768255,02,02,60.0203427859,PLT_learning_02,A,2014_Feb_17_1906,P11,
stim_fb/ques.jpg,stim_fb/negf.jpg,stim_fb/posf.jpg,stim_02/e.jpg,stim_02/f.jpg,2,3,j,4,28,268,51,f,0,0.783154051646,02,02,60.0203427859,PLT_learning_02,A,2014_Feb_17_1906,P11,
stim_fb/ques.jpg,stim_fb/negf.jpg,stim_fb/posf.jpg,stim_02/f.jpg,stim_02/e.jpg,1,3,f,4,29,269,44,j,0,0.816443841611,02,02,60.0203427859,PLT_learning_02,A,2014_Feb_17_1906,P11,
stim_fb/ques.jpg,stim_fb/negf.jpg,stim_fb/posf.jpg,stim_02/d.jpg,stim_02/c.jpg,1,2,f,4,30,270,25,f,1,0.766447984422,02,02,60.0203427859,PLT_learning_02,A,2014_Feb_17_1906,P11,
stim_fb/ques.jpg,stim_fb/posf.jpg,stim_fb/negf.jpg,stim_02/d.jpg,stim_02/c.jpg,1,2,f,4,31,271,28,f,1,0.849785408435,02,02,60.0203427859,PLT_learning_02,A,2014_Feb_17_1906,P11,
stim_fb/ques.jpg,stim_fb/negf.jpg,stim_fb/posf.jpg,stim_02/c.jpg,stim_02/d.jpg,2,2,j,4,32,272,30,j,1,0.983105513847,02,02,60.0203427859,PLT_learning_02,A,2014_Feb_17_1906,P11,
stim_fb/ques.jpg,stim_fb/posf.jpg,stim_fb/negf.jpg,stim_02/c.jpg,stim_02/d.jpg,2,2,j,4,33,273,37,j,1,0.799778194983,02,02,60.0203427859,PLT_learning_02,A,2014_Feb_17_1906,P11,
stim_fb/ques.jpg,stim_fb/negf.jpg,stim_fb/posf.jpg,stim_02/f.jpg,stim_02/e.jpg,1,3,f,4,34,274,40,j,0,1.1329705274,02,02,60.0203427859,PLT_learning_02,A,2014_Feb_17_1906,P11,
stim_fb/ques.jpg,stim_fb/posf.jpg,stim_fb/negf.jpg,stim_02/a.jpg,stim_02/b.jpg,2,1,j,4,35,275,19,j,1,0.966398415056,02,02,60.0203427859,PLT_learning_02,A,2014_Feb_17_1906,P11,
stim_fb/ques.jpg,stim_fb/negf.jpg,stim_fb/posf.jpg,stim_02/b.jpg,stim_02/a.jpg,1,1,f,4,36,276,0,f,1,1.13301247279,02,02,60.0203427859,PLT_learning_02,A,2014_Feb_17_1906,P11,
stim_fb/ques.jpg,stim_fb/negf.jpg,stim_fb/posf.jpg,stim_02/d.jpg,stim_02/c.jpg,1,2,f,4,37,277,21,f,1,0.749822265162,02,02,60.0203427859,PLT_learning_02,A,2014_Feb_17_1906,P11,
stim_fb/ques.jpg,stim_fb/negf.jpg,stim_fb/posf.jpg,stim_02/e.jpg,stim_02/f.jpg,2,3,j,4,38,278,53,j,1,0.683144319425,02,02,60.0203427859,PLT_learning_02,A,2014_Feb_17_1906,P11,
stim_fb/ques.jpg,stim_fb/negf.jpg,stim_fb/posf.jpg,stim_02/d.jpg,stim_02/c.jpg,1,2,f,4,39,279,26,f,1,0.666598948132,02,02,60.0203427859,PLT_learning_02,A,2014_Feb_17_1906,P11,
stim_fb/ques.jpg,stim_fb/negf.jpg,stim_fb/posf.jpg,stim_02/d.jpg,stim_02/c.jpg,1,2,f,4,40,280,22,f,1,0.716456403875,02,02,60.0203427859,PLT_learning_02,A,2014_Feb_17_1906,P11,
stim_fb/ques.jpg,stim_fb/posf.jpg,stim_fb/negf.jpg,stim_02/e.jpg,stim_02/f.jpg,2,3,j,4,41,281,59,j,1,0.649840246914,02,02,60.0203427859,PLT_learning_02,A,2014_Feb_17_1906,P11,
stim_fb/ques.jpg,stim_fb/negf.jpg,stim_fb/posf.jpg,stim_02/d.jpg,stim_02/c.jpg,1,2,f,4,42,282,24,f,1,0.583156147864,02,02,60.0203427859,PLT_learning_02,A,2014_Feb_17_1906,P11,
stim_fb/ques.jpg,stim_fb/negf.jpg,stim_fb/posf.jpg,stim_02/b.jpg,stim_02/a.jpg,1,1,f,4,43,283,7,f,1,0.749795627868,02,02,60.0203427859,PLT_learning_02,A,2014_Feb_17_1906,P11,
stim_fb/ques.jpg,stim_fb/negf.jpg,stim_fb/posf.jpg,stim_02/b.jpg,stim_02/a.jpg,1,1,f,4,44,284,5,f,1,0.983059643688,02,02,60.0203427859,PLT_learning_02,A,2014_Feb_17_1906,P11,
stim_fb/ques.jpg,stim_fb/negf.jpg,stim_fb/posf.jpg,stim_02/e.jpg,stim_02/f.jpg,2,3,j,4,45,285,55,j,1,0.666495463585,02,02,60.0203427859,PLT_learning_02,A,2014_Feb_17_1906,P11,
stim_fb/ques.jpg,stim_fb/posf.jpg,stim_fb/negf.jpg,stim_02/f.jpg,stim_02/e.jpg,1,3,f,4,46,286,46,f,1,0.433239423615,02,02,60.0203427859,PLT_learning_02,A,2014_Feb_17_1906,P11,
stim_fb/ques.jpg,stim_fb/negf.jpg,stim_fb/posf.jpg,stim_02/a.jpg,stim_02/b.jpg,2,1,j,4,47,287,17,j,1,0.833087653898,02,02,60.0203427859,PLT_learning_02,A,2014_Feb_17_1906,P11,
stim_fb/ques.jpg,stim_fb/posf.jpg,stim_fb/negf.jpg,stim_02/b.jpg,stim_02/a.jpg,1,1,f,4,48,288,9,j,0,0.866430613189,02,02,60.0203427859,PLT_learning_02,A,2014_Feb_17_1906,P11,
stim_fb/ques.jpg,stim_fb/posf.jpg,stim_fb/negf.jpg,stim_02/a.jpg,stim_02/b.jpg,2,1,j,4,49,289,18,j,1,0.816436939433,02,02,60.0203427859,PLT_learning_02,A,2014_Feb_17_1906,P11,
stim_fb/ques.jpg,stim_fb/posf.jpg,stim_fb/negf.jpg,stim_02/b.jpg,stim_02/a.jpg,1,1,f,4,50,290,8,f,1,0.883084064465,02,02,60.0203427859,PLT_learning_02,A,2014_Feb_17_1906,P11,
stim_fb/ques.jpg,stim_fb/negf.jpg,stim_fb/posf.jpg,stim_02/b.jpg,stim_02/a.jpg,1,1,f,4,51,291,3,j,0,0.666564031233,02,02,60.0203427859,PLT_learning_02,A,2014_Feb_17_1906,P11,
stim_fb/ques.jpg,stim_fb/posf.jpg,stim_fb/negf.jpg,stim_02/f.jpg,stim_02/e.jpg,1,3,f,4,52,292,48,f,1,1.04970485295,02,02,60.0203427859,PLT_learning_02,A,2014_Feb_17_1906,P11,
stim_fb/ques.jpg,stim_fb/negf.jpg,stim_fb/posf.jpg,stim_02/b.jpg,stim_02/a.jpg,1,1,f,4,53,293,4,f,1,0.933084111081,02,02,60.0203427859,PLT_learning_02,A,2014_Feb_17_1906,P11,
stim_fb/ques.jpg,stim_fb/posf.jpg,stim_fb/negf.jpg,stim_02/d.jpg,stim_02/c.jpg,1,2,f,4,54,294,27,j,0,1.06637192814,02,02,60.0203427859,PLT_learning_02,A,2014_Feb_17_1906,P11,
stim_fb/ques.jpg,stim_fb/negf.jpg,stim_fb/posf.jpg,stim_02/e.jpg,stim_02/f.jpg,2,3,j,4,55,295,50,f,0,0.983107823596,02,02,60.0203427859,PLT_learning_02,A,2014_Feb_17_1906,P11,
stim_fb/ques.jpg,stim_fb/negf.jpg,stim_fb/posf.jpg,stim_02/c.jpg,stim_02/d.jpg,2,2,j,4,56,296,32,j,1,0.633187553523,02,02,60.0203427859,PLT_learning_02,A,2014_Feb_17_1906,P11,
stim_fb/ques.jpg,stim_fb/negf.jpg,stim_fb/posf.jpg,stim_02/d.jpg,stim_02/c.jpg,1,2,f,4,57,297,20,f,1,0.766467554125,02,02,60.0203427859,PLT_learning_02,A,2014_Feb_17_1906,P11,
stim_fb/ques.jpg,stim_fb/negf.jpg,stim_fb/posf.jpg,stim_02/f.jpg,stim_02/e.jpg,1,3,f,4,58,298,45,f,1,1.11636570415,02,02,60.0203427859,PLT_learning_02,A,2014_Feb_17_1906,P11,
stim_fb/ques.jpg,stim_fb/negf.jpg,stim_fb/posf.jpg,stim_02/a.jpg,stim_02/b.jpg,2,1,j,4,59,299,13,j,1,0.916420891494,02,02,60.0203427859,PLT_learning_02,A,2014_Feb_17_1906,P11,
stim_fb/ques.jpg,stim_fb/negf.jpg,stim_fb/posf.jpg,stim_02/a.jpg,stim_02/b.jpg,2,1,j,5,0,300,14,j,1,1.116334706,02,02,60.0203427859,PLT_learning_02,A,2014_Feb_17_1906,P11,
stim_fb/ques.jpg,stim_fb/negf.jpg,stim_fb/posf.jpg,stim_02/b.jpg,stim_02/a.jpg,1,1,f,5,1,301,5,f,1,1.01636719285,02,02,60.0203427859,PLT_learning_02,A,2014_Feb_17_1906,P11,
stim_fb/ques.jpg,stim_fb/negf.jpg,stim_fb/posf.jpg,stim_02/b.jpg,stim_02/a.jpg,1,1,f,5,2,302,3,f,1,0.716479471284,02,02,60.0203427859,PLT_learning_02,A,2014_Feb_17_1906,P11,
stim_fb/ques.jpg,stim_fb/negf.jpg,stim_fb/posf.jpg,stim_02/a.jpg,stim_02/b.jpg,2,1,j,5,3,303,16,j,1,0.816462848915,02,02,60.0203427859,PLT_learning_02,A,2014_Feb_17_1906,P11,
stim_fb/ques.jpg,stim_fb/negf.jpg,stim_fb/posf.jpg,stim_02/b.jpg,stim_02/a.jpg,1,1,f,5,4,304,2,f,1,0.966683605824,02,02,60.0203427859,PLT_learning_02,A,2014_Feb_17_1906,P11,
stim_fb/ques.jpg,stim_fb/negf.jpg,stim_fb/posf.jpg,stim_02/e.jpg,stim_02/f.jpg,2,3,j,5,5,305,51,j,1,0.583154541866,02,02,60.0203427859,PLT_learning_02,A,2014_Feb_17_1906,P11,
stim_fb/ques.jpg,stim_fb/negf.jpg,stim_fb/posf.jpg,stim_02/c.jpg,stim_02/d.jpg,2,2,j,5,6,306,32,j,1,0.916384049804,02,02,60.0203427859,PLT_learning_02,A,2014_Feb_17_1906,P11,
stim_fb/ques.jpg,stim_fb/negf.jpg,stim_fb/posf.jpg,stim_02/c.jpg,stim_02/d.jpg,2,2,j,5,7,307,36,j,1,1.03302827111,02,02,60.0203427859,PLT_learning_02,A,2014_Feb_17_1906,P11,
stim_fb/ques.jpg,stim_fb/negf.jpg,stim_fb/posf.jpg,stim_02/a.jpg,stim_02/b.jpg,2,1,j,5,8,308,13,j,1,0.933068321786,02,02,60.0203427859,PLT_learning_02,A,2014_Feb_17_1906,P11,
stim_fb/ques.jpg,stim_fb/negf.jpg,stim_fb/posf.jpg,stim_02/d.jpg,stim_02/c.jpg,1,2,f,5,9,309,23,f,1,0.899738914223,02,02,60.0203427859,PLT_learning_02,A,2014_Feb_17_1906,P11,
stim_fb/ques.jpg,stim_fb/posf.jpg,stim_fb/negf.jpg,stim_02/f.jpg,stim_02/e.jpg,1,3,f,5,10,310,46,f,1,0.833113990444,02,02,60.0203427859,PLT_learning_02,A,2014_Feb_17_1906,P11,
stim_fb/ques.jpg,stim_fb/negf.jpg,stim_fb/posf.jpg,stim_02/b.jpg,stim_02/a.jpg,1,1,f,5,11,311,6,f,1,0.816422289974,02,02,60.0203427859,PLT_learning_02,A,2014_Feb_17_1906,P11,
stim_fb/ques.jpg,stim_fb/negf.jpg,stim_fb/posf.jpg,stim_02/c.jpg,stim_02/d.jpg,2,2,j,5,12,312,33,j,1,0.699771169498,02,02,60.0203427859,PLT_learning_02,A,2014_Feb_17_1906,P11,
stim_fb/ques.jpg,stim_fb/negf.jpg,stim_fb/posf.jpg,stim_02/d.jpg,stim_02/c.jpg,1,2,f,5,13,313,26,f,1,0.649836268012,02,02,60.0203427859,PLT_learning_02,A,2014_Feb_17_1906,P11,
stim_fb/ques.jpg,stim_fb/negf.jpg,stim_fb/posf.jpg,stim_02/d.jpg,stim_02/c.jpg,1,2,f,5,14,314,24,f,1,0.516545777304,02,02,60.0203427859,PLT_learning_02,A,2014_Feb_17_1906,P11,
stim_fb/ques.jpg,stim_fb/negf.jpg,stim_fb/posf.jpg,stim_02/b.jpg,stim_02/a.jpg,1,1,f,5,15,315,0,f,1,0.616470966117,02,02,60.0203427859,PLT_learning_02,A,2014_Feb_17_1906,P11,
stim_fb/ques.jpg,stim_fb/negf.jpg,stim_fb/posf.jpg,stim_02/a.jpg,stim_02/b.jpg,2,1,j,5,16,316,17,j,1,0.816425363624,02,02,60.0203427859,PLT_learning_02,A,2014_Feb_17_1906,P11,
stim_fb/ques.jpg,stim_fb/posf.jpg,stim_fb/negf.jpg,stim_02/d.jpg,stim_02/c.jpg,1,2,f,5,17,317,27,f,1,0.68314419311,02,02,60.0203427859,PLT_learning_02,A,2014_Feb_17_1906,P11,
stim_fb/ques.jpg,stim_fb/posf.jpg,stim_fb/negf.jpg,stim_02/f.jpg,stim_02/e.jpg,1,3,f,5,18,318,49,j,0,0.933090568152,02,02,60.0203427859,PLT_learning_02,A,2014_Feb_17_1906,P11,
stim_fb/ques.jpg,stim_fb/negf.jpg,stim_fb/posf.jpg,stim_02/c.jpg,stim_02/d.jpg,2,2,j,5,19,319,34,j,1,1.29962219975,02,02,60.0203427859,PLT_learning_02,A,2014_Feb_17_1906,P11,
stim_fb/ques.jpg,stim_fb/negf.jpg,stim_fb/posf.jpg,stim_02/b.jpg,stim_02/a.jpg,1,1,f,5,20,320,7,f,1,0.983041607801,02,02,60.0203427859,PLT_learning_02,A,2014_Feb_17_1906,P11,
stim_fb/ques.jpg,stim_fb/negf.jpg,stim_fb/posf.jpg,stim_02/c.jpg,stim_02/d.jpg,2,2,j,5,21,321,31,j,1,0.749827302699,02,02,60.0203427859,PLT_learning_02,A,2014_Feb_17_1906,P11,
stim_fb/ques.jpg,stim_fb/posf.jpg,stim_fb/negf.jpg,stim_02/e.jpg,stim_02/f.jpg,2,3,j,5,22,322,56,j,1,1.01638705127,02,02,60.0203427859,PLT_learning_02,A,2014_Feb_17_1906,P11,
stim_fb/ques.jpg,stim_fb/negf.jpg,stim_fb/posf.jpg,stim_02/d.jpg,stim_02/c.jpg,1,2,f,5,23,323,22,f,1,0.666485623095,02,02,60.0203427859,PLT_learning_02,A,2014_Feb_17_1906,P11,
stim_fb/ques.jpg,stim_fb/negf.jpg,stim_fb/posf.jpg,stim_02/a.jpg,stim_02/b.jpg,2,1,j,5,24,324,12,j,1,0.916429562073,02,02,60.0203427859,PLT_learning_02,A,2014_Feb_17_1906,P11,
stim_fb/ques.jpg,stim_fb/negf.jpg,stim_fb/posf.jpg,stim_02/d.jpg,stim_02/c.jpg,1,2,f,5,25,325,20,f,1,1.28298755728,02,02,60.0203427859,PLT_learning_02,A,2014_Feb_17_1906,P11,
stim_fb/ques.jpg,stim_fb/negf.jpg,stim_fb/posf.jpg,stim_02/e.jpg,stim_02/f.jpg,2,3,j,5,26,326,53,j,1,1.44960821043,02,02,60.0203427859,PLT_learning_02,A,2014_Feb_17_1906,P11,
stim_fb/ques.jpg,stim_fb/negf.jpg,stim_fb/posf.jpg,stim_02/a.jpg,stim_02/b.jpg,2,1,j,5,27,327,15,j,1,0.799773668718,02,02,60.0203427859,PLT_learning_02,A,2014_Feb_17_1906,P11,
stim_fb/ques.jpg,stim_fb/negf.jpg,stim_fb/posf.jpg,stim_02/e.jpg,stim_02/f.jpg,2,3,j,5,28,328,54,j,1,0.599845971662,02,02,60.0203427859,PLT_learning_02,A,2014_Feb_17_1906,P11,
stim_fb/ques.jpg,stim_fb/posf.jpg,stim_fb/negf.jpg,stim_02/a.jpg,stim_02/b.jpg,2,1,j,5,29,329,19,j,1,1.29965627756,02,02,60.0203427859,PLT_learning_02,A,2014_Feb_17_1906,P11,
stim_fb/ques.jpg,stim_fb/negf.jpg,stim_fb/posf.jpg,stim_02/d.jpg,stim_02/c.jpg,1,2,f,5,30,330,25,f,1,0.783100130449,02,02,60.0203427859,PLT_learning_02,A,2014_Feb_17_1906,P11,
stim_fb/ques.jpg,stim_fb/posf.jpg,stim_fb/negf.jpg,stim_02/e.jpg,stim_02/f.jpg,2,3,j,5,31,331,58,j,1,0.649807681869,02,02,60.0203427859,PLT_learning_02,A,2014_Feb_17_1906,P11,
stim_fb/ques.jpg,stim_fb/posf.jpg,stim_fb/negf.jpg,stim_02/e.jpg,stim_02/f.jpg,2,3,j,5,32,332,59,j,1,1.1829837889,02,02,60.0203427859,PLT_learning_02,A,2014_Feb_17_1906,P11,
stim_fb/ques.jpg,stim_fb/negf.jpg,stim_fb/posf.jpg,stim_02/b.jpg,stim_02/a.jpg,1,1,f,5,33,333,1,f,1,1.04969571321,02,02,60.0203427859,PLT_learning_02,A,2014_Feb_17_1906,P11,
stim_fb/ques.jpg,stim_fb/posf.jpg,stim_fb/negf.jpg,stim_02/c.jpg,stim_02/d.jpg,2,2,j,5,34,334,38,j,1,0.833118847531,02,02,60.0203427859,PLT_learning_02,A,2014_Feb_17_1906,P11,
stim_fb/ques.jpg,stim_fb/negf.jpg,stim_fb/posf.jpg,stim_02/d.jpg,stim_02/c.jpg,1,2,f,5,35,335,21,f,1,0.699883144174,02,02,60.0203427859,PLT_learning_02,A,2014_Feb_17_1906,P11,
stim_fb/ques.jpg,stim_fb/posf.jpg,stim_fb/negf.jpg,stim_02/e.jpg,stim_02/f.jpg,2,3,j,5,36,336,57,f,0,0.899744210404,02,02,60.0203427859,PLT_learning_02,A,2014_Feb_17_1906,P11,
stim_fb/ques.jpg,stim_fb/posf.jpg,stim_fb/negf.jpg,stim_02/a.jpg,stim_02/b.jpg,2,1,j,5,37,337,18,j,1,0.98302000203,02,02,60.0203427859,PLT_learning_02,A,2014_Feb_17_1906,P11,
stim_fb/ques.jpg,stim_fb/negf.jpg,stim_fb/posf.jpg,stim_02/f.jpg,stim_02/e.jpg,1,3,f,5,38,338,45,f,1,1.19964407018,02,02,60.0203427859,PLT_learning_02,A,2014_Feb_17_1906,P11,
stim_fb/ques.jpg,stim_fb/negf.jpg,stim_fb/posf.jpg,stim_02/f.jpg,stim_02/e.jpg,1,3,f,5,39,339,41,f,1,0.766451145288,02,02,60.0203427859,PLT_learning_02,A,2014_Feb_17_1906,P11,
stim_fb/ques.jpg,stim_fb/posf.jpg,stim_fb/negf.jpg,stim_02/d.jpg,stim_02/c.jpg,1,2,f,5,40,340,29,j,0,0.999696295155,02,02,60.0203427859,PLT_learning_02,A,2014_Feb_17_1906,P11,
stim_fb/ques.jpg,stim_fb/posf.jpg,stim_fb/negf.jpg,stim_02/d.jpg,stim_02/c.jpg,1,2,f,5,41,341,28,f,1,0.733109379969,02,02,60.0203427859,PLT_learning_02,A,2014_Feb_17_1906,P11,
stim_fb/ques.jpg,stim_fb/negf.jpg,stim_fb/posf.jpg,stim_02/c.jpg,stim_02/d.jpg,2,2,j,5,42,342,35,j,1,0.633150399056,02,02,60.0203427859,PLT_learning_02,A,2014_Feb_17_1906,P11,
stim_fb/ques.jpg,stim_fb/negf.jpg,stim_fb/posf.jpg,stim_02/c.jpg,stim_02/d.jpg,2,2,j,5,43,343,30,j,1,0.533211252504,02,02,60.0203427859,PLT_learning_02,A,2014_Feb_17_1906,P11,
stim_fb/ques.jpg,stim_fb/posf.jpg,stim_fb/negf.jpg,stim_02/b.jpg,stim_02/a.jpg,1,1,f,5,44,344,8,f,1,0.999676644248,02,02,60.0203427859,PLT_learning_02,A,2014_Feb_17_1906,P11,
stim_fb/ques.jpg,stim_fb/negf.jpg,stim_fb/posf.jpg,stim_02/a.jpg,stim_02/b.jpg,2,1,j,5,45,345,10,j,1,0.79969284557,02,02,60.0203427859,PLT_learning_02,A,2014_Feb_17_1906,P11,
stim_fb/ques.jpg,stim_fb/posf.jpg,stim_fb/negf.jpg,stim_02/c.jpg,stim_02/d.jpg,2,2,j,5,46,346,39,j,1,0.666493983903,02,02,60.0203427859,PLT_learning_02,A,2014_Feb_17_1906,P11,
stim_fb/ques.jpg,stim_fb/negf.jpg,stim_fb/posf.jpg,stim_02/f.jpg,stim_02/e.jpg,1,3,f,5,47,347,43,f,1,0.999691501223,02,02,60.0203427859,PLT_learning_02,A,2014_Feb_17_1906,P11,
stim_fb/ques.jpg,stim_fb/posf.jpg,stim_fb/negf.jpg,stim_02/b.jpg,stim_02/a.jpg,1,1,f,5,48,348,9,f,1,1.41625837303,02,02,60.0203427859,PLT_learning_02,A,2014_Feb_17_1906,P11,
stim_fb/ques.jpg,stim_fb/negf.jpg,stim_fb/posf.jpg,stim_02/e.jpg,stim_02/f.jpg,2,3,j,5,49,349,55,j,1,0.966371486035,02,02,60.0203427859,PLT_learning_02,A,2014_Feb_17_1906,P11,
stim_fb/ques.jpg,stim_fb/negf.jpg,stim_fb/posf.jpg,stim_02/e.jpg,stim_02/f.jpg,2,3,j,5,50,350,52,j,1,1.09969231926,02,02,60.0203427859,PLT_learning_02,A,2014_Feb_17_1906,P11,
stim_fb/ques.jpg,stim_fb/negf.jpg,stim_fb/posf.jpg,stim_02/f.jpg,stim_02/e.jpg,1,3,f,5,51,351,44,f,1,0.683019920828,02,02,60.0203427859,PLT_learning_02,A,2014_Feb_17_1906,P11,
stim_fb/ques.jpg,stim_fb/posf.jpg,stim_fb/negf.jpg,stim_02/c.jpg,stim_02/d.jpg,2,2,j,5,52,352,37,j,1,0.716450043044,02,02,60.0203427859,PLT_learning_02,A,2014_Feb_17_1906,P11,
stim_fb/ques.jpg,stim_fb/negf.jpg,stim_fb/posf.jpg,stim_02/b.jpg,stim_02/a.jpg,1,1,f,5,53,353,4,f,1,0.666528726368,02,02,60.0203427859,PLT_learning_02,A,2014_Feb_17_1906,P11,
stim_fb/ques.jpg,stim_fb/posf.jpg,stim_fb/negf.jpg,stim_02/f.jpg,stim_02/e.jpg,1,3,f,5,54,354,48,f,1,0.749788945237,02,02,60.0203427859,PLT_learning_02,A,2014_Feb_17_1906,P11,
stim_fb/ques.jpg,stim_fb/negf.jpg,stim_fb/posf.jpg,stim_02/a.jpg,stim_02/b.jpg,2,1,j,5,55,355,11,f,0,1.13299239482,02,02,60.0203427859,PLT_learning_02,A,2014_Feb_17_1906,P11,
stim_fb/ques.jpg,stim_fb/negf.jpg,stim_fb/posf.jpg,stim_02/e.jpg,stim_02/f.jpg,2,3,j,5,56,356,50,j,1,1.04971156265,02,02,60.0203427859,PLT_learning_02,A,2014_Feb_17_1906,P11,
stim_fb/ques.jpg,stim_fb/negf.jpg,stim_fb/posf.jpg,stim_02/f.jpg,stim_02/e.jpg,1,3,f,5,57,357,40,f,1,0.649801068409,02,02,60.0203427859,PLT_learning_02,A,2014_Feb_17_1906,P11,
stim_fb/ques.jpg,stim_fb/negf.jpg,stim_fb/posf.jpg,stim_02/f.jpg,stim_02/e.jpg,1,3,f,5,58,358,42,f,1,1.4662286305,02,02,60.0203427859,PLT_learning_02,A,2014_Feb_17_1906,P11,
stim_fb/ques.jpg,stim_fb/posf.jpg,stim_fb/negf.jpg,stim_02/f.jpg,stim_02/e.jpg,1,3,f,5,59,359,47,f,1,0.649823092221,02,02,60.0203427859,PLT_learning_02,A,2014_Feb_17_1906,P11,
