Fb3,Fb2,Fb1,Symbol2,Symbol1,PosCond,Pair,Correct,trials.thisRepN,trials.thisTrialN,trials.thisN,trials.thisIndex,Response.keys,Response.corr,Response.rt,Version,Session Number,frameRate,expName,StimCondition,date,Participant,
stim_fb/ques.jpg,stim_fb/negf.jpg,stim_fb/posf.jpg,stim_01/a.jpg,stim_01/b.jpg,2,1,j,0,0,0,16,j,1,0.983051802061,01,03,60.0218460647,PLT_learning_01,A,2014_Mrz_03_1054,P12,
stim_fb/ques.jpg,stim_fb/negf.jpg,stim_fb/posf.jpg,stim_01/b.jpg,stim_01/a.jpg,1,1,f,0,1,1,7,f,1,0.86641099244,01,03,60.0218460647,PLT_learning_01,A,2014_Mrz_03_1054,P12,
stim_fb/ques.jpg,stim_fb/negf.jpg,stim_fb/posf.jpg,stim_01/f.jpg,stim_01/e.jpg,1,3,f,0,2,2,43,j,0,0.899739534814,01,03,60.0218460647,PLT_learning_01,A,2014_Mrz_03_1054,P12,
stim_fb/ques.jpg,stim_fb/negf.jpg,stim_fb/posf.jpg,stim_01/f.jpg,stim_01/e.jpg,1,3,f,0,3,3,42,f,1,1.08303212093,01,03,60.0218460647,PLT_learning_01,A,2014_Mrz_03_1054,P12,
stim_fb/ques.jpg,stim_fb/negf.jpg,stim_fb/posf.jpg,stim_01/f.jpg,stim_01/e.jpg,1,3,f,0,4,4,45,f,1,0.733153303935,01,03,60.0218460647,PLT_learning_01,A,2014_Mrz_03_1054,P12,
stim_fb/ques.jpg,stim_fb/posf.jpg,stim_fb/negf.jpg,stim_01/c.jpg,stim_01/d.jpg,2,2,j,0,5,5,38,j,1,1.19966109902,01,03,60.0218460647,PLT_learning_01,A,2014_Mrz_03_1054,P12,
stim_fb/ques.jpg,stim_fb/negf.jpg,stim_fb/posf.jpg,stim_01/b.jpg,stim_01/a.jpg,1,1,f,0,6,6,5,f,1,0.666514742426,01,03,60.0218460647,PLT_learning_01,A,2014_Mrz_03_1054,P12,
stim_fb/ques.jpg,stim_fb/negf.jpg,stim_fb/posf.jpg,stim_01/c.jpg,stim_01/d.jpg,2,2,j,0,7,7,35,f,0,0.88306752531,01,03,60.0218460647,PLT_learning_01,A,2014_Mrz_03_1054,P12,
stim_fb/ques.jpg,stim_fb/negf.jpg,stim_fb/posf.jpg,stim_01/b.jpg,stim_01/a.jpg,1,1,f,0,8,8,1,f,1,0.649833373559,01,03,60.0218460647,PLT_learning_01,A,2014_Mrz_03_1054,P12,
stim_fb/ques.jpg,stim_fb/posf.jpg,stim_fb/negf.jpg,stim_01/e.jpg,stim_01/f.jpg,2,3,j,0,9,9,56,j,1,0.76647810497,01,03,60.0218460647,PLT_learning_01,A,2014_Mrz_03_1054,P12,
stim_fb/ques.jpg,stim_fb/posf.jpg,stim_fb/negf.jpg,stim_01/e.jpg,stim_01/f.jpg,2,3,j,0,10,10,59,j,1,0.883086749298,01,03,60.0218460647,PLT_learning_01,A,2014_Mrz_03_1054,P12,
stim_fb/ques.jpg,stim_fb/negf.jpg,stim_fb/posf.jpg,stim_01/c.jpg,stim_01/d.jpg,2,2,j,0,11,11,34,j,1,1.11635555957,01,03,60.0218460647,PLT_learning_01,A,2014_Mrz_03_1054,P12,
stim_fb/ques.jpg,stim_fb/posf.jpg,stim_fb/negf.jpg,stim_01/b.jpg,stim_01/a.jpg,1,1,f,0,12,12,9,f,1,0.566526802531,01,03,60.0218460647,PLT_learning_01,A,2014_Mrz_03_1054,P12,
stim_fb/ques.jpg,stim_fb/posf.jpg,stim_fb/negf.jpg,stim_01/f.jpg,stim_01/e.jpg,1,3,f,0,13,13,48,f,1,0.999768569291,01,03,60.0218460647,PLT_learning_01,A,2014_Mrz_03_1054,P12,
stim_fb/ques.jpg,stim_fb/negf.jpg,stim_fb/posf.jpg,stim_01/f.jpg,stim_01/e.jpg,1,3,f,0,14,14,44,f,1,0.599845889301,01,03,60.0218460647,PLT_learning_01,A,2014_Mrz_03_1054,P12,
stim_fb/ques.jpg,stim_fb/negf.jpg,stim_fb/posf.jpg,stim_01/a.jpg,stim_01/b.jpg,2,1,j,0,15,15,11,j,1,0.816495613175,01,03,60.0218460647,PLT_learning_01,A,2014_Mrz_03_1054,P12,
stim_fb/ques.jpg,stim_fb/posf.jpg,stim_fb/negf.jpg,stim_01/f.jpg,stim_01/e.jpg,1,3,f,0,16,16,46,f,1,0.899733152883,01,03,60.0218460647,PLT_learning_01,A,2014_Mrz_03_1054,P12,
stim_fb/ques.jpg,stim_fb/negf.jpg,stim_fb/posf.jpg,stim_01/a.jpg,stim_01/b.jpg,2,1,j,0,17,17,10,j,1,0.866418799929,01,03,60.0218460647,PLT_learning_01,A,2014_Mrz_03_1054,P12,
stim_fb/ques.jpg,stim_fb/negf.jpg,stim_fb/posf.jpg,stim_01/c.jpg,stim_01/d.jpg,2,2,j,0,18,18,32,j,1,1.03305636295,01,03,60.0218460647,PLT_learning_01,A,2014_Mrz_03_1054,P12,
stim_fb/ques.jpg,stim_fb/negf.jpg,stim_fb/posf.jpg,stim_01/a.jpg,stim_01/b.jpg,2,1,j,0,19,19,13,j,1,0.766430484096,01,03,60.0218460647,PLT_learning_01,A,2014_Mrz_03_1054,P12,
stim_fb/ques.jpg,stim_fb/negf.jpg,stim_fb/posf.jpg,stim_01/f.jpg,stim_01/e.jpg,1,3,f,0,20,20,40,j,0,0.71648477111,01,03,60.0218460647,PLT_learning_01,A,2014_Mrz_03_1054,P12,
stim_fb/ques.jpg,stim_fb/negf.jpg,stim_fb/posf.jpg,stim_01/d.jpg,stim_01/c.jpg,1,2,f,0,21,21,22,f,1,0.949746017496,01,03,60.0218460647,PLT_learning_01,A,2014_Mrz_03_1054,P12,
stim_fb/ques.jpg,stim_fb/posf.jpg,stim_fb/negf.jpg,stim_01/f.jpg,stim_01/e.jpg,1,3,f,0,22,22,47,j,0,1.26629249364,01,03,60.0218460647,PLT_learning_01,A,2014_Mrz_03_1054,P12,
stim_fb/ques.jpg,stim_fb/posf.jpg,stim_fb/negf.jpg,stim_01/d.jpg,stim_01/c.jpg,1,2,f,0,23,23,27,f,1,0.766469109515,01,03,60.0218460647,PLT_learning_01,A,2014_Mrz_03_1054,P12,
stim_fb/ques.jpg,stim_fb/posf.jpg,stim_fb/negf.jpg,stim_01/e.jpg,stim_01/f.jpg,2,3,j,0,24,24,57,f,0,1.01640177894,01,03,60.0218460647,PLT_learning_01,A,2014_Mrz_03_1054,P12,
stim_fb/ques.jpg,stim_fb/posf.jpg,stim_fb/negf.jpg,stim_01/c.jpg,stim_01/d.jpg,2,2,j,0,25,25,39,j,1,1.21630909357,01,03,60.0218460647,PLT_learning_01,A,2014_Mrz_03_1054,P12,
stim_fb/ques.jpg,stim_fb/posf.jpg,stim_fb/negf.jpg,stim_01/d.jpg,stim_01/c.jpg,1,2,f,0,26,26,28,j,0,0.883096427457,01,03,60.0218460647,PLT_learning_01,A,2014_Mrz_03_1054,P12,
stim_fb/ques.jpg,stim_fb/posf.jpg,stim_fb/negf.jpg,stim_01/e.jpg,stim_01/f.jpg,2,3,j,0,27,27,58,j,1,0.733173770023,01,03,60.0218460647,PLT_learning_01,A,2014_Mrz_03_1054,P12,
stim_fb/ques.jpg,stim_fb/negf.jpg,stim_fb/posf.jpg,stim_01/d.jpg,stim_01/c.jpg,1,2,f,0,28,28,26,f,1,0.533153601678,01,03,60.0218460647,PLT_learning_01,A,2014_Mrz_03_1054,P12,
stim_fb/ques.jpg,stim_fb/negf.jpg,stim_fb/posf.jpg,stim_01/e.jpg,stim_01/f.jpg,2,3,j,0,29,29,55,f,0,0.616493071831,01,03,60.0218460647,PLT_learning_01,A,2014_Mrz_03_1054,P12,
stim_fb/ques.jpg,stim_fb/negf.jpg,stim_fb/posf.jpg,stim_01/d.jpg,stim_01/c.jpg,1,2,f,0,30,30,20,f,1,1.0330272202,01,03,60.0218460647,PLT_learning_01,A,2014_Mrz_03_1054,P12,
stim_fb/ques.jpg,stim_fb/negf.jpg,stim_fb/posf.jpg,stim_01/b.jpg,stim_01/a.jpg,1,1,f,0,31,31,2,f,1,0.633161000147,01,03,60.0218460647,PLT_learning_01,A,2014_Mrz_03_1054,P12,
stim_fb/ques.jpg,stim_fb/posf.jpg,stim_fb/negf.jpg,stim_01/d.jpg,stim_01/c.jpg,1,2,f,0,32,32,29,f,1,0.666495789113,01,03,60.0218460647,PLT_learning_01,A,2014_Mrz_03_1054,P12,
stim_fb/ques.jpg,stim_fb/negf.jpg,stim_fb/posf.jpg,stim_01/d.jpg,stim_01/c.jpg,1,2,f,0,33,33,21,f,1,0.533167622678,01,03,60.0218460647,PLT_learning_01,A,2014_Mrz_03_1054,P12,
stim_fb/ques.jpg,stim_fb/negf.jpg,stim_fb/posf.jpg,stim_01/a.jpg,stim_01/b.jpg,2,1,j,0,34,34,12,j,1,0.63312915365,01,03,60.0218460647,PLT_learning_01,A,2014_Mrz_03_1054,P12,
stim_fb/ques.jpg,stim_fb/negf.jpg,stim_fb/posf.jpg,stim_01/e.jpg,stim_01/f.jpg,2,3,j,0,35,35,50,j,1,0.83310719283,01,03,60.0218460647,PLT_learning_01,A,2014_Mrz_03_1054,P12,
stim_fb/ques.jpg,stim_fb/negf.jpg,stim_fb/posf.jpg,stim_01/e.jpg,stim_01/f.jpg,2,3,j,0,36,36,51,f,0,0.816444966748,01,03,60.0218460647,PLT_learning_01,A,2014_Mrz_03_1054,P12,
stim_fb/ques.jpg,stim_fb/posf.jpg,stim_fb/negf.jpg,stim_01/a.jpg,stim_01/b.jpg,2,1,j,0,37,37,19,j,1,0.583228646509,01,03,60.0218460647,PLT_learning_01,A,2014_Mrz_03_1054,P12,
stim_fb/ques.jpg,stim_fb/negf.jpg,stim_fb/posf.jpg,stim_01/a.jpg,stim_01/b.jpg,2,1,j,0,38,38,15,j,1,0.583218823989,01,03,60.0218460647,PLT_learning_01,A,2014_Mrz_03_1054,P12,
stim_fb/ques.jpg,stim_fb/negf.jpg,stim_fb/posf.jpg,stim_01/f.jpg,stim_01/e.jpg,1,3,f,0,39,39,41,j,0,0.999692644764,01,03,60.0218460647,PLT_learning_01,A,2014_Mrz_03_1054,P12,
stim_fb/ques.jpg,stim_fb/negf.jpg,stim_fb/posf.jpg,stim_01/d.jpg,stim_01/c.jpg,1,2,f,0,40,40,23,f,1,0.549844654719,01,03,60.0218460647,PLT_learning_01,A,2014_Mrz_03_1054,P12,
stim_fb/ques.jpg,stim_fb/negf.jpg,stim_fb/posf.jpg,stim_01/b.jpg,stim_01/a.jpg,1,1,f,0,41,41,4,f,1,0.516533823557,01,03,60.0218460647,PLT_learning_01,A,2014_Mrz_03_1054,P12,
stim_fb/ques.jpg,stim_fb/negf.jpg,stim_fb/posf.jpg,stim_01/d.jpg,stim_01/c.jpg,1,2,f,0,42,42,24,j,0,0.649820832253,01,03,60.0218460647,PLT_learning_01,A,2014_Mrz_03_1054,P12,
stim_fb/ques.jpg,stim_fb/negf.jpg,stim_fb/posf.jpg,stim_01/b.jpg,stim_01/a.jpg,1,1,f,0,43,43,0,f,1,0.533201222552,01,03,60.0218460647,PLT_learning_01,A,2014_Mrz_03_1054,P12,
stim_fb/ques.jpg,stim_fb/negf.jpg,stim_fb/posf.jpg,stim_01/c.jpg,stim_01/d.jpg,2,2,j,0,44,44,30,j,1,0.566533575437,01,03,60.0218460647,PLT_learning_01,A,2014_Mrz_03_1054,P12,
stim_fb/ques.jpg,stim_fb/negf.jpg,stim_fb/posf.jpg,stim_01/c.jpg,stim_01/d.jpg,2,2,j,0,45,45,33,j,1,0.766471100485,01,03,60.0218460647,PLT_learning_01,A,2014_Mrz_03_1054,P12,
stim_fb/ques.jpg,stim_fb/negf.jpg,stim_fb/posf.jpg,stim_01/d.jpg,stim_01/c.jpg,1,2,f,0,46,46,25,f,1,0.549900257518,01,03,60.0218460647,PLT_learning_01,A,2014_Mrz_03_1054,P12,
stim_fb/ques.jpg,stim_fb/posf.jpg,stim_fb/negf.jpg,stim_01/a.jpg,stim_01/b.jpg,2,1,j,0,47,47,18,j,1,0.833103120665,01,03,60.0218460647,PLT_learning_01,A,2014_Mrz_03_1054,P12,
stim_fb/ques.jpg,stim_fb/negf.jpg,stim_fb/posf.jpg,stim_01/c.jpg,stim_01/d.jpg,2,2,j,0,48,48,31,j,1,0.833099469551,01,03,60.0218460647,PLT_learning_01,A,2014_Mrz_03_1054,P12,
stim_fb/ques.jpg,stim_fb/negf.jpg,stim_fb/posf.jpg,stim_01/e.jpg,stim_01/f.jpg,2,3,j,0,49,49,53,f,0,0.983065802008,01,03,60.0218460647,PLT_learning_01,A,2014_Mrz_03_1054,P12,
stim_fb/ques.jpg,stim_fb/negf.jpg,stim_fb/posf.jpg,stim_01/a.jpg,stim_01/b.jpg,2,1,j,0,50,50,17,j,1,0.699821233755,01,03,60.0218460647,PLT_learning_01,A,2014_Mrz_03_1054,P12,
stim_fb/ques.jpg,stim_fb/negf.jpg,stim_fb/posf.jpg,stim_01/e.jpg,stim_01/f.jpg,2,3,j,0,51,51,54,j,1,1.1163720768,01,03,60.0218460647,PLT_learning_01,A,2014_Mrz_03_1054,P12,
stim_fb/ques.jpg,stim_fb/posf.jpg,stim_fb/negf.jpg,stim_01/b.jpg,stim_01/a.jpg,1,1,f,0,52,52,8,f,1,0.66646248999,01,03,60.0218460647,PLT_learning_01,A,2014_Mrz_03_1054,P12,
stim_fb/ques.jpg,stim_fb/negf.jpg,stim_fb/posf.jpg,stim_01/b.jpg,stim_01/a.jpg,1,1,f,0,53,53,3,f,1,0.749823304424,01,03,60.0218460647,PLT_learning_01,A,2014_Mrz_03_1054,P12,
stim_fb/ques.jpg,stim_fb/negf.jpg,stim_fb/posf.jpg,stim_01/c.jpg,stim_01/d.jpg,2,2,j,0,54,54,36,j,1,0.716498482336,01,03,60.0218460647,PLT_learning_01,A,2014_Mrz_03_1054,P12,
stim_fb/ques.jpg,stim_fb/negf.jpg,stim_fb/posf.jpg,stim_01/b.jpg,stim_01/a.jpg,1,1,f,0,55,55,6,f,1,0.599879786918,01,03,60.0218460647,PLT_learning_01,A,2014_Mrz_03_1054,P12,
stim_fb/ques.jpg,stim_fb/negf.jpg,stim_fb/posf.jpg,stim_01/a.jpg,stim_01/b.jpg,2,1,j,0,56,56,14,f,0,0.799817071364,01,03,60.0218460647,PLT_learning_01,A,2014_Mrz_03_1054,P12,
stim_fb/ques.jpg,stim_fb/posf.jpg,stim_fb/negf.jpg,stim_01/c.jpg,stim_01/d.jpg,2,2,j,0,57,57,37,f,0,0.633143878406,01,03,60.0218460647,PLT_learning_01,A,2014_Mrz_03_1054,P12,
stim_fb/ques.jpg,stim_fb/posf.jpg,stim_fb/negf.jpg,stim_01/f.jpg,stim_01/e.jpg,1,3,f,0,58,58,49,f,1,0.849764943741,01,03,60.0218460647,PLT_learning_01,A,2014_Mrz_03_1054,P12,
stim_fb/ques.jpg,stim_fb/negf.jpg,stim_fb/posf.jpg,stim_01/e.jpg,stim_01/f.jpg,2,3,j,0,59,59,52,f,0,0.766437768279,01,03,60.0218460647,PLT_learning_01,A,2014_Mrz_03_1054,P12,
stim_fb/ques.jpg,stim_fb/negf.jpg,stim_fb/posf.jpg,stim_01/a.jpg,stim_01/b.jpg,2,1,j,1,0,60,14,j,1,0.783119834888,01,03,60.0218460647,PLT_learning_01,A,2014_Mrz_03_1054,P12,
stim_fb/ques.jpg,stim_fb/negf.jpg,stim_fb/posf.jpg,stim_01/f.jpg,stim_01/e.jpg,1,3,f,1,1,61,40,f,1,0.983086063586,01,03,60.0218460647,PLT_learning_01,A,2014_Mrz_03_1054,P12,
stim_fb/ques.jpg,stim_fb/posf.jpg,stim_fb/negf.jpg,stim_01/e.jpg,stim_01/f.jpg,2,3,j,1,2,62,58,j,1,0.84979060981,01,03,60.0218460647,PLT_learning_01,A,2014_Mrz_03_1054,P12,
stim_fb/ques.jpg,stim_fb/negf.jpg,stim_fb/posf.jpg,stim_01/f.jpg,stim_01/e.jpg,1,3,f,1,3,63,45,f,1,0.683174893327,01,03,60.0218460647,PLT_learning_01,A,2014_Mrz_03_1054,P12,
stim_fb/ques.jpg,stim_fb/negf.jpg,stim_fb/posf.jpg,stim_01/b.jpg,stim_01/a.jpg,1,1,f,1,4,64,5,f,1,0.616540704734,01,03,60.0218460647,PLT_learning_01,A,2014_Mrz_03_1054,P12,
stim_fb/ques.jpg,stim_fb/negf.jpg,stim_fb/posf.jpg,stim_01/f.jpg,stim_01/e.jpg,1,3,f,1,5,65,42,f,1,0.833108567261,01,03,60.0218460647,PLT_learning_01,A,2014_Mrz_03_1054,P12,
stim_fb/ques.jpg,stim_fb/negf.jpg,stim_fb/posf.jpg,stim_01/c.jpg,stim_01/d.jpg,2,2,j,1,6,66,35,j,1,0.74979661881,01,03,60.0218460647,PLT_learning_01,A,2014_Mrz_03_1054,P12,
stim_fb/ques.jpg,stim_fb/negf.jpg,stim_fb/posf.jpg,stim_01/e.jpg,stim_01/f.jpg,2,3,j,1,7,67,51,j,1,0.749812227773,01,03,60.0218460647,PLT_learning_01,A,2014_Mrz_03_1054,P12,
stim_fb/ques.jpg,stim_fb/posf.jpg,stim_fb/negf.jpg,stim_01/f.jpg,stim_01/e.jpg,1,3,f,1,8,68,49,f,1,1.01635118063,01,03,60.0218460647,PLT_learning_01,A,2014_Mrz_03_1054,P12,
stim_fb/ques.jpg,stim_fb/negf.jpg,stim_fb/posf.jpg,stim_01/c.jpg,stim_01/d.jpg,2,2,j,1,9,69,33,f,0,0.633128095007,01,03,60.0218460647,PLT_learning_01,A,2014_Mrz_03_1054,P12,
stim_fb/ques.jpg,stim_fb/negf.jpg,stim_fb/posf.jpg,stim_01/a.jpg,stim_01/b.jpg,2,1,j,1,10,70,16,j,1,0.716464686975,01,03,60.0218460647,PLT_learning_01,A,2014_Mrz_03_1054,P12,
stim_fb/ques.jpg,stim_fb/posf.jpg,stim_fb/negf.jpg,stim_01/d.jpg,stim_01/c.jpg,1,2,f,1,11,71,29,f,1,0.599833784083,01,03,60.0218460647,PLT_learning_01,A,2014_Mrz_03_1054,P12,
stim_fb/ques.jpg,stim_fb/negf.jpg,stim_fb/posf.jpg,stim_01/d.jpg,stim_01/c.jpg,1,2,f,1,12,72,23,f,1,0.616372997094,01,03,60.0218460647,PLT_learning_01,A,2014_Mrz_03_1054,P12,
stim_fb/ques.jpg,stim_fb/negf.jpg,stim_fb/posf.jpg,stim_01/a.jpg,stim_01/b.jpg,2,1,j,1,13,73,17,j,1,0.733170374547,01,03,60.0218460647,PLT_learning_01,A,2014_Mrz_03_1054,P12,
stim_fb/ques.jpg,stim_fb/posf.jpg,stim_fb/negf.jpg,stim_01/f.jpg,stim_01/e.jpg,1,3,f,1,14,74,47,f,1,0.916381905331,01,03,60.0218460647,PLT_learning_01,A,2014_Mrz_03_1054,P12,
stim_fb/ques.jpg,stim_fb/negf.jpg,stim_fb/posf.jpg,stim_01/e.jpg,stim_01/f.jpg,2,3,j,1,15,75,55,f,0,0.449899231958,01,03,60.0218460647,PLT_learning_01,A,2014_Mrz_03_1054,P12,
stim_fb/ques.jpg,stim_fb/posf.jpg,stim_fb/negf.jpg,stim_01/a.jpg,stim_01/b.jpg,2,1,j,1,16,76,18,j,1,0.966385753437,01,03,60.0218460647,PLT_learning_01,A,2014_Mrz_03_1054,P12,
stim_fb/ques.jpg,stim_fb/posf.jpg,stim_fb/negf.jpg,stim_01/d.jpg,stim_01/c.jpg,1,2,f,1,17,77,27,f,1,0.749806567644,01,03,60.0218460647,PLT_learning_01,A,2014_Mrz_03_1054,P12,
stim_fb/ques.jpg,stim_fb/negf.jpg,stim_fb/posf.jpg,stim_01/e.jpg,stim_01/f.jpg,2,3,j,1,18,78,52,f,0,0.799794824832,01,03,60.0218460647,PLT_learning_01,A,2014_Mrz_03_1054,P12,
stim_fb/ques.jpg,stim_fb/posf.jpg,stim_fb/negf.jpg,stim_01/c.jpg,stim_01/d.jpg,2,2,j,1,19,79,38,f,0,0.71646782982,01,03,60.0218460647,PLT_learning_01,A,2014_Mrz_03_1054,P12,
stim_fb/ques.jpg,stim_fb/negf.jpg,stim_fb/posf.jpg,stim_01/b.jpg,stim_01/a.jpg,1,1,f,1,20,80,6,f,1,0.549887379371,01,03,60.0218460647,PLT_learning_01,A,2014_Mrz_03_1054,P12,
stim_fb/ques.jpg,stim_fb/negf.jpg,stim_fb/posf.jpg,stim_01/f.jpg,stim_01/e.jpg,1,3,f,1,21,81,43,f,1,0.966283314724,01,03,60.0218460647,PLT_learning_01,A,2014_Mrz_03_1054,P12,
stim_fb/ques.jpg,stim_fb/negf.jpg,stim_fb/posf.jpg,stim_01/f.jpg,stim_01/e.jpg,1,3,f,1,22,82,44,j,0,0.866505623663,01,03,60.0218460647,PLT_learning_01,A,2014_Mrz_03_1054,P12,
stim_fb/ques.jpg,stim_fb/negf.jpg,stim_fb/posf.jpg,stim_01/c.jpg,stim_01/d.jpg,2,2,j,1,23,83,36,j,1,0.616544211488,01,03,60.0218460647,PLT_learning_01,A,2014_Mrz_03_1054,P12,
stim_fb/ques.jpg,stim_fb/posf.jpg,stim_fb/negf.jpg,stim_01/b.jpg,stim_01/a.jpg,1,1,f,1,24,84,9,f,1,0.549819298424,01,03,60.0218460647,PLT_learning_01,A,2014_Mrz_03_1054,P12,
stim_fb/ques.jpg,stim_fb/negf.jpg,stim_fb/posf.jpg,stim_01/c.jpg,stim_01/d.jpg,2,2,j,1,25,85,34,j,1,0.683147347566,01,03,60.0218460647,PLT_learning_01,A,2014_Mrz_03_1054,P12,
stim_fb/ques.jpg,stim_fb/negf.jpg,stim_fb/posf.jpg,stim_01/c.jpg,stim_01/d.jpg,2,2,j,1,26,86,31,j,1,0.466555861069,01,03,60.0218460647,PLT_learning_01,A,2014_Mrz_03_1054,P12,
stim_fb/ques.jpg,stim_fb/negf.jpg,stim_fb/posf.jpg,stim_01/d.jpg,stim_01/c.jpg,1,2,f,1,27,87,25,f,1,0.566522910816,01,03,60.0218460647,PLT_learning_01,A,2014_Mrz_03_1054,P12,
stim_fb/ques.jpg,stim_fb/negf.jpg,stim_fb/posf.jpg,stim_01/a.jpg,stim_01/b.jpg,2,1,j,1,28,88,15,j,1,0.799800515036,01,03,60.0218460647,PLT_learning_01,A,2014_Mrz_03_1054,P12,
stim_fb/ques.jpg,stim_fb/negf.jpg,stim_fb/posf.jpg,stim_01/b.jpg,stim_01/a.jpg,1,1,f,1,29,89,2,j,0,0.866408739817,01,03,60.0218460647,PLT_learning_01,A,2014_Mrz_03_1054,P12,
stim_fb/ques.jpg,stim_fb/negf.jpg,stim_fb/posf.jpg,stim_01/b.jpg,stim_01/a.jpg,1,1,f,1,30,90,1,j,0,0.683151425746,01,03,60.0218460647,PLT_learning_01,A,2014_Mrz_03_1054,P12,
stim_fb/ques.jpg,stim_fb/negf.jpg,stim_fb/posf.jpg,stim_01/b.jpg,stim_01/a.jpg,1,1,f,1,31,91,7,j,0,0.733140188195,01,03,60.0218460647,PLT_learning_01,A,2014_Mrz_03_1054,P12,
stim_fb/ques.jpg,stim_fb/negf.jpg,stim_fb/posf.jpg,stim_01/b.jpg,stim_01/a.jpg,1,1,f,1,32,92,0,f,1,0.416580361728,01,03,60.0218460647,PLT_learning_01,A,2014_Mrz_03_1054,P12,
stim_fb/ques.jpg,stim_fb/negf.jpg,stim_fb/posf.jpg,stim_01/a.jpg,stim_01/b.jpg,2,1,j,1,33,93,10,j,1,0.666491277852,01,03,60.0218460647,PLT_learning_01,A,2014_Mrz_03_1054,P12,
stim_fb/ques.jpg,stim_fb/negf.jpg,stim_fb/posf.jpg,stim_01/e.jpg,stim_01/f.jpg,2,3,j,1,34,94,50,j,1,0.916429550265,01,03,60.0218460647,PLT_learning_01,A,2014_Mrz_03_1054,P12,
stim_fb/ques.jpg,stim_fb/posf.jpg,stim_fb/negf.jpg,stim_01/d.jpg,stim_01/c.jpg,1,2,f,1,35,95,28,f,1,0.533214112729,01,03,60.0218460647,PLT_learning_01,A,2014_Mrz_03_1054,P12,
stim_fb/ques.jpg,stim_fb/negf.jpg,stim_fb/posf.jpg,stim_01/a.jpg,stim_01/b.jpg,2,1,j,1,36,96,11,j,1,0.616555167838,01,03,60.0218460647,PLT_learning_01,A,2014_Mrz_03_1054,P12,
stim_fb/ques.jpg,stim_fb/negf.jpg,stim_fb/posf.jpg,stim_01/f.jpg,stim_01/e.jpg,1,3,f,1,37,97,41,f,1,0.783157269334,01,03,60.0218460647,PLT_learning_01,A,2014_Mrz_03_1054,P12,
stim_fb/ques.jpg,stim_fb/posf.jpg,stim_fb/negf.jpg,stim_01/f.jpg,stim_01/e.jpg,1,3,f,1,38,98,48,j,0,0.983046556968,01,03,60.0218460647,PLT_learning_01,A,2014_Mrz_03_1054,P12,
stim_fb/ques.jpg,stim_fb/negf.jpg,stim_fb/posf.jpg,stim_01/d.jpg,stim_01/c.jpg,1,2,f,1,39,99,22,f,1,0.63319552934,01,03,60.0218460647,PLT_learning_01,A,2014_Mrz_03_1054,P12,
stim_fb/ques.jpg,stim_fb/negf.jpg,stim_fb/posf.jpg,stim_01/a.jpg,stim_01/b.jpg,2,1,j,1,40,100,13,j,1,0.549845427649,01,03,60.0218460647,PLT_learning_01,A,2014_Mrz_03_1054,P12,
stim_fb/ques.jpg,stim_fb/negf.jpg,stim_fb/posf.jpg,stim_01/e.jpg,stim_01/f.jpg,2,3,j,1,41,101,53,j,1,0.616479535039,01,03,60.0218460647,PLT_learning_01,A,2014_Mrz_03_1054,P12,
stim_fb/ques.jpg,stim_fb/posf.jpg,stim_fb/negf.jpg,stim_01/c.jpg,stim_01/d.jpg,2,2,j,1,42,102,39,j,1,0.599869979436,01,03,60.0218460647,PLT_learning_01,A,2014_Mrz_03_1054,P12,
stim_fb/ques.jpg,stim_fb/posf.jpg,stim_fb/negf.jpg,stim_01/e.jpg,stim_01/f.jpg,2,3,j,1,43,103,56,j,1,0.649841499844,01,03,60.0218460647,PLT_learning_01,A,2014_Mrz_03_1054,P12,
stim_fb/ques.jpg,stim_fb/negf.jpg,stim_fb/posf.jpg,stim_01/d.jpg,stim_01/c.jpg,1,2,f,1,44,104,26,f,1,0.64987817339,01,03,60.0218460647,PLT_learning_01,A,2014_Mrz_03_1054,P12,
stim_fb/ques.jpg,stim_fb/negf.jpg,stim_fb/posf.jpg,stim_01/c.jpg,stim_01/d.jpg,2,2,j,1,45,105,30,j,1,0.616492741005,01,03,60.0218460647,PLT_learning_01,A,2014_Mrz_03_1054,P12,
stim_fb/ques.jpg,stim_fb/negf.jpg,stim_fb/posf.jpg,stim_01/e.jpg,stim_01/f.jpg,2,3,j,1,46,106,54,j,1,0.866478047827,01,03,60.0218460647,PLT_learning_01,A,2014_Mrz_03_1054,P12,
stim_fb/ques.jpg,stim_fb/posf.jpg,stim_fb/negf.jpg,stim_01/f.jpg,stim_01/e.jpg,1,3,f,1,47,107,46,f,1,0.899813591678,01,03,60.0218460647,PLT_learning_01,A,2014_Mrz_03_1054,P12,
stim_fb/ques.jpg,stim_fb/posf.jpg,stim_fb/negf.jpg,stim_01/e.jpg,stim_01/f.jpg,2,3,j,1,48,108,59,j,1,0.949751864091,01,03,60.0218460647,PLT_learning_01,A,2014_Mrz_03_1054,P12,
stim_fb/ques.jpg,stim_fb/posf.jpg,stim_fb/negf.jpg,stim_01/e.jpg,stim_01/f.jpg,2,3,j,1,49,109,57,j,1,0.533172007624,01,03,60.0218460647,PLT_learning_01,A,2014_Mrz_03_1054,P12,
stim_fb/ques.jpg,stim_fb/negf.jpg,stim_fb/posf.jpg,stim_01/c.jpg,stim_01/d.jpg,2,2,j,1,50,110,32,j,1,0.899803315025,01,03,60.0218460647,PLT_learning_01,A,2014_Mrz_03_1054,P12,
stim_fb/ques.jpg,stim_fb/posf.jpg,stim_fb/negf.jpg,stim_01/c.jpg,stim_01/d.jpg,2,2,j,1,51,111,37,j,1,0.483221398415,01,03,60.0218460647,PLT_learning_01,A,2014_Mrz_03_1054,P12,
stim_fb/ques.jpg,stim_fb/negf.jpg,stim_fb/posf.jpg,stim_01/b.jpg,stim_01/a.jpg,1,1,f,1,52,112,4,f,1,0.799761552776,01,03,60.0218460647,PLT_learning_01,A,2014_Mrz_03_1054,P12,
stim_fb/ques.jpg,stim_fb/posf.jpg,stim_fb/negf.jpg,stim_01/a.jpg,stim_01/b.jpg,2,1,j,1,53,113,19,j,1,0.633175809114,01,03,60.0218460647,PLT_learning_01,A,2014_Mrz_03_1054,P12,
stim_fb/ques.jpg,stim_fb/negf.jpg,stim_fb/posf.jpg,stim_01/d.jpg,stim_01/c.jpg,1,2,f,1,54,114,20,f,1,0.49981521874,01,03,60.0218460647,PLT_learning_01,A,2014_Mrz_03_1054,P12,
stim_fb/ques.jpg,stim_fb/posf.jpg,stim_fb/negf.jpg,stim_01/b.jpg,stim_01/a.jpg,1,1,f,1,55,115,8,f,1,0.499939900978,01,03,60.0218460647,PLT_learning_01,A,2014_Mrz_03_1054,P12,
stim_fb/ques.jpg,stim_fb/negf.jpg,stim_fb/posf.jpg,stim_01/d.jpg,stim_01/c.jpg,1,2,f,1,56,116,24,f,1,0.583079546318,01,03,60.0218460647,PLT_learning_01,A,2014_Mrz_03_1054,P12,
stim_fb/ques.jpg,stim_fb/negf.jpg,stim_fb/posf.jpg,stim_01/d.jpg,stim_01/c.jpg,1,2,f,1,57,117,21,j,0,0.833076468134,01,03,60.0218460647,PLT_learning_01,A,2014_Mrz_03_1054,P12,
stim_fb/ques.jpg,stim_fb/negf.jpg,stim_fb/posf.jpg,stim_01/b.jpg,stim_01/a.jpg,1,1,f,1,58,118,3,f,1,0.899737616024,01,03,60.0218460647,PLT_learning_01,A,2014_Mrz_03_1054,P12,
stim_fb/ques.jpg,stim_fb/negf.jpg,stim_fb/posf.jpg,stim_01/a.jpg,stim_01/b.jpg,2,1,j,1,59,119,12,j,1,0.949715343927,01,03,60.0218460647,PLT_learning_01,A,2014_Mrz_03_1054,P12,
stim_fb/ques.jpg,stim_fb/posf.jpg,stim_fb/negf.jpg,stim_01/e.jpg,stim_01/f.jpg,2,3,j,2,0,120,57,j,1,0.716477053846,01,03,60.0218460647,PLT_learning_01,A,2014_Mrz_03_1054,P12,
stim_fb/ques.jpg,stim_fb/negf.jpg,stim_fb/posf.jpg,stim_01/c.jpg,stim_01/d.jpg,2,2,j,2,1,121,32,j,1,0.733100759772,01,03,60.0218460647,PLT_learning_01,A,2014_Mrz_03_1054,P12,
stim_fb/ques.jpg,stim_fb/posf.jpg,stim_fb/negf.jpg,stim_01/e.jpg,stim_01/f.jpg,2,3,j,2,2,122,59,f,0,0.999756849034,01,03,60.0218460647,PLT_learning_01,A,2014_Mrz_03_1054,P12,
stim_fb/ques.jpg,stim_fb/posf.jpg,stim_fb/negf.jpg,stim_01/b.jpg,stim_01/a.jpg,1,1,f,2,3,123,9,f,1,0.849650044925,01,03,60.0218460647,PLT_learning_01,A,2014_Mrz_03_1054,P12,
stim_fb/ques.jpg,stim_fb/posf.jpg,stim_fb/negf.jpg,stim_01/e.jpg,stim_01/f.jpg,2,3,j,2,4,124,56,f,0,0.916405935316,01,03,60.0218460647,PLT_learning_01,A,2014_Mrz_03_1054,P12,
stim_fb/ques.jpg,stim_fb/posf.jpg,stim_fb/negf.jpg,stim_01/f.jpg,stim_01/e.jpg,1,3,f,2,5,125,46,j,0,0.666513792054,01,03,60.0218460647,PLT_learning_01,A,2014_Mrz_03_1054,P12,
stim_fb/ques.jpg,stim_fb/negf.jpg,stim_fb/posf.jpg,stim_01/f.jpg,stim_01/e.jpg,1,3,f,2,6,126,44,f,1,0.933070591464,01,03,60.0218460647,PLT_learning_01,A,2014_Mrz_03_1054,P12,
stim_fb/ques.jpg,stim_fb/posf.jpg,stim_fb/negf.jpg,stim_01/c.jpg,stim_01/d.jpg,2,2,j,2,7,127,37,j,1,0.766508420645,01,03,60.0218460647,PLT_learning_01,A,2014_Mrz_03_1054,P12,
stim_fb/ques.jpg,stim_fb/negf.jpg,stim_fb/posf.jpg,stim_01/f.jpg,stim_01/e.jpg,1,3,f,2,8,128,43,j,0,1.14968297713,01,03,60.0218460647,PLT_learning_01,A,2014_Mrz_03_1054,P12,
stim_fb/ques.jpg,stim_fb/negf.jpg,stim_fb/posf.jpg,stim_01/d.jpg,stim_01/c.jpg,1,2,f,2,9,129,24,f,1,1.19966788095,01,03,60.0218460647,PLT_learning_01,A,2014_Mrz_03_1054,P12,
stim_fb/ques.jpg,stim_fb/negf.jpg,stim_fb/posf.jpg,stim_01/c.jpg,stim_01/d.jpg,2,2,j,2,10,130,33,j,1,0.949921947662,01,03,60.0218460647,PLT_learning_01,A,2014_Mrz_03_1054,P12,
stim_fb/ques.jpg,stim_fb/negf.jpg,stim_fb/posf.jpg,stim_01/e.jpg,stim_01/f.jpg,2,3,j,2,11,131,54,f,0,0.899760443006,01,03,60.0218460647,PLT_learning_01,A,2014_Mrz_03_1054,P12,
stim_fb/ques.jpg,stim_fb/negf.jpg,stim_fb/posf.jpg,stim_01/e.jpg,stim_01/f.jpg,2,3,j,2,12,132,55,f,0,0.599855904301,01,03,60.0218460647,PLT_learning_01,A,2014_Mrz_03_1054,P12,
stim_fb/ques.jpg,stim_fb/negf.jpg,stim_fb/posf.jpg,stim_01/b.jpg,stim_01/a.jpg,1,1,f,2,13,133,4,f,1,0.86643716377,01,03,60.0218460647,PLT_learning_01,A,2014_Mrz_03_1054,P12,
stim_fb/ques.jpg,stim_fb/negf.jpg,stim_fb/posf.jpg,stim_01/f.jpg,stim_01/e.jpg,1,3,f,2,14,134,40,j,0,0.783091516197,01,03,60.0218460647,PLT_learning_01,A,2014_Mrz_03_1054,P12,
stim_fb/ques.jpg,stim_fb/negf.jpg,stim_fb/posf.jpg,stim_01/b.jpg,stim_01/a.jpg,1,1,f,2,15,135,0,f,1,0.516543697204,01,03,60.0218460647,PLT_learning_01,A,2014_Mrz_03_1054,P12,
stim_fb/ques.jpg,stim_fb/posf.jpg,stim_fb/negf.jpg,stim_01/a.jpg,stim_01/b.jpg,2,1,j,2,16,136,18,j,1,0.733165643739,01,03,60.0218460647,PLT_learning_01,A,2014_Mrz_03_1054,P12,
stim_fb/ques.jpg,stim_fb/negf.jpg,stim_fb/posf.jpg,stim_01/d.jpg,stim_01/c.jpg,1,2,f,2,17,137,20,f,1,0.783123642392,01,03,60.0218460647,PLT_learning_01,A,2014_Mrz_03_1054,P12,
stim_fb/ques.jpg,stim_fb/negf.jpg,stim_fb/posf.jpg,stim_01/a.jpg,stim_01/b.jpg,2,1,j,2,18,138,11,j,1,0.766469533573,01,03,60.0218460647,PLT_learning_01,A,2014_Mrz_03_1054,P12,
stim_fb/ques.jpg,stim_fb/posf.jpg,stim_fb/negf.jpg,stim_01/d.jpg,stim_01/c.jpg,1,2,f,2,19,139,27,j,0,0.999724025098,01,03,60.0218460647,PLT_learning_01,A,2014_Mrz_03_1054,P12,
stim_fb/ques.jpg,stim_fb/negf.jpg,stim_fb/posf.jpg,stim_01/b.jpg,stim_01/a.jpg,1,1,f,2,20,140,1,f,1,0.63192482735,01,03,60.0218460647,PLT_learning_01,A,2014_Mrz_03_1054,P12,
stim_fb/ques.jpg,stim_fb/negf.jpg,stim_fb/posf.jpg,stim_01/a.jpg,stim_01/b.jpg,2,1,j,2,21,141,10,j,1,0.54986484111,01,03,60.0218460647,PLT_learning_01,A,2014_Mrz_03_1054,P12,
stim_fb/ques.jpg,stim_fb/negf.jpg,stim_fb/posf.jpg,stim_01/c.jpg,stim_01/d.jpg,2,2,j,2,22,142,35,j,1,0.699690882365,01,03,60.0218460647,PLT_learning_01,A,2014_Mrz_03_1054,P12,
stim_fb/ques.jpg,stim_fb/negf.jpg,stim_fb/posf.jpg,stim_01/e.jpg,stim_01/f.jpg,2,3,j,2,23,143,51,f,0,0.716507727414,01,03,60.0218460647,PLT_learning_01,A,2014_Mrz_03_1054,P12,
stim_fb/ques.jpg,stim_fb/posf.jpg,stim_fb/negf.jpg,stim_01/d.jpg,stim_01/c.jpg,1,2,f,2,24,144,29,f,1,0.61652209127,01,03,60.0218460647,PLT_learning_01,A,2014_Mrz_03_1054,P12,
stim_fb/ques.jpg,stim_fb/negf.jpg,stim_fb/posf.jpg,stim_01/b.jpg,stim_01/a.jpg,1,1,f,2,25,145,5,f,1,0.49985845166,01,03,60.0218460647,PLT_learning_01,A,2014_Mrz_03_1054,P12,
stim_fb/ques.jpg,stim_fb/posf.jpg,stim_fb/negf.jpg,stim_01/d.jpg,stim_01/c.jpg,1,2,f,2,26,146,28,f,1,0.566518817598,01,03,60.0218460647,PLT_learning_01,A,2014_Mrz_03_1054,P12,
stim_fb/ques.jpg,stim_fb/negf.jpg,stim_fb/posf.jpg,stim_01/f.jpg,stim_01/e.jpg,1,3,f,2,27,147,45,f,1,0.783152373111,01,03,60.0218460647,PLT_learning_01,A,2014_Mrz_03_1054,P12,
stim_fb/ques.jpg,stim_fb/posf.jpg,stim_fb/negf.jpg,stim_01/a.jpg,stim_01/b.jpg,2,1,j,2,28,148,19,j,1,0.599822722471,01,03,60.0218460647,PLT_learning_01,A,2014_Mrz_03_1054,P12,
stim_fb/ques.jpg,stim_fb/posf.jpg,stim_fb/negf.jpg,stim_01/f.jpg,stim_01/e.jpg,1,3,f,2,29,149,49,j,0,0.616511387551,01,03,60.0218460647,PLT_learning_01,A,2014_Mrz_03_1054,P12,
stim_fb/ques.jpg,stim_fb/posf.jpg,stim_fb/negf.jpg,stim_01/f.jpg,stim_01/e.jpg,1,3,f,2,30,150,48,f,1,0.983080785411,01,03,60.0218460647,PLT_learning_01,A,2014_Mrz_03_1054,P12,
stim_fb/ques.jpg,stim_fb/posf.jpg,stim_fb/negf.jpg,stim_01/c.jpg,stim_01/d.jpg,2,2,j,2,31,151,38,j,1,0.899704876297,01,03,60.0218460647,PLT_learning_01,A,2014_Mrz_03_1054,P12,
stim_fb/ques.jpg,stim_fb/negf.jpg,stim_fb/posf.jpg,stim_01/a.jpg,stim_01/b.jpg,2,1,j,2,32,152,13,j,1,0.616539276168,01,03,60.0218460647,PLT_learning_01,A,2014_Mrz_03_1054,P12,
stim_fb/ques.jpg,stim_fb/negf.jpg,stim_fb/posf.jpg,stim_01/d.jpg,stim_01/c.jpg,1,2,f,2,33,153,25,f,1,0.533207989444,01,03,60.0218460647,PLT_learning_01,A,2014_Mrz_03_1054,P12,
stim_fb/ques.jpg,stim_fb/negf.jpg,stim_fb/posf.jpg,stim_01/b.jpg,stim_01/a.jpg,1,1,f,2,34,154,6,f,1,0.533221535257,01,03,60.0218460647,PLT_learning_01,A,2014_Mrz_03_1054,P12,
stim_fb/ques.jpg,stim_fb/negf.jpg,stim_fb/posf.jpg,stim_01/a.jpg,stim_01/b.jpg,2,1,j,2,35,155,12,j,1,0.499872586945,01,03,60.0218460647,PLT_learning_01,A,2014_Mrz_03_1054,P12,
stim_fb/ques.jpg,stim_fb/posf.jpg,stim_fb/negf.jpg,stim_01/b.jpg,stim_01/a.jpg,1,1,f,2,36,156,8,f,1,0.649868468164,01,03,60.0218460647,PLT_learning_01,A,2014_Mrz_03_1054,P12,
stim_fb/ques.jpg,stim_fb/negf.jpg,stim_fb/posf.jpg,stim_01/f.jpg,stim_01/e.jpg,1,3,f,2,37,157,42,f,1,0.716545967873,01,03,60.0218460647,PLT_learning_01,A,2014_Mrz_03_1054,P12,
stim_fb/ques.jpg,stim_fb/negf.jpg,stim_fb/posf.jpg,stim_01/c.jpg,stim_01/d.jpg,2,2,j,2,38,158,36,j,1,0.483195488739,01,03,60.0218460647,PLT_learning_01,A,2014_Mrz_03_1054,P12,
stim_fb/ques.jpg,stim_fb/negf.jpg,stim_fb/posf.jpg,stim_01/e.jpg,stim_01/f.jpg,2,3,j,2,39,159,50,j,1,0.69983820512,01,03,60.0218460647,PLT_learning_01,A,2014_Mrz_03_1054,P12,
stim_fb/ques.jpg,stim_fb/negf.jpg,stim_fb/posf.jpg,stim_01/e.jpg,stim_01/f.jpg,2,3,j,2,40,160,52,j,1,0.733083226003,01,03,60.0218460647,PLT_learning_01,A,2014_Mrz_03_1054,P12,
stim_fb/ques.jpg,stim_fb/negf.jpg,stim_fb/posf.jpg,stim_01/a.jpg,stim_01/b.jpg,2,1,j,2,41,161,16,j,1,0.73314810997,01,03,60.0218460647,PLT_learning_01,A,2014_Mrz_03_1054,P12,
stim_fb/ques.jpg,stim_fb/negf.jpg,stim_fb/posf.jpg,stim_01/d.jpg,stim_01/c.jpg,1,2,f,2,42,162,22,f,1,0.533212088676,01,03,60.0218460647,PLT_learning_01,A,2014_Mrz_03_1054,P12,
stim_fb/ques.jpg,stim_fb/negf.jpg,stim_fb/posf.jpg,stim_01/d.jpg,stim_01/c.jpg,1,2,f,2,43,163,21,j,0,0.816434981823,01,03,60.0218460647,PLT_learning_01,A,2014_Mrz_03_1054,P12,
stim_fb/ques.jpg,stim_fb/negf.jpg,stim_fb/posf.jpg,stim_01/b.jpg,stim_01/a.jpg,1,1,f,2,44,164,7,f,1,0.516561859542,01,03,60.0218460647,PLT_learning_01,A,2014_Mrz_03_1054,P12,
stim_fb/ques.jpg,stim_fb/negf.jpg,stim_fb/posf.jpg,stim_01/c.jpg,stim_01/d.jpg,2,2,j,2,45,165,34,j,1,0.683195681219,01,03,60.0218460647,PLT_learning_01,A,2014_Mrz_03_1054,P12,
stim_fb/ques.jpg,stim_fb/posf.jpg,stim_fb/negf.jpg,stim_01/f.jpg,stim_01/e.jpg,1,3,f,2,46,166,47,j,0,1.09966453058,01,03,60.0218460647,PLT_learning_01,A,2014_Mrz_03_1054,P12,
stim_fb/ques.jpg,stim_fb/negf.jpg,stim_fb/posf.jpg,stim_01/e.jpg,stim_01/f.jpg,2,3,j,2,47,167,53,j,1,0.799739979925,01,03,60.0218460647,PLT_learning_01,A,2014_Mrz_03_1054,P12,
stim_fb/ques.jpg,stim_fb/negf.jpg,stim_fb/posf.jpg,stim_01/a.jpg,stim_01/b.jpg,2,1,j,2,48,168,14,j,1,0.533191138379,01,03,60.0218460647,PLT_learning_01,A,2014_Mrz_03_1054,P12,
stim_fb/ques.jpg,stim_fb/negf.jpg,stim_fb/posf.jpg,stim_01/b.jpg,stim_01/a.jpg,1,1,f,2,49,169,2,f,1,0.666490745523,01,03,60.0218460647,PLT_learning_01,A,2014_Mrz_03_1054,P12,
stim_fb/ques.jpg,stim_fb/negf.jpg,stim_fb/posf.jpg,stim_01/a.jpg,stim_01/b.jpg,2,1,j,2,50,170,15,j,1,0.549855734377,01,03,60.0218460647,PLT_learning_01,A,2014_Mrz_03_1054,P12,
stim_fb/ques.jpg,stim_fb/negf.jpg,stim_fb/posf.jpg,stim_01/f.jpg,stim_01/e.jpg,1,3,f,2,51,171,41,j,0,0.766474814756,01,03,60.0218460647,PLT_learning_01,A,2014_Mrz_03_1054,P12,
stim_fb/ques.jpg,stim_fb/negf.jpg,stim_fb/posf.jpg,stim_01/d.jpg,stim_01/c.jpg,1,2,f,2,52,172,23,f,1,0.666474357615,01,03,60.0218460647,PLT_learning_01,A,2014_Mrz_03_1054,P12,
stim_fb/ques.jpg,stim_fb/negf.jpg,stim_fb/posf.jpg,stim_01/c.jpg,stim_01/d.jpg,2,2,j,2,53,173,31,j,1,0.633159628723,01,03,60.0218460647,PLT_learning_01,A,2014_Mrz_03_1054,P12,
stim_fb/ques.jpg,stim_fb/posf.jpg,stim_fb/negf.jpg,stim_01/c.jpg,stim_01/d.jpg,2,2,j,2,54,174,39,j,1,0.599867726813,01,03,60.0218460647,PLT_learning_01,A,2014_Mrz_03_1054,P12,
stim_fb/ques.jpg,stim_fb/negf.jpg,stim_fb/posf.jpg,stim_01/b.jpg,stim_01/a.jpg,1,1,f,2,55,175,3,f,1,0.583151506949,01,03,60.0218460647,PLT_learning_01,A,2014_Mrz_03_1054,P12,
stim_fb/ques.jpg,stim_fb/negf.jpg,stim_fb/posf.jpg,stim_01/d.jpg,stim_01/c.jpg,1,2,f,2,56,176,26,f,1,0.499868496735,01,03,60.0218460647,PLT_learning_01,A,2014_Mrz_03_1054,P12,
stim_fb/ques.jpg,stim_fb/posf.jpg,stim_fb/negf.jpg,stim_01/e.jpg,stim_01/f.jpg,2,3,j,2,57,177,58,j,1,0.599861399017,01,03,60.0218460647,PLT_learning_01,A,2014_Mrz_03_1054,P12,
stim_fb/ques.jpg,stim_fb/negf.jpg,stim_fb/posf.jpg,stim_01/c.jpg,stim_01/d.jpg,2,2,j,2,58,178,30,j,1,0.449915415355,01,03,60.0218460647,PLT_learning_01,A,2014_Mrz_03_1054,P12,
stim_fb/ques.jpg,stim_fb/negf.jpg,stim_fb/posf.jpg,stim_01/a.jpg,stim_01/b.jpg,2,1,j,2,59,179,17,j,1,0.849770312142,01,03,60.0218460647,PLT_learning_01,A,2014_Mrz_03_1054,P12,
stim_fb/ques.jpg,stim_fb/negf.jpg,stim_fb/posf.jpg,stim_01/e.jpg,stim_01/f.jpg,2,3,j,3,0,180,52,f,0,0.849738366397,01,03,60.0218460647,PLT_learning_01,A,2014_Mrz_03_1054,P12,
stim_fb/ques.jpg,stim_fb/negf.jpg,stim_fb/posf.jpg,stim_01/d.jpg,stim_01/c.jpg,1,2,f,3,1,181,25,f,1,0.533233426942,01,03,60.0218460647,PLT_learning_01,A,2014_Mrz_03_1054,P12,
stim_fb/ques.jpg,stim_fb/negf.jpg,stim_fb/posf.jpg,stim_01/b.jpg,stim_01/a.jpg,1,1,f,3,2,182,5,f,1,0.616540052105,01,03,60.0218460647,PLT_learning_01,A,2014_Mrz_03_1054,P12,
stim_fb/ques.jpg,stim_fb/negf.jpg,stim_fb/posf.jpg,stim_01/a.jpg,stim_01/b.jpg,2,1,j,3,3,183,12,j,1,0.466559024966,01,03,60.0218460647,PLT_learning_01,A,2014_Mrz_03_1054,P12,
stim_fb/ques.jpg,stim_fb/negf.jpg,stim_fb/posf.jpg,stim_01/d.jpg,stim_01/c.jpg,1,2,f,3,4,184,21,f,1,0.533205935316,01,03,60.0218460647,PLT_learning_01,A,2014_Mrz_03_1054,P12,
stim_fb/ques.jpg,stim_fb/posf.jpg,stim_fb/negf.jpg,stim_01/f.jpg,stim_01/e.jpg,1,3,f,3,5,185,46,j,0,0.566543918256,01,03,60.0218460647,PLT_learning_01,A,2014_Mrz_03_1054,P12,
stim_fb/ques.jpg,stim_fb/negf.jpg,stim_fb/posf.jpg,stim_01/a.jpg,stim_01/b.jpg,2,1,j,3,6,186,15,j,1,0.599868947862,01,03,60.0218460647,PLT_learning_01,A,2014_Mrz_03_1054,P12,
stim_fb/ques.jpg,stim_fb/negf.jpg,stim_fb/posf.jpg,stim_01/c.jpg,stim_01/d.jpg,2,2,j,3,7,187,34,f,0,0.66648451096,01,03,60.0218460647,PLT_learning_01,A,2014_Mrz_03_1054,P12,
stim_fb/ques.jpg,stim_fb/negf.jpg,stim_fb/posf.jpg,stim_01/e.jpg,stim_01/f.jpg,2,3,j,3,8,188,53,f,0,0.783115467987,01,03,60.0218460647,PLT_learning_01,A,2014_Mrz_03_1054,P12,
stim_fb/ques.jpg,stim_fb/negf.jpg,stim_fb/posf.jpg,stim_01/a.jpg,stim_01/b.jpg,2,1,j,3,9,189,11,j,1,0.599855528363,01,03,60.0218460647,PLT_learning_01,A,2014_Mrz_03_1054,P12,
stim_fb/ques.jpg,stim_fb/negf.jpg,stim_fb/posf.jpg,stim_01/d.jpg,stim_01/c.jpg,1,2,f,3,10,190,26,f,1,0.516541336311,01,03,60.0218460647,PLT_learning_01,A,2014_Mrz_03_1054,P12,
stim_fb/ques.jpg,stim_fb/posf.jpg,stim_fb/negf.jpg,stim_01/b.jpg,stim_01/a.jpg,1,1,f,3,11,191,9,f,1,0.533212584915,01,03,60.0218460647,PLT_learning_01,A,2014_Mrz_03_1054,P12,
stim_fb/ques.jpg,stim_fb/negf.jpg,stim_fb/posf.jpg,stim_01/b.jpg,stim_01/a.jpg,1,1,f,3,12,192,6,f,1,0.616493937993,01,03,60.0218460647,PLT_learning_01,A,2014_Mrz_03_1054,P12,
stim_fb/ques.jpg,stim_fb/posf.jpg,stim_fb/negf.jpg,stim_01/e.jpg,stim_01/f.jpg,2,3,j,3,13,193,59,j,1,0.766403569911,01,03,60.0218460647,PLT_learning_01,A,2014_Mrz_03_1054,P12,
stim_fb/ques.jpg,stim_fb/negf.jpg,stim_fb/posf.jpg,stim_01/b.jpg,stim_01/a.jpg,1,1,f,3,14,194,7,f,1,0.549856814072,01,03,60.0218460647,PLT_learning_01,A,2014_Mrz_03_1054,P12,
stim_fb/ques.jpg,stim_fb/posf.jpg,stim_fb/negf.jpg,stim_01/e.jpg,stim_01/f.jpg,2,3,j,3,15,195,58,f,0,0.583202072173,01,03,60.0218460647,PLT_learning_01,A,2014_Mrz_03_1054,P12,
stim_fb/ques.jpg,stim_fb/posf.jpg,stim_fb/negf.jpg,stim_01/a.jpg,stim_01/b.jpg,2,1,j,3,16,196,18,j,1,0.566478706471,01,03,60.0218460647,PLT_learning_01,A,2014_Mrz_03_1054,P12,
stim_fb/ques.jpg,stim_fb/negf.jpg,stim_fb/posf.jpg,stim_01/b.jpg,stim_01/a.jpg,1,1,f,3,17,197,0,f,1,0.466566841478,01,03,60.0218460647,PLT_learning_01,A,2014_Mrz_03_1054,P12,
stim_fb/ques.jpg,stim_fb/posf.jpg,stim_fb/negf.jpg,stim_01/c.jpg,stim_01/d.jpg,2,2,j,3,18,198,39,j,1,0.849765238476,01,03,60.0218460647,PLT_learning_01,A,2014_Mrz_03_1054,P12,
stim_fb/ques.jpg,stim_fb/negf.jpg,stim_fb/posf.jpg,stim_01/b.jpg,stim_01/a.jpg,1,1,f,3,19,199,1,f,1,0.749805313514,01,03,60.0218460647,PLT_learning_01,A,2014_Mrz_03_1054,P12,
stim_fb/ques.jpg,stim_fb/negf.jpg,stim_fb/posf.jpg,stim_01/b.jpg,stim_01/a.jpg,1,1,f,3,20,200,3,f,1,0.433282034278,01,03,60.0218460647,PLT_learning_01,A,2014_Mrz_03_1054,P12,
stim_fb/ques.jpg,stim_fb/posf.jpg,stim_fb/negf.jpg,stim_01/d.jpg,stim_01/c.jpg,1,2,f,3,21,201,28,j,0,0.783047528393,01,03,60.0218460647,PLT_learning_01,A,2014_Mrz_03_1054,P12,
stim_fb/ques.jpg,stim_fb/posf.jpg,stim_fb/negf.jpg,stim_01/c.jpg,stim_01/d.jpg,2,2,j,3,22,202,38,j,1,0.516562617434,01,03,60.0218460647,PLT_learning_01,A,2014_Mrz_03_1054,P12,
stim_fb/ques.jpg,stim_fb/negf.jpg,stim_fb/posf.jpg,stim_01/c.jpg,stim_01/d.jpg,2,2,j,3,23,203,33,j,1,0.6997551528,01,03,60.0218460647,PLT_learning_01,A,2014_Mrz_03_1054,P12,
stim_fb/ques.jpg,stim_fb/negf.jpg,stim_fb/posf.jpg,stim_01/f.jpg,stim_01/e.jpg,1,3,f,3,24,204,41,j,0,1.0496979455,01,03,60.0218460647,PLT_learning_01,A,2014_Mrz_03_1054,P12,
stim_fb/ques.jpg,stim_fb/negf.jpg,stim_fb/posf.jpg,stim_01/f.jpg,stim_01/e.jpg,1,3,f,3,25,205,42,j,0,0.966394496261,01,03,60.0218460647,PLT_learning_01,A,2014_Mrz_03_1054,P12,
stim_fb/ques.jpg,stim_fb/negf.jpg,stim_fb/posf.jpg,stim_01/e.jpg,stim_01/f.jpg,2,3,j,3,26,206,55,j,1,0.833131737099,01,03,60.0218460647,PLT_learning_01,A,2014_Mrz_03_1054,P12,
stim_fb/ques.jpg,stim_fb/negf.jpg,stim_fb/posf.jpg,stim_01/a.jpg,stim_01/b.jpg,2,1,j,3,27,207,16,j,1,0.716355478363,01,03,60.0218460647,PLT_learning_01,A,2014_Mrz_03_1054,P12,
stim_fb/ques.jpg,stim_fb/posf.jpg,stim_fb/negf.jpg,stim_01/e.jpg,stim_01/f.jpg,2,3,j,3,28,208,56,j,1,1.11635880767,01,03,60.0218460647,PLT_learning_01,A,2014_Mrz_03_1054,P12,
stim_fb/ques.jpg,stim_fb/negf.jpg,stim_fb/posf.jpg,stim_01/d.jpg,stim_01/c.jpg,1,2,f,3,29,209,20,f,1,0.716466292984,01,03,60.0218460647,PLT_learning_01,A,2014_Mrz_03_1054,P12,
stim_fb/ques.jpg,stim_fb/negf.jpg,stim_fb/posf.jpg,stim_01/c.jpg,stim_01/d.jpg,2,2,j,3,30,210,36,j,1,1.31625983361,01,03,60.0218460647,PLT_learning_01,A,2014_Mrz_03_1054,P12,
stim_fb/ques.jpg,stim_fb/negf.jpg,stim_fb/posf.jpg,stim_01/a.jpg,stim_01/b.jpg,2,1,j,3,31,211,14,j,1,0.849750041541,01,03,60.0218460647,PLT_learning_01,A,2014_Mrz_03_1054,P12,
stim_fb/ques.jpg,stim_fb/posf.jpg,stim_fb/negf.jpg,stim_01/b.jpg,stim_01/a.jpg,1,1,f,3,32,212,8,f,1,1.06633205439,01,03,60.0218460647,PLT_learning_01,A,2014_Mrz_03_1054,P12,
stim_fb/ques.jpg,stim_fb/posf.jpg,stim_fb/negf.jpg,stim_01/f.jpg,stim_01/e.jpg,1,3,f,3,33,213,48,f,1,1.0497212627,01,03,60.0218460647,PLT_learning_01,A,2014_Mrz_03_1054,P12,
stim_fb/ques.jpg,stim_fb/posf.jpg,stim_fb/negf.jpg,stim_01/d.jpg,stim_01/c.jpg,1,2,f,3,34,214,29,f,1,0.549889872595,01,03,60.0218460647,PLT_learning_01,A,2014_Mrz_03_1054,P12,
stim_fb/ques.jpg,stim_fb/posf.jpg,stim_fb/negf.jpg,stim_01/c.jpg,stim_01/d.jpg,2,2,j,3,35,215,37,j,1,0.699827068319,01,03,60.0218460647,PLT_learning_01,A,2014_Mrz_03_1054,P12,
stim_fb/ques.jpg,stim_fb/negf.jpg,stim_fb/posf.jpg,stim_01/c.jpg,stim_01/d.jpg,2,2,j,3,36,216,32,j,1,0.84981062778,01,03,60.0218460647,PLT_learning_01,A,2014_Mrz_03_1054,P12,
stim_fb/ques.jpg,stim_fb/posf.jpg,stim_fb/negf.jpg,stim_01/d.jpg,stim_01/c.jpg,1,2,f,3,37,217,27,f,1,0.749805130056,01,03,60.0218460647,PLT_learning_01,A,2014_Mrz_03_1054,P12,
stim_fb/ques.jpg,stim_fb/negf.jpg,stim_fb/posf.jpg,stim_01/c.jpg,stim_01/d.jpg,2,2,j,3,38,218,31,f,0,0.699804307503,01,03,60.0218460647,PLT_learning_01,A,2014_Mrz_03_1054,P12,
stim_fb/ques.jpg,stim_fb/posf.jpg,stim_fb/negf.jpg,stim_01/f.jpg,stim_01/e.jpg,1,3,f,3,39,219,49,f,1,0.983058352412,01,03,60.0218460647,PLT_learning_01,A,2014_Mrz_03_1054,P12,
stim_fb/ques.jpg,stim_fb/negf.jpg,stim_fb/posf.jpg,stim_01/d.jpg,stim_01/c.jpg,1,2,f,3,40,220,24,f,1,0.549874323781,01,03,60.0218460647,PLT_learning_01,A,2014_Mrz_03_1054,P12,
stim_fb/ques.jpg,stim_fb/negf.jpg,stim_fb/posf.jpg,stim_01/f.jpg,stim_01/e.jpg,1,3,f,3,41,221,40,f,1,0.599862220067,01,03,60.0218460647,PLT_learning_01,A,2014_Mrz_03_1054,P12,
stim_fb/ques.jpg,stim_fb/negf.jpg,stim_fb/posf.jpg,stim_01/f.jpg,stim_01/e.jpg,1,3,f,3,42,222,43,j,0,1.36627215687,01,03,60.0218460647,PLT_learning_01,A,2014_Mrz_03_1054,P12,
stim_fb/ques.jpg,stim_fb/negf.jpg,stim_fb/posf.jpg,stim_01/c.jpg,stim_01/d.jpg,2,2,j,3,43,223,30,j,1,0.616569814399,01,03,60.0218460647,PLT_learning_01,A,2014_Mrz_03_1054,P12,
stim_fb/ques.jpg,stim_fb/negf.jpg,stim_fb/posf.jpg,stim_01/e.jpg,stim_01/f.jpg,2,3,j,3,44,224,50,j,1,0.883071660633,01,03,60.0218460647,PLT_learning_01,A,2014_Mrz_03_1054,P12,
stim_fb/ques.jpg,stim_fb/negf.jpg,stim_fb/posf.jpg,stim_01/a.jpg,stim_01/b.jpg,2,1,j,3,45,225,17,j,1,0.63319258499,01,03,60.0218460647,PLT_learning_01,A,2014_Mrz_03_1054,P12,
stim_fb/ques.jpg,stim_fb/negf.jpg,stim_fb/posf.jpg,stim_01/c.jpg,stim_01/d.jpg,2,2,j,3,46,226,35,j,1,0.85164684644,01,03,60.0218460647,PLT_learning_01,A,2014_Mrz_03_1054,P12,
stim_fb/ques.jpg,stim_fb/negf.jpg,stim_fb/posf.jpg,stim_01/a.jpg,stim_01/b.jpg,2,1,j,3,47,227,13,j,1,0.683160875335,01,03,60.0218460647,PLT_learning_01,A,2014_Mrz_03_1054,P12,
stim_fb/ques.jpg,stim_fb/negf.jpg,stim_fb/posf.jpg,stim_01/e.jpg,stim_01/f.jpg,2,3,j,3,48,228,54,j,1,0.816445453965,01,03,60.0218460647,PLT_learning_01,A,2014_Mrz_03_1054,P12,
stim_fb/ques.jpg,stim_fb/negf.jpg,stim_fb/posf.jpg,stim_01/d.jpg,stim_01/c.jpg,1,2,f,3,49,229,22,f,1,0.56653645663,01,03,60.0218460647,PLT_learning_01,A,2014_Mrz_03_1054,P12,
stim_fb/ques.jpg,stim_fb/posf.jpg,stim_fb/negf.jpg,stim_01/a.jpg,stim_01/b.jpg,2,1,j,3,50,230,19,j,1,0.583169579062,01,03,60.0218460647,PLT_learning_01,A,2014_Mrz_03_1054,P12,
stim_fb/ques.jpg,stim_fb/negf.jpg,stim_fb/posf.jpg,stim_01/a.jpg,stim_01/b.jpg,2,1,j,3,51,231,10,j,1,0.53323147507,01,03,60.0218460647,PLT_learning_01,A,2014_Mrz_03_1054,P12,
stim_fb/ques.jpg,stim_fb/negf.jpg,stim_fb/posf.jpg,stim_01/d.jpg,stim_01/c.jpg,1,2,f,3,52,232,23,f,1,0.566538988951,01,03,60.0218460647,PLT_learning_01,A,2014_Mrz_03_1054,P12,
stim_fb/ques.jpg,stim_fb/negf.jpg,stim_fb/posf.jpg,stim_01/f.jpg,stim_01/e.jpg,1,3,f,3,53,233,45,j,0,0.866438432938,01,03,60.0218460647,PLT_learning_01,A,2014_Mrz_03_1054,P12,
stim_fb/ques.jpg,stim_fb/negf.jpg,stim_fb/posf.jpg,stim_01/b.jpg,stim_01/a.jpg,1,1,f,3,54,234,4,f,1,0.699814108969,01,03,60.0218460647,PLT_learning_01,A,2014_Mrz_03_1054,P12,
stim_fb/ques.jpg,stim_fb/negf.jpg,stim_fb/posf.jpg,stim_01/e.jpg,stim_01/f.jpg,2,3,j,3,55,235,51,j,1,0.64984908177,01,03,60.0218460647,PLT_learning_01,A,2014_Mrz_03_1054,P12,
stim_fb/ques.jpg,stim_fb/posf.jpg,stim_fb/negf.jpg,stim_01/e.jpg,stim_01/f.jpg,2,3,j,3,56,236,57,j,1,0.616488079368,01,03,60.0218460647,PLT_learning_01,A,2014_Mrz_03_1054,P12,
stim_fb/ques.jpg,stim_fb/negf.jpg,stim_fb/posf.jpg,stim_01/f.jpg,stim_01/e.jpg,1,3,f,3,57,237,44,f,1,0.849770360262,01,03,60.0218460647,PLT_learning_01,A,2014_Mrz_03_1054,P12,
stim_fb/ques.jpg,stim_fb/posf.jpg,stim_fb/negf.jpg,stim_01/f.jpg,stim_01/e.jpg,1,3,f,3,58,238,47,f,1,1.06637585874,01,03,60.0218460647,PLT_learning_01,A,2014_Mrz_03_1054,P12,
stim_fb/ques.jpg,stim_fb/negf.jpg,stim_fb/posf.jpg,stim_01/b.jpg,stim_01/a.jpg,1,1,f,3,59,239,2,f,1,0.449906074038,01,03,60.0218460647,PLT_learning_01,A,2014_Mrz_03_1054,P12,
stim_fb/ques.jpg,stim_fb/negf.jpg,stim_fb/posf.jpg,stim_01/e.jpg,stim_01/f.jpg,2,3,j,4,0,240,50,j,1,0.666515746933,01,03,60.0218460647,PLT_learning_01,A,2014_Mrz_03_1054,P12,
stim_fb/ques.jpg,stim_fb/posf.jpg,stim_fb/negf.jpg,stim_01/d.jpg,stim_01/c.jpg,1,2,f,4,1,241,29,f,1,0.616513787542,01,03,60.0218460647,PLT_learning_01,A,2014_Mrz_03_1054,P12,
stim_fb/ques.jpg,stim_fb/negf.jpg,stim_fb/posf.jpg,stim_01/d.jpg,stim_01/c.jpg,1,2,f,4,2,242,23,f,1,0.499851011086,01,03,60.0218460647,PLT_learning_01,A,2014_Mrz_03_1054,P12,
stim_fb/ques.jpg,stim_fb/posf.jpg,stim_fb/negf.jpg,stim_01/a.jpg,stim_01/b.jpg,2,1,j,4,3,243,19,j,1,0.549862907283,01,03,60.0218460647,PLT_learning_01,A,2014_Mrz_03_1054,P12,
stim_fb/ques.jpg,stim_fb/negf.jpg,stim_fb/posf.jpg,stim_01/b.jpg,stim_01/a.jpg,1,1,f,4,4,244,2,f,1,0.533220867591,01,03,60.0218460647,PLT_learning_01,A,2014_Mrz_03_1054,P12,
stim_fb/ques.jpg,stim_fb/negf.jpg,stim_fb/posf.jpg,stim_01/a.jpg,stim_01/b.jpg,2,1,j,4,5,245,10,j,1,0.499855823099,01,03,60.0218460647,PLT_learning_01,A,2014_Mrz_03_1054,P12,
stim_fb/ques.jpg,stim_fb/negf.jpg,stim_fb/posf.jpg,stim_01/b.jpg,stim_01/a.jpg,1,1,f,4,6,246,1,f,1,0.649851397551,01,03,60.0218460647,PLT_learning_01,A,2014_Mrz_03_1054,P12,
stim_fb/ques.jpg,stim_fb/negf.jpg,stim_fb/posf.jpg,stim_01/b.jpg,stim_01/a.jpg,1,1,f,4,7,247,6,j,0,1.41625985166,01,03,60.0218460647,PLT_learning_01,A,2014_Mrz_03_1054,P12,
stim_fb/ques.jpg,stim_fb/negf.jpg,stim_fb/posf.jpg,stim_01/b.jpg,stim_01/a.jpg,1,1,f,4,8,248,0,f,1,0.466584898553,01,03,60.0218460647,PLT_learning_01,A,2014_Mrz_03_1054,P12,
stim_fb/ques.jpg,stim_fb/negf.jpg,stim_fb/posf.jpg,stim_01/b.jpg,stim_01/a.jpg,1,1,f,4,9,249,3,f,1,0.499883206454,01,03,60.0218460647,PLT_learning_01,A,2014_Mrz_03_1054,P12,
stim_fb/ques.jpg,stim_fb/negf.jpg,stim_fb/posf.jpg,stim_01/f.jpg,stim_01/e.jpg,1,3,f,4,10,250,44,f,1,0.883068024556,01,03,60.0218460647,PLT_learning_01,A,2014_Mrz_03_1054,P12,
stim_fb/ques.jpg,stim_fb/negf.jpg,stim_fb/posf.jpg,stim_01/f.jpg,stim_01/e.jpg,1,3,f,4,11,251,41,f,1,0.649833863783,01,03,60.0218460647,PLT_learning_01,A,2014_Mrz_03_1054,P12,
stim_fb/ques.jpg,stim_fb/negf.jpg,stim_fb/posf.jpg,stim_01/d.jpg,stim_01/c.jpg,1,2,f,4,12,252,24,f,1,0.833072546344,01,03,60.0218460647,PLT_learning_01,A,2014_Mrz_03_1054,P12,
stim_fb/ques.jpg,stim_fb/negf.jpg,stim_fb/posf.jpg,stim_01/a.jpg,stim_01/b.jpg,2,1,j,4,13,253,15,j,1,0.616473724535,01,03,60.0218460647,PLT_learning_01,A,2014_Mrz_03_1054,P12,
stim_fb/ques.jpg,stim_fb/negf.jpg,stim_fb/posf.jpg,stim_01/f.jpg,stim_01/e.jpg,1,3,f,4,14,254,45,f,1,0.566518886771,01,03,60.0218460647,PLT_learning_01,A,2014_Mrz_03_1054,P12,
stim_fb/ques.jpg,stim_fb/negf.jpg,stim_fb/posf.jpg,stim_01/a.jpg,stim_01/b.jpg,2,1,j,4,15,255,14,j,1,0.51654302653,01,03,60.0218460647,PLT_learning_01,A,2014_Mrz_03_1054,P12,
stim_fb/ques.jpg,stim_fb/negf.jpg,stim_fb/posf.jpg,stim_01/e.jpg,stim_01/f.jpg,2,3,j,4,16,256,55,j,1,0.683177557979,01,03,60.0218460647,PLT_learning_01,A,2014_Mrz_03_1054,P12,
stim_fb/ques.jpg,stim_fb/negf.jpg,stim_fb/posf.jpg,stim_01/d.jpg,stim_01/c.jpg,1,2,f,4,17,257,26,f,1,0.633145541558,01,03,60.0218460647,PLT_learning_01,A,2014_Mrz_03_1054,P12,
stim_fb/ques.jpg,stim_fb/posf.jpg,stim_fb/negf.jpg,stim_01/d.jpg,stim_01/c.jpg,1,2,f,4,18,258,28,f,1,0.54983204424,01,03,60.0218460647,PLT_learning_01,A,2014_Mrz_03_1054,P12,
stim_fb/ques.jpg,stim_fb/posf.jpg,stim_fb/negf.jpg,stim_01/a.jpg,stim_01/b.jpg,2,1,j,4,19,259,18,j,1,0.616479092936,01,03,60.0218460647,PLT_learning_01,A,2014_Mrz_03_1054,P12,
stim_fb/ques.jpg,stim_fb/negf.jpg,stim_fb/posf.jpg,stim_01/c.jpg,stim_01/d.jpg,2,2,j,4,20,260,35,j,1,0.633012489427,01,03,60.0218460647,PLT_learning_01,A,2014_Mrz_03_1054,P12,
stim_fb/ques.jpg,stim_fb/negf.jpg,stim_fb/posf.jpg,stim_01/e.jpg,stim_01/f.jpg,2,3,j,4,21,261,53,j,1,0.599792349653,01,03,60.0218460647,PLT_learning_01,A,2014_Mrz_03_1054,P12,
stim_fb/ques.jpg,stim_fb/negf.jpg,stim_fb/posf.jpg,stim_01/a.jpg,stim_01/b.jpg,2,1,j,4,22,262,16,j,1,0.533253026868,01,03,60.0218460647,PLT_learning_01,A,2014_Mrz_03_1054,P12,
stim_fb/ques.jpg,stim_fb/posf.jpg,stim_fb/negf.jpg,stim_01/f.jpg,stim_01/e.jpg,1,3,f,4,23,263,48,f,1,0.583226168323,01,03,60.0218460647,PLT_learning_01,A,2014_Mrz_03_1054,P12,
stim_fb/ques.jpg,stim_fb/negf.jpg,stim_fb/posf.jpg,stim_01/c.jpg,stim_01/d.jpg,2,2,j,4,24,264,34,j,1,0.499855687761,01,03,60.0218460647,PLT_learning_01,A,2014_Mrz_03_1054,P12,
stim_fb/ques.jpg,stim_fb/negf.jpg,stim_fb/posf.jpg,stim_01/a.jpg,stim_01/b.jpg,2,1,j,4,25,265,11,j,1,0.483225635994,01,03,60.0218460647,PLT_learning_01,A,2014_Mrz_03_1054,P12,
stim_fb/ques.jpg,stim_fb/negf.jpg,stim_fb/posf.jpg,stim_01/e.jpg,stim_01/f.jpg,2,3,j,4,26,266,52,j,1,0.649838636697,01,03,60.0218460647,PLT_learning_01,A,2014_Mrz_03_1054,P12,
stim_fb/ques.jpg,stim_fb/negf.jpg,stim_fb/posf.jpg,stim_01/b.jpg,stim_01/a.jpg,1,1,f,4,27,267,7,f,1,0.516569399363,01,03,60.0218460647,PLT_learning_01,A,2014_Mrz_03_1054,P12,
stim_fb/ques.jpg,stim_fb/posf.jpg,stim_fb/negf.jpg,stim_01/f.jpg,stim_01/e.jpg,1,3,f,4,28,268,46,j,0,0.599863636603,01,03,60.0218460647,PLT_learning_01,A,2014_Mrz_03_1054,P12,
stim_fb/ques.jpg,stim_fb/negf.jpg,stim_fb/posf.jpg,stim_01/f.jpg,stim_01/e.jpg,1,3,f,4,29,269,40,f,1,0.633186233134,01,03,60.0218460647,PLT_learning_01,A,2014_Mrz_03_1054,P12,
stim_fb/ques.jpg,stim_fb/negf.jpg,stim_fb/posf.jpg,stim_01/b.jpg,stim_01/a.jpg,1,1,f,4,30,270,5,f,1,0.516467141101,01,03,60.0218460647,PLT_learning_01,A,2014_Mrz_03_1054,P12,
stim_fb/ques.jpg,stim_fb/negf.jpg,stim_fb/posf.jpg,stim_01/d.jpg,stim_01/c.jpg,1,2,f,4,31,271,22,f,1,0.649863108785,01,03,60.0218460647,PLT_learning_01,A,2014_Mrz_03_1054,P12,
stim_fb/ques.jpg,stim_fb/negf.jpg,stim_fb/posf.jpg,stim_01/e.jpg,stim_01/f.jpg,2,3,j,4,32,272,51,j,1,0.616539249101,01,03,60.0218460647,PLT_learning_01,A,2014_Mrz_03_1054,P12,
stim_fb/ques.jpg,stim_fb/negf.jpg,stim_fb/posf.jpg,stim_01/f.jpg,stim_01/e.jpg,1,3,f,4,33,273,42,f,1,0.716472341081,01,03,60.0218460647,PLT_learning_01,A,2014_Mrz_03_1054,P12,
stim_fb/ques.jpg,stim_fb/posf.jpg,stim_fb/negf.jpg,stim_01/e.jpg,stim_01/f.jpg,2,3,j,4,34,274,56,j,1,0.549882895177,01,03,60.0218460647,PLT_learning_01,A,2014_Mrz_03_1054,P12,
stim_fb/ques.jpg,stim_fb/negf.jpg,stim_fb/posf.jpg,stim_01/c.jpg,stim_01/d.jpg,2,2,j,4,35,275,31,j,1,0.499944099458,01,03,60.0218460647,PLT_learning_01,A,2014_Mrz_03_1054,P12,
stim_fb/ques.jpg,stim_fb/posf.jpg,stim_fb/negf.jpg,stim_01/f.jpg,stim_01/e.jpg,1,3,f,4,36,276,49,f,1,0.783158872335,01,03,60.0218460647,PLT_learning_01,A,2014_Mrz_03_1054,P12,
stim_fb/ques.jpg,stim_fb/posf.jpg,stim_fb/negf.jpg,stim_01/b.jpg,stim_01/a.jpg,1,1,f,4,37,277,9,j,0,0.599844256225,01,03,60.0218460647,PLT_learning_01,A,2014_Mrz_03_1054,P12,
stim_fb/ques.jpg,stim_fb/negf.jpg,stim_fb/posf.jpg,stim_01/c.jpg,stim_01/d.jpg,2,2,j,4,38,278,32,j,1,0.733100407893,01,03,60.0218460647,PLT_learning_01,A,2014_Mrz_03_1054,P12,
stim_fb/ques.jpg,stim_fb/negf.jpg,stim_fb/posf.jpg,stim_01/f.jpg,stim_01/e.jpg,1,3,f,4,39,279,43,f,1,0.499896210917,01,03,60.0218460647,PLT_learning_01,A,2014_Mrz_03_1054,P12,
stim_fb/ques.jpg,stim_fb/negf.jpg,stim_fb/posf.jpg,stim_01/d.jpg,stim_01/c.jpg,1,2,f,4,40,280,25,f,1,0.566527181477,01,03,60.0218460647,PLT_learning_01,A,2014_Mrz_03_1054,P12,
stim_fb/ques.jpg,stim_fb/posf.jpg,stim_fb/negf.jpg,stim_01/c.jpg,stim_01/d.jpg,2,2,j,4,41,281,39,j,1,0.533246175766,01,03,60.0218460647,PLT_learning_01,A,2014_Mrz_03_1054,P12,
stim_fb/ques.jpg,stim_fb/posf.jpg,stim_fb/negf.jpg,stim_01/e.jpg,stim_01/f.jpg,2,3,j,4,42,282,58,j,1,0.616522629614,01,03,60.0218460647,PLT_learning_01,A,2014_Mrz_03_1054,P12,
stim_fb/ques.jpg,stim_fb/negf.jpg,stim_fb/posf.jpg,stim_01/a.jpg,stim_01/b.jpg,2,1,j,4,43,283,17,j,1,0.549858618576,01,03,60.0218460647,PLT_learning_01,A,2014_Mrz_03_1054,P12,
stim_fb/ques.jpg,stim_fb/negf.jpg,stim_fb/posf.jpg,stim_01/d.jpg,stim_01/c.jpg,1,2,f,4,44,284,21,f,1,0.516546518246,01,03,60.0218460647,PLT_learning_01,A,2014_Mrz_03_1054,P12,
stim_fb/ques.jpg,stim_fb/negf.jpg,stim_fb/posf.jpg,stim_01/a.jpg,stim_01/b.jpg,2,1,j,4,45,285,13,j,1,0.566541758866,01,03,60.0218460647,PLT_learning_01,A,2014_Mrz_03_1054,P12,
stim_fb/ques.jpg,stim_fb/negf.jpg,stim_fb/posf.jpg,stim_01/c.jpg,stim_01/d.jpg,2,2,j,4,46,286,36,j,1,0.483221657062,01,03,60.0218460647,PLT_learning_01,A,2014_Mrz_03_1054,P12,
stim_fb/ques.jpg,stim_fb/negf.jpg,stim_fb/posf.jpg,stim_01/b.jpg,stim_01/a.jpg,1,1,f,4,47,287,4,f,1,0.566519109327,01,03,60.0218460647,PLT_learning_01,A,2014_Mrz_03_1054,P12,
stim_fb/ques.jpg,stim_fb/posf.jpg,stim_fb/negf.jpg,stim_01/e.jpg,stim_01/f.jpg,2,3,j,4,48,288,57,f,0,1.01641811873,01,03,60.0218460647,PLT_learning_01,A,2014_Mrz_03_1054,P12,
stim_fb/ques.jpg,stim_fb/negf.jpg,stim_fb/posf.jpg,stim_01/c.jpg,stim_01/d.jpg,2,2,j,4,49,289,30,j,1,0.583197476702,01,03,60.0218460647,PLT_learning_01,A,2014_Mrz_03_1054,P12,
stim_fb/ques.jpg,stim_fb/posf.jpg,stim_fb/negf.jpg,stim_01/b.jpg,stim_01/a.jpg,1,1,f,4,50,290,8,f,1,0.466456099037,01,03,60.0218460647,PLT_learning_01,A,2014_Mrz_03_1054,P12,
stim_fb/ques.jpg,stim_fb/negf.jpg,stim_fb/posf.jpg,stim_01/e.jpg,stim_01/f.jpg,2,3,j,4,51,291,54,f,0,0.666578152714,01,03,60.0218460647,PLT_learning_01,A,2014_Mrz_03_1054,P12,
stim_fb/ques.jpg,stim_fb/negf.jpg,stim_fb/posf.jpg,stim_01/c.jpg,stim_01/d.jpg,2,2,j,4,52,292,33,j,1,0.683159100905,01,03,60.0218460647,PLT_learning_01,A,2014_Mrz_03_1054,P12,
stim_fb/ques.jpg,stim_fb/posf.jpg,stim_fb/negf.jpg,stim_01/e.jpg,stim_01/f.jpg,2,3,j,4,53,293,59,f,0,0.833109036432,01,03,60.0218460647,PLT_learning_01,A,2014_Mrz_03_1054,P12,
stim_fb/ques.jpg,stim_fb/posf.jpg,stim_fb/negf.jpg,stim_01/d.jpg,stim_01/c.jpg,1,2,f,4,54,294,27,f,1,0.583201789467,01,03,60.0218460647,PLT_learning_01,A,2014_Mrz_03_1054,P12,
stim_fb/ques.jpg,stim_fb/posf.jpg,stim_fb/negf.jpg,stim_01/c.jpg,stim_01/d.jpg,2,2,j,4,55,295,37,f,0,0.766414484156,01,03,60.0218460647,PLT_learning_01,A,2014_Mrz_03_1054,P12,
stim_fb/ques.jpg,stim_fb/posf.jpg,stim_fb/negf.jpg,stim_01/c.jpg,stim_01/d.jpg,2,2,j,4,56,296,38,j,1,0.783126406292,01,03,60.0218460647,PLT_learning_01,A,2014_Mrz_03_1054,P12,
stim_fb/ques.jpg,stim_fb/posf.jpg,stim_fb/negf.jpg,stim_01/f.jpg,stim_01/e.jpg,1,3,f,4,57,297,47,j,0,0.549822197661,01,03,60.0218460647,PLT_learning_01,A,2014_Mrz_03_1054,P12,
stim_fb/ques.jpg,stim_fb/negf.jpg,stim_fb/posf.jpg,stim_01/a.jpg,stim_01/b.jpg,2,1,j,4,58,298,12,j,1,0.58317480611,01,03,60.0218460647,PLT_learning_01,A,2014_Mrz_03_1054,P12,
stim_fb/ques.jpg,stim_fb/negf.jpg,stim_fb/posf.jpg,stim_01/d.jpg,stim_01/c.jpg,1,2,f,4,59,299,20,f,1,0.466567845986,01,03,60.0218460647,PLT_learning_01,A,2014_Mrz_03_1054,P12,
stim_fb/ques.jpg,stim_fb/negf.jpg,stim_fb/posf.jpg,stim_01/e.jpg,stim_01/f.jpg,2,3,j,5,0,300,55,j,1,0.649814477389,01,03,60.0218460647,PLT_learning_01,A,2014_Mrz_03_1054,P12,
stim_fb/ques.jpg,stim_fb/negf.jpg,stim_fb/posf.jpg,stim_01/d.jpg,stim_01/c.jpg,1,2,f,5,1,301,22,f,1,0.483295996632,01,03,60.0218460647,PLT_learning_01,A,2014_Mrz_03_1054,P12,
stim_fb/ques.jpg,stim_fb/negf.jpg,stim_fb/posf.jpg,stim_01/d.jpg,stim_01/c.jpg,1,2,f,5,2,302,25,f,1,0.433258004293,01,03,60.0218460647,PLT_learning_01,A,2014_Mrz_03_1054,P12,
stim_fb/ques.jpg,stim_fb/negf.jpg,stim_fb/posf.jpg,stim_01/d.jpg,stim_01/c.jpg,1,2,f,5,3,303,24,f,1,0.583229193875,01,03,60.0218460647,PLT_learning_01,A,2014_Mrz_03_1054,P12,
stim_fb/ques.jpg,stim_fb/negf.jpg,stim_fb/posf.jpg,stim_01/b.jpg,stim_01/a.jpg,1,1,f,5,4,304,3,f,1,1.03338767298,01,03,60.0218460647,PLT_learning_01,A,2014_Mrz_03_1054,P12,
stim_fb/ques.jpg,stim_fb/posf.jpg,stim_fb/negf.jpg,stim_01/d.jpg,stim_01/c.jpg,1,2,f,5,5,305,29,f,1,0.666522534877,01,03,60.0218460647,PLT_learning_01,A,2014_Mrz_03_1054,P12,
stim_fb/ques.jpg,stim_fb/negf.jpg,stim_fb/posf.jpg,stim_01/d.jpg,stim_01/c.jpg,1,2,f,5,6,306,21,f,1,0.416593537619,01,03,60.0218460647,PLT_learning_01,A,2014_Mrz_03_1054,P12,
stim_fb/ques.jpg,stim_fb/posf.jpg,stim_fb/negf.jpg,stim_01/d.jpg,stim_01/c.jpg,1,2,f,5,7,307,28,j,0,0.766463136605,01,03,60.0218460647,PLT_learning_01,A,2014_Mrz_03_1054,P12,
stim_fb/ques.jpg,stim_fb/negf.jpg,stim_fb/posf.jpg,stim_01/c.jpg,stim_01/d.jpg,2,2,j,5,8,308,36,f,0,1.1328980267,01,03,60.0218460647,PLT_learning_01,A,2014_Mrz_03_1054,P12,
stim_fb/ques.jpg,stim_fb/negf.jpg,stim_fb/posf.jpg,stim_01/c.jpg,stim_01/d.jpg,2,2,j,5,9,309,30,f,0,0.616503546979,01,03,60.0218460647,PLT_learning_01,A,2014_Mrz_03_1054,P12,
stim_fb/ques.jpg,stim_fb/negf.jpg,stim_fb/posf.jpg,stim_01/e.jpg,stim_01/f.jpg,2,3,j,5,10,310,52,f,0,0.549870642591,01,03,60.0218460647,PLT_learning_01,A,2014_Mrz_03_1054,P12,
stim_fb/ques.jpg,stim_fb/posf.jpg,stim_fb/negf.jpg,stim_01/c.jpg,stim_01/d.jpg,2,2,j,5,11,311,38,j,1,0.733168951997,01,03,60.0218460647,PLT_learning_01,A,2014_Mrz_03_1054,P12,
stim_fb/ques.jpg,stim_fb/negf.jpg,stim_fb/posf.jpg,stim_01/a.jpg,stim_01/b.jpg,2,1,j,5,12,312,13,j,1,0.6665254281,01,03,60.0218460647,PLT_learning_01,A,2014_Mrz_03_1054,P12,
stim_fb/ques.jpg,stim_fb/negf.jpg,stim_fb/posf.jpg,stim_01/a.jpg,stim_01/b.jpg,2,1,j,5,13,313,14,j,1,0.583202754877,01,03,60.0218460647,PLT_learning_01,A,2014_Mrz_03_1054,P12,
stim_fb/ques.jpg,stim_fb/posf.jpg,stim_fb/negf.jpg,stim_01/d.jpg,stim_01/c.jpg,1,2,f,5,14,314,27,f,1,0.616494100398,01,03,60.0218460647,PLT_learning_01,A,2014_Mrz_03_1054,P12,
stim_fb/ques.jpg,stim_fb/posf.jpg,stim_fb/negf.jpg,stim_01/f.jpg,stim_01/e.jpg,1,3,f,5,15,315,47,f,1,0.666535271672,01,03,60.0218460647,PLT_learning_01,A,2014_Mrz_03_1054,P12,
stim_fb/ques.jpg,stim_fb/negf.jpg,stim_fb/posf.jpg,stim_01/c.jpg,stim_01/d.jpg,2,2,j,5,16,316,33,f,0,0.583147338544,01,03,60.0218460647,PLT_learning_01,A,2014_Mrz_03_1054,P12,
stim_fb/ques.jpg,stim_fb/negf.jpg,stim_fb/posf.jpg,stim_01/e.jpg,stim_01/f.jpg,2,3,j,5,17,317,50,f,0,0.466553551303,01,03,60.0218460647,PLT_learning_01,A,2014_Mrz_03_1054,P12,
stim_fb/ques.jpg,stim_fb/posf.jpg,stim_fb/negf.jpg,stim_01/f.jpg,stim_01/e.jpg,1,3,f,5,18,318,46,f,1,0.683143260364,01,03,60.0218460647,PLT_learning_01,A,2014_Mrz_03_1054,P12,
stim_fb/ques.jpg,stim_fb/negf.jpg,stim_fb/posf.jpg,stim_01/f.jpg,stim_01/e.jpg,1,3,f,5,19,319,41,f,1,0.766442484051,01,03,60.0218460647,PLT_learning_01,A,2014_Mrz_03_1054,P12,
stim_fb/ques.jpg,stim_fb/negf.jpg,stim_fb/posf.jpg,stim_01/b.jpg,stim_01/a.jpg,1,1,f,5,20,320,4,f,1,0.533196133849,01,03,60.0218460647,PLT_learning_01,A,2014_Mrz_03_1054,P12,
stim_fb/ques.jpg,stim_fb/negf.jpg,stim_fb/posf.jpg,stim_01/a.jpg,stim_01/b.jpg,2,1,j,5,21,321,15,j,1,0.766475750091,01,03,60.0218460647,PLT_learning_01,A,2014_Mrz_03_1054,P12,
stim_fb/ques.jpg,stim_fb/posf.jpg,stim_fb/negf.jpg,stim_01/b.jpg,stim_01/a.jpg,1,1,f,5,22,322,8,f,1,0.649846714862,01,03,60.0218460647,PLT_learning_01,A,2014_Mrz_03_1054,P12,
stim_fb/ques.jpg,stim_fb/negf.jpg,stim_fb/posf.jpg,stim_01/b.jpg,stim_01/a.jpg,1,1,f,5,23,323,7,f,1,0.483190291766,01,03,60.0218460647,PLT_learning_01,A,2014_Mrz_03_1054,P12,
stim_fb/ques.jpg,stim_fb/negf.jpg,stim_fb/posf.jpg,stim_01/c.jpg,stim_01/d.jpg,2,2,j,5,24,324,35,j,1,0.566525689753,01,03,60.0218460647,PLT_learning_01,A,2014_Mrz_03_1054,P12,
stim_fb/ques.jpg,stim_fb/negf.jpg,stim_fb/posf.jpg,stim_01/c.jpg,stim_01/d.jpg,2,2,j,5,25,325,32,j,1,0.549819451807,01,03,60.0218460647,PLT_learning_01,A,2014_Mrz_03_1054,P12,
stim_fb/ques.jpg,stim_fb/posf.jpg,stim_fb/negf.jpg,stim_01/f.jpg,stim_01/e.jpg,1,3,f,5,26,326,49,f,1,0.666469320041,01,03,60.0218460647,PLT_learning_01,A,2014_Mrz_03_1054,P12,
stim_fb/ques.jpg,stim_fb/negf.jpg,stim_fb/posf.jpg,stim_01/c.jpg,stim_01/d.jpg,2,2,j,5,27,327,34,f,0,0.549890362818,01,03,60.0218460647,PLT_learning_01,A,2014_Mrz_03_1054,P12,
stim_fb/ques.jpg,stim_fb/negf.jpg,stim_fb/posf.jpg,stim_01/d.jpg,stim_01/c.jpg,1,2,f,5,28,328,20,f,1,0.566536691215,01,03,60.0218460647,PLT_learning_01,A,2014_Mrz_03_1054,P12,
stim_fb/ques.jpg,stim_fb/negf.jpg,stim_fb/posf.jpg,stim_01/b.jpg,stim_01/a.jpg,1,1,f,5,29,329,0,f,1,0.549842991568,01,03,60.0218460647,PLT_learning_01,A,2014_Mrz_03_1054,P12,
stim_fb/ques.jpg,stim_fb/posf.jpg,stim_fb/negf.jpg,stim_01/a.jpg,stim_01/b.jpg,2,1,j,5,30,330,18,j,1,0.533207751851,01,03,60.0218460647,PLT_learning_01,A,2014_Mrz_03_1054,P12,
stim_fb/ques.jpg,stim_fb/posf.jpg,stim_fb/negf.jpg,stim_01/f.jpg,stim_01/e.jpg,1,3,f,5,31,331,48,f,1,0.899769236958,01,03,60.0218460647,PLT_learning_01,A,2014_Mrz_03_1054,P12,
stim_fb/ques.jpg,stim_fb/negf.jpg,stim_fb/posf.jpg,stim_01/b.jpg,stim_01/a.jpg,1,1,f,5,32,332,5,f,1,0.499878018504,01,03,60.0218460647,PLT_learning_01,A,2014_Mrz_03_1054,P12,
stim_fb/ques.jpg,stim_fb/negf.jpg,stim_fb/posf.jpg,stim_01/a.jpg,stim_01/b.jpg,2,1,j,5,33,333,11,j,1,0.63316527983,01,03,60.0218460647,PLT_learning_01,A,2014_Mrz_03_1054,P12,
stim_fb/ques.jpg,stim_fb/negf.jpg,stim_fb/posf.jpg,stim_01/a.jpg,stim_01/b.jpg,2,1,j,5,34,334,10,j,1,0.58319519701,01,03,60.0218460647,PLT_learning_01,A,2014_Mrz_03_1054,P12,
stim_fb/ques.jpg,stim_fb/negf.jpg,stim_fb/posf.jpg,stim_01/f.jpg,stim_01/e.jpg,1,3,f,5,35,335,42,j,0,0.716486473359,01,03,60.0218460647,PLT_learning_01,A,2014_Mrz_03_1054,P12,
stim_fb/ques.jpg,stim_fb/negf.jpg,stim_fb/posf.jpg,stim_01/d.jpg,stim_01/c.jpg,1,2,f,5,36,336,23,f,1,0.716490653795,01,03,60.0218460647,PLT_learning_01,A,2014_Mrz_03_1054,P12,
stim_fb/ques.jpg,stim_fb/negf.jpg,stim_fb/posf.jpg,stim_01/f.jpg,stim_01/e.jpg,1,3,f,5,37,337,45,j,0,0.733100305638,01,03,60.0218460647,PLT_learning_01,A,2014_Mrz_03_1054,P12,
stim_fb/ques.jpg,stim_fb/negf.jpg,stim_fb/posf.jpg,stim_01/e.jpg,stim_01/f.jpg,2,3,j,5,38,338,53,f,0,0.749795996256,01,03,60.0218460647,PLT_learning_01,A,2014_Mrz_03_1054,P12,
stim_fb/ques.jpg,stim_fb/negf.jpg,stim_fb/posf.jpg,stim_01/a.jpg,stim_01/b.jpg,2,1,j,5,39,339,16,j,1,0.583175434679,01,03,60.0218460647,PLT_learning_01,A,2014_Mrz_03_1054,P12,
stim_fb/ques.jpg,stim_fb/negf.jpg,stim_fb/posf.jpg,stim_01/b.jpg,stim_01/a.jpg,1,1,f,5,40,340,2,f,1,0.516552659577,01,03,60.0218460647,PLT_learning_01,A,2014_Mrz_03_1054,P12,
stim_fb/ques.jpg,stim_fb/negf.jpg,stim_fb/posf.jpg,stim_01/f.jpg,stim_01/e.jpg,1,3,f,5,41,341,40,f,1,0.833088332751,01,03,60.0218460647,PLT_learning_01,A,2014_Mrz_03_1054,P12,
stim_fb/ques.jpg,stim_fb/posf.jpg,stim_fb/negf.jpg,stim_01/b.jpg,stim_01/a.jpg,1,1,f,5,42,342,9,f,1,0.766461677963,01,03,60.0218460647,PLT_learning_01,A,2014_Mrz_03_1054,P12,
stim_fb/ques.jpg,stim_fb/negf.jpg,stim_fb/posf.jpg,stim_01/f.jpg,stim_01/e.jpg,1,3,f,5,43,343,43,f,1,0.83312830854,01,03,60.0218460647,PLT_learning_01,A,2014_Mrz_03_1054,P12,
stim_fb/ques.jpg,stim_fb/negf.jpg,stim_fb/posf.jpg,stim_01/f.jpg,stim_01/e.jpg,1,3,f,5,44,344,44,f,1,0.733163454273,01,03,60.0218460647,PLT_learning_01,A,2014_Mrz_03_1054,P12,
stim_fb/ques.jpg,stim_fb/negf.jpg,stim_fb/posf.jpg,stim_01/a.jpg,stim_01/b.jpg,2,1,j,5,45,345,12,j,1,0.533233679573,01,03,60.0218460647,PLT_learning_01,A,2014_Mrz_03_1054,P12,
stim_fb/ques.jpg,stim_fb/posf.jpg,stim_fb/negf.jpg,stim_01/c.jpg,stim_01/d.jpg,2,2,j,5,46,346,37,j,1,0.799807699971,01,03,60.0218460647,PLT_learning_01,A,2014_Mrz_03_1054,P12,
stim_fb/ques.jpg,stim_fb/posf.jpg,stim_fb/negf.jpg,stim_01/e.jpg,stim_01/f.jpg,2,3,j,5,47,347,59,f,0,0.633168164029,01,03,60.0218460647,PLT_learning_01,A,2014_Mrz_03_1054,P12,
stim_fb/ques.jpg,stim_fb/negf.jpg,stim_fb/posf.jpg,stim_01/e.jpg,stim_01/f.jpg,2,3,j,5,48,348,54,j,1,0.683147242304,01,03,60.0218460647,PLT_learning_01,A,2014_Mrz_03_1054,P12,
stim_fb/ques.jpg,stim_fb/negf.jpg,stim_fb/posf.jpg,stim_01/d.jpg,stim_01/c.jpg,1,2,f,5,49,349,26,f,1,0.549902395856,01,03,60.0218460647,PLT_learning_01,A,2014_Mrz_03_1054,P12,
stim_fb/ques.jpg,stim_fb/negf.jpg,stim_fb/posf.jpg,stim_01/c.jpg,stim_01/d.jpg,2,2,j,5,50,350,31,j,1,0.583195464679,01,03,60.0218460647,PLT_learning_01,A,2014_Mrz_03_1054,P12,
stim_fb/ques.jpg,stim_fb/posf.jpg,stim_fb/negf.jpg,stim_01/e.jpg,stim_01/f.jpg,2,3,j,5,51,351,56,f,0,0.449924052917,01,03,60.0218460647,PLT_learning_01,A,2014_Mrz_03_1054,P12,
stim_fb/ques.jpg,stim_fb/posf.jpg,stim_fb/negf.jpg,stim_01/a.jpg,stim_01/b.jpg,2,1,j,5,52,352,19,j,1,0.933068675682,01,03,60.0218460647,PLT_learning_01,A,2014_Mrz_03_1054,P12,
stim_fb/ques.jpg,stim_fb/posf.jpg,stim_fb/negf.jpg,stim_01/e.jpg,stim_01/f.jpg,2,3,j,5,53,353,58,j,1,0.983074758366,01,03,60.0218460647,PLT_learning_01,A,2014_Mrz_03_1054,P12,
stim_fb/ques.jpg,stim_fb/negf.jpg,stim_fb/posf.jpg,stim_01/a.jpg,stim_01/b.jpg,2,1,j,5,54,354,17,j,1,0.499860716313,01,03,60.0218460647,PLT_learning_01,A,2014_Mrz_03_1054,P12,
stim_fb/ques.jpg,stim_fb/posf.jpg,stim_fb/negf.jpg,stim_01/e.jpg,stim_01/f.jpg,2,3,j,5,55,355,57,f,0,0.716488641772,01,03,60.0218460647,PLT_learning_01,A,2014_Mrz_03_1054,P12,
stim_fb/ques.jpg,stim_fb/negf.jpg,stim_fb/posf.jpg,stim_01/b.jpg,stim_01/a.jpg,1,1,f,5,56,356,6,f,1,0.699809026282,01,03,60.0218460647,PLT_learning_01,A,2014_Mrz_03_1054,P12,
stim_fb/ques.jpg,stim_fb/posf.jpg,stim_fb/negf.jpg,stim_01/c.jpg,stim_01/d.jpg,2,2,j,5,57,357,39,j,1,0.599844487802,01,03,60.0218460647,PLT_learning_01,A,2014_Mrz_03_1054,P12,
stim_fb/ques.jpg,stim_fb/negf.jpg,stim_fb/posf.jpg,stim_01/b.jpg,stim_01/a.jpg,1,1,f,5,58,358,1,f,1,0.566603680437,01,03,60.0218460647,PLT_learning_01,A,2014_Mrz_03_1054,P12,
stim_fb/ques.jpg,stim_fb/negf.jpg,stim_fb/posf.jpg,stim_01/e.jpg,stim_01/f.jpg,2,3,j,5,59,359,51,j,1,0.866430652516,01,03,60.0218460647,PLT_learning_01,A,2014_Mrz_03_1054,P12,
