Fb3,Fb2,Fb1,Symbol2,Symbol1,PosCond,Pair,Correct,trials.thisRepN,trials.thisTrialN,trials.thisN,trials.thisIndex,Response.keys,Response.corr,Response.rt,Version,Session Number,frameRate,expName,StimCondition,date,Participant,
stim_fb/ques.jpg,stim_fb/negf.jpg,stim_fb/posf.jpg,stim_02/e.jpg,stim_02/f.jpg,2,3,j,0,0,0,54,f,0,0.916421329163,02,02,60.0196902816,PLT_learning_02,A,2014_Feb_24_1058,P13,
stim_fb/ques.jpg,stim_fb/negf.jpg,stim_fb/posf.jpg,stim_02/c.jpg,stim_02/d.jpg,2,2,j,0,1,1,30,f,0,0.949741911715,02,02,60.0196902816,PLT_learning_02,A,2014_Feb_24_1058,P13,
stim_fb/ques.jpg,stim_fb/negf.jpg,stim_fb/posf.jpg,stim_02/b.jpg,stim_02/a.jpg,1,1,f,0,2,2,3,f,1,0.999737436561,02,02,60.0196902816,PLT_learning_02,A,2014_Feb_24_1058,P13,
stim_fb/ques.jpg,stim_fb/negf.jpg,stim_fb/posf.jpg,stim_02/e.jpg,stim_02/f.jpg,2,3,j,0,3,3,50,f,0,0.933122905843,02,02,60.0196902816,PLT_learning_02,A,2014_Feb_24_1058,P13,
stim_fb/ques.jpg,stim_fb/posf.jpg,stim_fb/negf.jpg,stim_02/a.jpg,stim_02/b.jpg,2,1,j,0,4,4,18,f,0,0.766464552898,02,02,60.0196902816,PLT_learning_02,A,2014_Feb_24_1058,P13,
stim_fb/ques.jpg,stim_fb/negf.jpg,stim_fb/posf.jpg,stim_02/a.jpg,stim_02/b.jpg,2,1,j,0,5,5,12,j,1,1.43292032391,02,02,60.0196902816,PLT_learning_02,A,2014_Feb_24_1058,P13,
stim_fb/ques.jpg,stim_fb/negf.jpg,stim_fb/posf.jpg,stim_02/b.jpg,stim_02/a.jpg,1,1,f,0,6,6,7,f,1,0.866431825325,02,02,60.0196902816,PLT_learning_02,A,2014_Feb_24_1058,P13,
stim_fb/ques.jpg,stim_fb/negf.jpg,stim_fb/posf.jpg,stim_02/d.jpg,stim_02/c.jpg,1,2,f,0,7,7,23,j,0,1.04970184886,02,02,60.0196902816,PLT_learning_02,A,2014_Feb_24_1058,P13,
stim_fb/ques.jpg,stim_fb/negf.jpg,stim_fb/posf.jpg,stim_02/b.jpg,stim_02/a.jpg,1,1,f,0,8,8,6,f,1,1.08300438944,02,02,60.0196902816,PLT_learning_02,A,2014_Feb_24_1058,P13,
stim_fb/ques.jpg,stim_fb/negf.jpg,stim_fb/posf.jpg,stim_02/b.jpg,stim_02/a.jpg,1,1,f,0,9,9,0,f,1,0.666503930046,02,02,60.0196902816,PLT_learning_02,A,2014_Feb_24_1058,P13,
stim_fb/ques.jpg,stim_fb/negf.jpg,stim_fb/posf.jpg,stim_02/c.jpg,stim_02/d.jpg,2,2,j,0,10,10,31,j,1,1.23298410087,02,02,60.0196902816,PLT_learning_02,A,2014_Feb_24_1058,P13,
stim_fb/ques.jpg,stim_fb/posf.jpg,stim_fb/negf.jpg,stim_02/e.jpg,stim_02/f.jpg,2,3,j,0,11,11,59,j,1,1.34959665566,02,02,60.0196902816,PLT_learning_02,A,2014_Feb_24_1058,P13,
stim_fb/ques.jpg,stim_fb/negf.jpg,stim_fb/posf.jpg,stim_02/e.jpg,stim_02/f.jpg,2,3,j,0,12,12,53,f,0,0.683155696574,02,02,60.0196902816,PLT_learning_02,A,2014_Feb_24_1058,P13,
stim_fb/ques.jpg,stim_fb/negf.jpg,stim_fb/posf.jpg,stim_02/d.jpg,stim_02/c.jpg,1,2,f,0,13,13,26,j,0,0.933070864129,02,02,60.0196902816,PLT_learning_02,A,2014_Feb_24_1058,P13,
stim_fb/ques.jpg,stim_fb/negf.jpg,stim_fb/posf.jpg,stim_02/d.jpg,stim_02/c.jpg,1,2,f,0,14,14,24,f,1,0.499842762084,02,02,60.0196902816,PLT_learning_02,A,2014_Feb_24_1058,P13,
stim_fb/ques.jpg,stim_fb/posf.jpg,stim_fb/negf.jpg,stim_02/a.jpg,stim_02/b.jpg,2,1,j,0,15,15,19,j,1,1.31629381433,02,02,60.0196902816,PLT_learning_02,A,2014_Feb_24_1058,P13,
stim_fb/ques.jpg,stim_fb/negf.jpg,stim_fb/posf.jpg,stim_02/f.jpg,stim_02/e.jpg,1,3,f,0,16,16,43,j,0,0.999734077187,02,02,60.0196902816,PLT_learning_02,A,2014_Feb_24_1058,P13,
stim_fb/ques.jpg,stim_fb/posf.jpg,stim_fb/negf.jpg,stim_02/e.jpg,stim_02/f.jpg,2,3,j,0,17,17,56,f,0,1.16632181111,02,02,60.0196902816,PLT_learning_02,A,2014_Feb_24_1058,P13,
stim_fb/ques.jpg,stim_fb/posf.jpg,stim_fb/negf.jpg,stim_02/e.jpg,stim_02/f.jpg,2,3,j,0,18,18,58,f,0,0.549898160164,02,02,60.0196902816,PLT_learning_02,A,2014_Feb_24_1058,P13,
stim_fb/ques.jpg,stim_fb/negf.jpg,stim_fb/posf.jpg,stim_02/b.jpg,stim_02/a.jpg,1,1,f,0,19,19,2,f,1,1.19965594244,02,02,60.0196902816,PLT_learning_02,A,2014_Feb_24_1058,P13,
stim_fb/ques.jpg,stim_fb/negf.jpg,stim_fb/posf.jpg,stim_02/c.jpg,stim_02/d.jpg,2,2,j,0,20,20,35,j,1,1.26630516462,02,02,60.0196902816,PLT_learning_02,A,2014_Feb_24_1058,P13,
stim_fb/ques.jpg,stim_fb/negf.jpg,stim_fb/posf.jpg,stim_02/d.jpg,stim_02/c.jpg,1,2,f,0,21,21,25,f,1,0.966388177533,02,02,60.0196902816,PLT_learning_02,A,2014_Feb_24_1058,P13,
stim_fb/ques.jpg,stim_fb/posf.jpg,stim_fb/negf.jpg,stim_02/d.jpg,stim_02/c.jpg,1,2,f,0,22,22,27,f,1,0.933063014564,02,02,60.0196902816,PLT_learning_02,A,2014_Feb_24_1058,P13,
stim_fb/ques.jpg,stim_fb/posf.jpg,stim_fb/negf.jpg,stim_02/f.jpg,stim_02/e.jpg,1,3,f,0,23,23,47,j,0,0.983035008759,02,02,60.0196902816,PLT_learning_02,A,2014_Feb_24_1058,P13,
stim_fb/ques.jpg,stim_fb/negf.jpg,stim_fb/posf.jpg,stim_02/d.jpg,stim_02/c.jpg,1,2,f,0,24,24,21,f,1,1.03303329749,02,02,60.0196902816,PLT_learning_02,A,2014_Feb_24_1058,P13,
stim_fb/ques.jpg,stim_fb/negf.jpg,stim_fb/posf.jpg,stim_02/a.jpg,stim_02/b.jpg,2,1,j,0,25,25,17,j,1,1.04972078706,02,02,60.0196902816,PLT_learning_02,A,2014_Feb_24_1058,P13,
stim_fb/ques.jpg,stim_fb/negf.jpg,stim_fb/posf.jpg,stim_02/c.jpg,stim_02/d.jpg,2,2,j,0,26,26,33,j,1,1.06636299276,02,02,60.0196902816,PLT_learning_02,A,2014_Feb_24_1058,P13,
stim_fb/ques.jpg,stim_fb/posf.jpg,stim_fb/negf.jpg,stim_02/b.jpg,stim_02/a.jpg,1,1,f,0,27,27,8,f,1,0.983047778588,02,02,60.0196902816,PLT_learning_02,A,2014_Feb_24_1058,P13,
stim_fb/ques.jpg,stim_fb/negf.jpg,stim_fb/posf.jpg,stim_02/d.jpg,stim_02/c.jpg,1,2,f,0,28,28,20,f,1,1.06636824686,02,02,60.0196902816,PLT_learning_02,A,2014_Feb_24_1058,P13,
stim_fb/ques.jpg,stim_fb/posf.jpg,stim_fb/negf.jpg,stim_02/c.jpg,stim_02/d.jpg,2,2,j,0,29,29,38,f,0,1.03307578439,02,02,60.0196902816,PLT_learning_02,A,2014_Feb_24_1058,P13,
stim_fb/ques.jpg,stim_fb/negf.jpg,stim_fb/posf.jpg,stim_02/a.jpg,stim_02/b.jpg,2,1,j,0,30,30,14,j,1,1.04970156615,02,02,60.0196902816,PLT_learning_02,A,2014_Feb_24_1058,P13,
stim_fb/ques.jpg,stim_fb/posf.jpg,stim_fb/negf.jpg,stim_02/c.jpg,stim_02/d.jpg,2,2,j,0,31,31,37,f,0,0.716353161254,02,02,60.0196902816,PLT_learning_02,A,2014_Feb_24_1058,P13,
stim_fb/ques.jpg,stim_fb/posf.jpg,stim_fb/negf.jpg,stim_02/d.jpg,stim_02/c.jpg,1,2,f,0,32,32,29,f,1,1.0496908715,02,02,60.0196902816,PLT_learning_02,A,2014_Feb_24_1058,P13,
stim_fb/ques.jpg,stim_fb/posf.jpg,stim_fb/negf.jpg,stim_02/f.jpg,stim_02/e.jpg,1,3,f,0,33,33,48,j,0,1.41623692453,02,02,60.0196902816,PLT_learning_02,A,2014_Feb_24_1058,P13,
stim_fb/ques.jpg,stim_fb/negf.jpg,stim_fb/posf.jpg,stim_02/f.jpg,stim_02/e.jpg,1,3,f,0,34,34,44,j,0,0.716529174969,02,02,60.0196902816,PLT_learning_02,A,2014_Feb_24_1058,P13,
stim_fb/ques.jpg,stim_fb/negf.jpg,stim_fb/posf.jpg,stim_02/b.jpg,stim_02/a.jpg,1,1,f,0,35,35,5,f,1,0.94968260389,02,02,60.0196902816,PLT_learning_02,A,2014_Feb_24_1058,P13,
stim_fb/ques.jpg,stim_fb/negf.jpg,stim_fb/posf.jpg,stim_02/f.jpg,stim_02/e.jpg,1,3,f,0,36,36,41,j,0,0.833123868242,02,02,60.0196902816,PLT_learning_02,A,2014_Feb_24_1058,P13,
stim_fb/ques.jpg,stim_fb/negf.jpg,stim_fb/posf.jpg,stim_02/a.jpg,stim_02/b.jpg,2,1,j,0,37,37,11,j,1,0.816475713716,02,02,60.0196902816,PLT_learning_02,A,2014_Feb_24_1058,P13,
stim_fb/ques.jpg,stim_fb/negf.jpg,stim_fb/posf.jpg,stim_02/f.jpg,stim_02/e.jpg,1,3,f,0,38,38,40,j,0,0.883053390576,02,02,60.0196902816,PLT_learning_02,A,2014_Feb_24_1058,P13,
stim_fb/ques.jpg,stim_fb/negf.jpg,stim_fb/posf.jpg,stim_02/f.jpg,stim_02/e.jpg,1,3,f,0,39,39,45,j,0,0.56652026075,02,02,60.0196902816,PLT_learning_02,A,2014_Feb_24_1058,P13,
stim_fb/ques.jpg,stim_fb/negf.jpg,stim_fb/posf.jpg,stim_02/c.jpg,stim_02/d.jpg,2,2,j,0,40,40,32,j,1,0.916419801355,02,02,60.0196902816,PLT_learning_02,A,2014_Feb_24_1058,P13,
stim_fb/ques.jpg,stim_fb/negf.jpg,stim_fb/posf.jpg,stim_02/a.jpg,stim_02/b.jpg,2,1,j,0,41,41,16,j,1,0.64983074413,02,02,60.0196902816,PLT_learning_02,A,2014_Feb_24_1058,P13,
stim_fb/ques.jpg,stim_fb/posf.jpg,stim_fb/negf.jpg,stim_02/f.jpg,stim_02/e.jpg,1,3,f,0,42,42,46,j,0,1.14971776754,02,02,60.0196902816,PLT_learning_02,A,2014_Feb_24_1058,P13,
stim_fb/ques.jpg,stim_fb/negf.jpg,stim_fb/posf.jpg,stim_02/e.jpg,stim_02/f.jpg,2,3,j,0,43,43,52,f,0,0.883081534725,02,02,60.0196902816,PLT_learning_02,A,2014_Feb_24_1058,P13,
stim_fb/ques.jpg,stim_fb/posf.jpg,stim_fb/negf.jpg,stim_02/c.jpg,stim_02/d.jpg,2,2,j,0,44,44,39,j,1,1.19967091977,02,02,60.0196902816,PLT_learning_02,A,2014_Feb_24_1058,P13,
stim_fb/ques.jpg,stim_fb/negf.jpg,stim_fb/posf.jpg,stim_02/c.jpg,stim_02/d.jpg,2,2,j,0,45,45,34,j,1,0.749737168893,02,02,60.0196902816,PLT_learning_02,A,2014_Feb_24_1058,P13,
stim_fb/ques.jpg,stim_fb/negf.jpg,stim_fb/posf.jpg,stim_02/a.jpg,stim_02/b.jpg,2,1,j,0,46,46,13,j,1,0.683122641183,02,02,60.0196902816,PLT_learning_02,A,2014_Feb_24_1058,P13,
stim_fb/ques.jpg,stim_fb/negf.jpg,stim_fb/posf.jpg,stim_02/b.jpg,stim_02/a.jpg,1,1,f,0,47,47,4,f,1,1.09967939489,02,02,60.0196902816,PLT_learning_02,A,2014_Feb_24_1058,P13,
stim_fb/ques.jpg,stim_fb/negf.jpg,stim_fb/posf.jpg,stim_02/a.jpg,stim_02/b.jpg,2,1,j,0,48,48,10,j,1,1.18299741205,02,02,60.0196902816,PLT_learning_02,A,2014_Feb_24_1058,P13,
stim_fb/ques.jpg,stim_fb/negf.jpg,stim_fb/posf.jpg,stim_02/c.jpg,stim_02/d.jpg,2,2,j,0,49,49,36,j,1,0.916410893151,02,02,60.0196902816,PLT_learning_02,A,2014_Feb_24_1058,P13,
stim_fb/ques.jpg,stim_fb/negf.jpg,stim_fb/posf.jpg,stim_02/e.jpg,stim_02/f.jpg,2,3,j,0,50,50,51,f,0,0.74976971301,02,02,60.0196902816,PLT_learning_02,A,2014_Feb_24_1058,P13,
stim_fb/ques.jpg,stim_fb/negf.jpg,stim_fb/posf.jpg,stim_02/f.jpg,stim_02/e.jpg,1,3,f,0,51,51,42,j,0,0.716471500214,02,02,60.0196902816,PLT_learning_02,A,2014_Feb_24_1058,P13,
stim_fb/ques.jpg,stim_fb/posf.jpg,stim_fb/negf.jpg,stim_02/b.jpg,stim_02/a.jpg,1,1,f,0,52,52,9,f,1,1.01638416253,02,02,60.0196902816,PLT_learning_02,A,2014_Feb_24_1058,P13,
stim_fb/ques.jpg,stim_fb/negf.jpg,stim_fb/posf.jpg,stim_02/e.jpg,stim_02/f.jpg,2,3,j,0,53,53,55,f,0,0.833110875858,02,02,60.0196902816,PLT_learning_02,A,2014_Feb_24_1058,P13,
stim_fb/ques.jpg,stim_fb/negf.jpg,stim_fb/posf.jpg,stim_02/d.jpg,stim_02/c.jpg,1,2,f,0,54,54,22,f,1,0.949733668168,02,02,60.0196902816,PLT_learning_02,A,2014_Feb_24_1058,P13,
stim_fb/ques.jpg,stim_fb/posf.jpg,stim_fb/negf.jpg,stim_02/f.jpg,stim_02/e.jpg,1,3,f,0,55,55,49,j,0,0.766450510898,02,02,60.0196902816,PLT_learning_02,A,2014_Feb_24_1058,P13,
stim_fb/ques.jpg,stim_fb/negf.jpg,stim_fb/posf.jpg,stim_02/a.jpg,stim_02/b.jpg,2,1,j,0,56,56,15,j,1,0.83306974534,02,02,60.0196902816,PLT_learning_02,A,2014_Feb_24_1058,P13,
stim_fb/ques.jpg,stim_fb/posf.jpg,stim_fb/negf.jpg,stim_02/e.jpg,stim_02/f.jpg,2,3,j,0,57,57,57,f,0,0.633177624228,02,02,60.0196902816,PLT_learning_02,A,2014_Feb_24_1058,P13,
stim_fb/ques.jpg,stim_fb/posf.jpg,stim_fb/negf.jpg,stim_02/d.jpg,stim_02/c.jpg,1,2,f,0,58,58,28,f,1,0.749797947384,02,02,60.0196902816,PLT_learning_02,A,2014_Feb_24_1058,P13,
stim_fb/ques.jpg,stim_fb/negf.jpg,stim_fb/posf.jpg,stim_02/b.jpg,stim_02/a.jpg,1,1,f,0,59,59,1,f,1,0.83308997376,02,02,60.0196902816,PLT_learning_02,A,2014_Feb_24_1058,P13,
stim_fb/ques.jpg,stim_fb/negf.jpg,stim_fb/posf.jpg,stim_02/c.jpg,stim_02/d.jpg,2,2,j,1,0,60,35,j,1,1.41623921625,02,02,60.0196902816,PLT_learning_02,A,2014_Feb_24_1058,P13,
stim_fb/ques.jpg,stim_fb/posf.jpg,stim_fb/negf.jpg,stim_02/b.jpg,stim_02/a.jpg,1,1,f,1,1,61,9,f,1,1.14954991617,02,02,60.0196902816,PLT_learning_02,A,2014_Feb_24_1058,P13,
stim_fb/ques.jpg,stim_fb/negf.jpg,stim_fb/posf.jpg,stim_02/f.jpg,stim_02/e.jpg,1,3,f,1,2,62,44,j,0,0.68317250547,02,02,60.0196902816,PLT_learning_02,A,2014_Feb_24_1058,P13,
stim_fb/ques.jpg,stim_fb/negf.jpg,stim_fb/posf.jpg,stim_02/a.jpg,stim_02/b.jpg,2,1,j,1,3,63,10,j,1,0.699823841926,02,02,60.0196902816,PLT_learning_02,A,2014_Feb_24_1058,P13,
stim_fb/ques.jpg,stim_fb/negf.jpg,stim_fb/posf.jpg,stim_02/a.jpg,stim_02/b.jpg,2,1,j,1,4,64,17,j,1,0.716492697047,02,02,60.0196902816,PLT_learning_02,A,2014_Feb_24_1058,P13,
stim_fb/ques.jpg,stim_fb/negf.jpg,stim_fb/posf.jpg,stim_02/f.jpg,stim_02/e.jpg,1,3,f,1,5,65,43,j,0,1.06639259855,02,02,60.0196902816,PLT_learning_02,A,2014_Feb_24_1058,P13,
stim_fb/ques.jpg,stim_fb/posf.jpg,stim_fb/negf.jpg,stim_02/e.jpg,stim_02/f.jpg,2,3,j,1,6,66,59,f,0,0.649819796844,02,02,60.0196902816,PLT_learning_02,A,2014_Feb_24_1058,P13,
stim_fb/ques.jpg,stim_fb/negf.jpg,stim_fb/posf.jpg,stim_02/f.jpg,stim_02/e.jpg,1,3,f,1,7,67,45,j,0,0.59986591379,02,02,60.0196902816,PLT_learning_02,A,2014_Feb_24_1058,P13,
stim_fb/ques.jpg,stim_fb/negf.jpg,stim_fb/posf.jpg,stim_02/e.jpg,stim_02/f.jpg,2,3,j,1,8,68,53,f,0,0.816446192134,02,02,60.0196902816,PLT_learning_02,A,2014_Feb_24_1058,P13,
stim_fb/ques.jpg,stim_fb/negf.jpg,stim_fb/posf.jpg,stim_02/c.jpg,stim_02/d.jpg,2,2,j,1,9,69,30,f,0,1.54953766363,02,02,60.0196902816,PLT_learning_02,A,2014_Feb_24_1058,P13,
stim_fb/ques.jpg,stim_fb/negf.jpg,stim_fb/posf.jpg,stim_02/b.jpg,stim_02/a.jpg,1,1,f,1,10,70,4,f,1,0.749775535522,02,02,60.0196902816,PLT_learning_02,A,2014_Feb_24_1058,P13,
stim_fb/ques.jpg,stim_fb/posf.jpg,stim_fb/negf.jpg,stim_02/b.jpg,stim_02/a.jpg,1,1,f,1,11,71,8,f,1,0.849801153375,02,02,60.0196902816,PLT_learning_02,A,2014_Feb_24_1058,P13,
stim_fb/ques.jpg,stim_fb/posf.jpg,stim_fb/negf.jpg,stim_02/f.jpg,stim_02/e.jpg,1,3,f,1,12,72,49,j,0,0.949718606627,02,02,60.0196902816,PLT_learning_02,A,2014_Feb_24_1058,P13,
stim_fb/ques.jpg,stim_fb/negf.jpg,stim_fb/posf.jpg,stim_02/d.jpg,stim_02/c.jpg,1,2,f,1,13,73,24,f,1,1.09968085052,02,02,60.0196902816,PLT_learning_02,A,2014_Feb_24_1058,P13,
stim_fb/ques.jpg,stim_fb/negf.jpg,stim_fb/posf.jpg,stim_02/b.jpg,stim_02/a.jpg,1,1,f,1,14,74,3,f,1,1.21631897505,02,02,60.0196902816,PLT_learning_02,A,2014_Feb_24_1058,P13,
stim_fb/ques.jpg,stim_fb/posf.jpg,stim_fb/negf.jpg,stim_02/e.jpg,stim_02/f.jpg,2,3,j,1,15,75,58,f,0,0.999734017038,02,02,60.0196902816,PLT_learning_02,A,2014_Feb_24_1058,P13,
stim_fb/ques.jpg,stim_fb/posf.jpg,stim_fb/negf.jpg,stim_02/a.jpg,stim_02/b.jpg,2,1,j,1,16,76,18,j,1,0.933055501838,02,02,60.0196902816,PLT_learning_02,A,2014_Feb_24_1058,P13,
stim_fb/ques.jpg,stim_fb/negf.jpg,stim_fb/posf.jpg,stim_02/d.jpg,stim_02/c.jpg,1,2,f,1,17,77,25,f,1,0.89973964707,02,02,60.0196902816,PLT_learning_02,A,2014_Feb_24_1058,P13,
stim_fb/ques.jpg,stim_fb/negf.jpg,stim_fb/posf.jpg,stim_02/f.jpg,stim_02/e.jpg,1,3,f,1,18,78,41,j,0,0.849745265073,02,02,60.0196902816,PLT_learning_02,A,2014_Feb_24_1058,P13,
stim_fb/ques.jpg,stim_fb/negf.jpg,stim_fb/posf.jpg,stim_02/d.jpg,stim_02/c.jpg,1,2,f,1,19,79,26,f,1,1.1496243126,02,02,60.0196902816,PLT_learning_02,A,2014_Feb_24_1058,P13,
stim_fb/ques.jpg,stim_fb/posf.jpg,stim_fb/negf.jpg,stim_02/e.jpg,stim_02/f.jpg,2,3,j,1,20,80,57,f,0,0.933070175412,02,02,60.0196902816,PLT_learning_02,A,2014_Feb_24_1058,P13,
stim_fb/ques.jpg,stim_fb/negf.jpg,stim_fb/posf.jpg,stim_02/d.jpg,stim_02/c.jpg,1,2,f,1,21,81,22,f,1,1.09969027301,02,02,60.0196902816,PLT_learning_02,A,2014_Feb_24_1058,P13,
stim_fb/ques.jpg,stim_fb/negf.jpg,stim_fb/posf.jpg,stim_02/b.jpg,stim_02/a.jpg,1,1,f,1,22,82,1,f,1,0.799752522161,02,02,60.0196902816,PLT_learning_02,A,2014_Feb_24_1058,P13,
stim_fb/ques.jpg,stim_fb/posf.jpg,stim_fb/negf.jpg,stim_02/c.jpg,stim_02/d.jpg,2,2,j,1,23,83,37,j,1,0.833074455079,02,02,60.0196902816,PLT_learning_02,A,2014_Feb_24_1058,P13,
stim_fb/ques.jpg,stim_fb/negf.jpg,stim_fb/posf.jpg,stim_02/c.jpg,stim_02/d.jpg,2,2,j,1,24,84,36,j,1,1.03301117435,02,02,60.0196902816,PLT_learning_02,A,2014_Feb_24_1058,P13,
stim_fb/ques.jpg,stim_fb/negf.jpg,stim_fb/posf.jpg,stim_02/a.jpg,stim_02/b.jpg,2,1,j,1,25,85,15,j,1,1.19957618965,02,02,60.0196902816,PLT_learning_02,A,2014_Feb_24_1058,P13,
stim_fb/ques.jpg,stim_fb/negf.jpg,stim_fb/posf.jpg,stim_02/c.jpg,stim_02/d.jpg,2,2,j,1,26,86,34,j,1,1.18299569778,02,02,60.0196902816,PLT_learning_02,A,2014_Feb_24_1058,P13,
stim_fb/ques.jpg,stim_fb/posf.jpg,stim_fb/negf.jpg,stim_02/d.jpg,stim_02/c.jpg,1,2,f,1,27,87,29,f,1,1.18298939406,02,02,60.0196902816,PLT_learning_02,A,2014_Feb_24_1058,P13,
stim_fb/ques.jpg,stim_fb/negf.jpg,stim_fb/posf.jpg,stim_02/b.jpg,stim_02/a.jpg,1,1,f,1,28,88,7,f,1,1.16634247863,02,02,60.0196902816,PLT_learning_02,A,2014_Feb_24_1058,P13,
stim_fb/ques.jpg,stim_fb/posf.jpg,stim_fb/negf.jpg,stim_02/e.jpg,stim_02/f.jpg,2,3,j,1,29,89,56,f,0,0.916413638995,02,02,60.0196902816,PLT_learning_02,A,2014_Feb_24_1058,P13,
stim_fb/ques.jpg,stim_fb/posf.jpg,stim_fb/negf.jpg,stim_02/f.jpg,stim_02/e.jpg,1,3,f,1,30,90,46,j,0,0.799816912655,02,02,60.0196902816,PLT_learning_02,A,2014_Feb_24_1058,P13,
stim_fb/ques.jpg,stim_fb/negf.jpg,stim_fb/posf.jpg,stim_02/c.jpg,stim_02/d.jpg,2,2,j,1,31,91,33,f,0,1.03301237434,02,02,60.0196902816,PLT_learning_02,A,2014_Feb_24_1058,P13,
stim_fb/ques.jpg,stim_fb/negf.jpg,stim_fb/posf.jpg,stim_02/b.jpg,stim_02/a.jpg,1,1,f,1,32,92,5,f,1,1.49955107706,02,02,60.0196902816,PLT_learning_02,A,2014_Feb_24_1058,P13,
stim_fb/ques.jpg,stim_fb/negf.jpg,stim_fb/posf.jpg,stim_02/d.jpg,stim_02/c.jpg,1,2,f,1,33,93,23,f,1,1.13299406771,02,02,60.0196902816,PLT_learning_02,A,2014_Feb_24_1058,P13,
stim_fb/ques.jpg,stim_fb/negf.jpg,stim_fb/posf.jpg,stim_02/b.jpg,stim_02/a.jpg,1,1,f,1,34,94,0,f,1,0.849767697987,02,02,60.0196902816,PLT_learning_02,A,2014_Feb_24_1058,P13,
stim_fb/ques.jpg,stim_fb/negf.jpg,stim_fb/posf.jpg,stim_02/d.jpg,stim_02/c.jpg,1,2,f,1,35,95,20,f,1,1.61618604973,02,02,60.0196902816,PLT_learning_02,A,2014_Feb_24_1058,P13,
stim_fb/ques.jpg,stim_fb/negf.jpg,stim_fb/posf.jpg,stim_02/f.jpg,stim_02/e.jpg,1,3,f,1,36,96,40,j,0,1.24963373508,02,02,60.0196902816,PLT_learning_02,A,2014_Feb_24_1058,P13,
stim_fb/ques.jpg,stim_fb/negf.jpg,stim_fb/posf.jpg,stim_02/c.jpg,stim_02/d.jpg,2,2,j,1,37,97,31,j,1,1.04970322328,02,02,60.0196902816,PLT_learning_02,A,2014_Feb_24_1058,P13,
stim_fb/ques.jpg,stim_fb/negf.jpg,stim_fb/posf.jpg,stim_02/e.jpg,stim_02/f.jpg,2,3,j,1,38,98,54,f,0,0.68315025902,02,02,60.0196902816,PLT_learning_02,A,2014_Feb_24_1058,P13,
stim_fb/ques.jpg,stim_fb/posf.jpg,stim_fb/negf.jpg,stim_02/d.jpg,stim_02/c.jpg,1,2,f,1,39,99,28,f,1,0.899766404764,02,02,60.0196902816,PLT_learning_02,A,2014_Feb_24_1058,P13,
stim_fb/ques.jpg,stim_fb/negf.jpg,stim_fb/posf.jpg,stim_02/b.jpg,stim_02/a.jpg,1,1,f,1,40,100,6,f,1,0.666513626214,02,02,60.0196902816,PLT_learning_02,A,2014_Feb_24_1058,P13,
stim_fb/ques.jpg,stim_fb/negf.jpg,stim_fb/posf.jpg,stim_02/b.jpg,stim_02/a.jpg,1,1,f,1,41,101,2,f,1,0.516597024083,02,02,60.0196902816,PLT_learning_02,A,2014_Feb_24_1058,P13,
stim_fb/ques.jpg,stim_fb/negf.jpg,stim_fb/posf.jpg,stim_02/e.jpg,stim_02/f.jpg,2,3,j,1,42,102,52,f,0,0.899793057195,02,02,60.0196902816,PLT_learning_02,A,2014_Feb_24_1058,P13,
stim_fb/ques.jpg,stim_fb/posf.jpg,stim_fb/negf.jpg,stim_02/c.jpg,stim_02/d.jpg,2,2,j,1,43,103,39,f,0,0.61647895279,02,02,60.0196902816,PLT_learning_02,A,2014_Feb_24_1058,P13,
stim_fb/ques.jpg,stim_fb/posf.jpg,stim_fb/negf.jpg,stim_02/d.jpg,stim_02/c.jpg,1,2,f,1,44,104,27,f,1,1.11636122736,02,02,60.0196902816,PLT_learning_02,A,2014_Feb_24_1058,P13,
stim_fb/ques.jpg,stim_fb/posf.jpg,stim_fb/negf.jpg,stim_02/c.jpg,stim_02/d.jpg,2,2,j,1,45,105,38,j,1,0.999723779521,02,02,60.0196902816,PLT_learning_02,A,2014_Feb_24_1058,P13,
stim_fb/ques.jpg,stim_fb/negf.jpg,stim_fb/posf.jpg,stim_02/c.jpg,stim_02/d.jpg,2,2,j,1,46,106,32,j,1,0.916454703348,02,02,60.0196902816,PLT_learning_02,A,2014_Feb_24_1058,P13,
stim_fb/ques.jpg,stim_fb/posf.jpg,stim_fb/negf.jpg,stim_02/f.jpg,stim_02/e.jpg,1,3,f,1,47,107,48,j,0,1.03302814565,02,02,60.0196902816,PLT_learning_02,A,2014_Feb_24_1058,P13,
stim_fb/ques.jpg,stim_fb/negf.jpg,stim_fb/posf.jpg,stim_02/f.jpg,stim_02/e.jpg,1,3,f,1,48,108,42,j,0,0.549849537973,02,02,60.0196902816,PLT_learning_02,A,2014_Feb_24_1058,P13,
stim_fb/ques.jpg,stim_fb/negf.jpg,stim_fb/posf.jpg,stim_02/e.jpg,stim_02/f.jpg,2,3,j,1,49,109,50,f,0,0.599860581499,02,02,60.0196902816,PLT_learning_02,A,2014_Feb_24_1058,P13,
stim_fb/ques.jpg,stim_fb/negf.jpg,stim_fb/posf.jpg,stim_02/e.jpg,stim_02/f.jpg,2,3,j,1,50,110,51,f,0,0.683154084556,02,02,60.0196902816,PLT_learning_02,A,2014_Feb_24_1058,P13,
stim_fb/ques.jpg,stim_fb/negf.jpg,stim_fb/posf.jpg,stim_02/a.jpg,stim_02/b.jpg,2,1,j,1,51,111,13,j,1,0.849769923534,02,02,60.0196902816,PLT_learning_02,A,2014_Feb_24_1058,P13,
stim_fb/ques.jpg,stim_fb/negf.jpg,stim_fb/posf.jpg,stim_02/e.jpg,stim_02/f.jpg,2,3,j,1,52,112,55,f,0,0.68312943211,02,02,60.0196902816,PLT_learning_02,A,2014_Feb_24_1058,P13,
stim_fb/ques.jpg,stim_fb/posf.jpg,stim_fb/negf.jpg,stim_02/f.jpg,stim_02/e.jpg,1,3,f,1,53,113,47,j,0,0.716454676281,02,02,60.0196902816,PLT_learning_02,A,2014_Feb_24_1058,P13,
stim_fb/ques.jpg,stim_fb/negf.jpg,stim_fb/posf.jpg,stim_02/a.jpg,stim_02/b.jpg,2,1,j,1,54,114,12,j,1,0.849757466485,02,02,60.0196902816,PLT_learning_02,A,2014_Feb_24_1058,P13,
stim_fb/ques.jpg,stim_fb/negf.jpg,stim_fb/posf.jpg,stim_02/a.jpg,stim_02/b.jpg,2,1,j,1,55,115,14,j,1,0.949743192908,02,02,60.0196902816,PLT_learning_02,A,2014_Feb_24_1058,P13,
stim_fb/ques.jpg,stim_fb/negf.jpg,stim_fb/posf.jpg,stim_02/a.jpg,stim_02/b.jpg,2,1,j,1,56,116,11,j,1,0.699835935068,02,02,60.0196902816,PLT_learning_02,A,2014_Feb_24_1058,P13,
stim_fb/ques.jpg,stim_fb/posf.jpg,stim_fb/negf.jpg,stim_02/a.jpg,stim_02/b.jpg,2,1,j,1,57,117,19,j,1,0.733158755198,02,02,60.0196902816,PLT_learning_02,A,2014_Feb_24_1058,P13,
stim_fb/ques.jpg,stim_fb/negf.jpg,stim_fb/posf.jpg,stim_02/d.jpg,stim_02/c.jpg,1,2,f,1,58,118,21,f,1,1.04969660078,02,02,60.0196902816,PLT_learning_02,A,2014_Feb_24_1058,P13,
stim_fb/ques.jpg,stim_fb/negf.jpg,stim_fb/posf.jpg,stim_02/a.jpg,stim_02/b.jpg,2,1,j,1,59,119,16,j,1,0.683154376283,02,02,60.0196902816,PLT_learning_02,A,2014_Feb_24_1058,P13,
stim_fb/ques.jpg,stim_fb/posf.jpg,stim_fb/negf.jpg,stim_02/e.jpg,stim_02/f.jpg,2,3,j,2,0,120,58,f,0,1.04969322637,02,02,60.0196902816,PLT_learning_02,A,2014_Feb_24_1058,P13,
stim_fb/ques.jpg,stim_fb/negf.jpg,stim_fb/posf.jpg,stim_02/c.jpg,stim_02/d.jpg,2,2,j,2,1,121,35,j,1,1.01637046338,02,02,60.0196902816,PLT_learning_02,A,2014_Feb_24_1058,P13,
stim_fb/ques.jpg,stim_fb/negf.jpg,stim_fb/posf.jpg,stim_02/a.jpg,stim_02/b.jpg,2,1,j,2,2,122,12,j,1,0.899728537379,02,02,60.0196902816,PLT_learning_02,A,2014_Feb_24_1058,P13,
stim_fb/ques.jpg,stim_fb/negf.jpg,stim_fb/posf.jpg,stim_02/d.jpg,stim_02/c.jpg,1,2,f,2,3,123,23,f,1,1.14965934993,02,02,60.0196902816,PLT_learning_02,A,2014_Feb_24_1058,P13,
stim_fb/ques.jpg,stim_fb/posf.jpg,stim_fb/negf.jpg,stim_02/c.jpg,stim_02/d.jpg,2,2,j,2,4,124,37,j,1,0.983073856587,02,02,60.0196902816,PLT_learning_02,A,2014_Feb_24_1058,P13,
stim_fb/ques.jpg,stim_fb/negf.jpg,stim_fb/posf.jpg,stim_02/a.jpg,stim_02/b.jpg,2,1,j,2,5,125,13,j,1,0.933017847986,02,02,60.0196902816,PLT_learning_02,A,2014_Feb_24_1058,P13,
stim_fb/ques.jpg,stim_fb/negf.jpg,stim_fb/posf.jpg,stim_02/c.jpg,stim_02/d.jpg,2,2,j,2,6,126,34,j,1,0.966395314321,02,02,60.0196902816,PLT_learning_02,A,2014_Feb_24_1058,P13,
stim_fb/ques.jpg,stim_fb/negf.jpg,stim_fb/posf.jpg,stim_02/c.jpg,stim_02/d.jpg,2,2,j,2,7,127,30,j,1,1.01634558838,02,02,60.0196902816,PLT_learning_02,A,2014_Feb_24_1058,P13,
stim_fb/ques.jpg,stim_fb/posf.jpg,stim_fb/negf.jpg,stim_02/f.jpg,stim_02/e.jpg,1,3,f,2,8,128,46,j,0,0.749800777438,02,02,60.0196902816,PLT_learning_02,A,2014_Feb_24_1058,P13,
stim_fb/ques.jpg,stim_fb/negf.jpg,stim_fb/posf.jpg,stim_02/b.jpg,stim_02/a.jpg,1,1,f,2,9,129,1,f,1,0.933094169217,02,02,60.0196902816,PLT_learning_02,A,2014_Feb_24_1058,P13,
stim_fb/ques.jpg,stim_fb/negf.jpg,stim_fb/posf.jpg,stim_02/c.jpg,stim_02/d.jpg,2,2,j,2,10,130,32,j,1,1.03324783122,02,02,60.0196902816,PLT_learning_02,A,2014_Feb_24_1058,P13,
stim_fb/ques.jpg,stim_fb/negf.jpg,stim_fb/posf.jpg,stim_02/a.jpg,stim_02/b.jpg,2,1,j,2,11,131,17,j,1,0.68314295682,02,02,60.0196902816,PLT_learning_02,A,2014_Feb_24_1058,P13,
stim_fb/ques.jpg,stim_fb/negf.jpg,stim_fb/posf.jpg,stim_02/a.jpg,stim_02/b.jpg,2,1,j,2,12,132,10,j,1,0.783119483312,02,02,60.0196902816,PLT_learning_02,A,2014_Feb_24_1058,P13,
stim_fb/ques.jpg,stim_fb/negf.jpg,stim_fb/posf.jpg,stim_02/f.jpg,stim_02/e.jpg,1,3,f,2,13,133,40,j,0,0.916441593673,02,02,60.0196902816,PLT_learning_02,A,2014_Feb_24_1058,P13,
stim_fb/ques.jpg,stim_fb/posf.jpg,stim_fb/negf.jpg,stim_02/d.jpg,stim_02/c.jpg,1,2,f,2,14,134,28,f,1,0.999723102834,02,02,60.0196902816,PLT_learning_02,A,2014_Feb_24_1058,P13,
stim_fb/ques.jpg,stim_fb/negf.jpg,stim_fb/posf.jpg,stim_02/b.jpg,stim_02/a.jpg,1,1,f,2,15,135,4,f,1,0.649840683905,02,02,60.0196902816,PLT_learning_02,A,2014_Feb_24_1058,P13,
stim_fb/ques.jpg,stim_fb/posf.jpg,stim_fb/negf.jpg,stim_02/f.jpg,stim_02/e.jpg,1,3,f,2,16,136,47,j,0,0.749771577657,02,02,60.0196902816,PLT_learning_02,A,2014_Feb_24_1058,P13,
stim_fb/ques.jpg,stim_fb/posf.jpg,stim_fb/negf.jpg,stim_02/f.jpg,stim_02/e.jpg,1,3,f,2,17,137,49,j,0,0.533196375967,02,02,60.0196902816,PLT_learning_02,A,2014_Feb_24_1058,P13,
stim_fb/ques.jpg,stim_fb/negf.jpg,stim_fb/posf.jpg,stim_02/a.jpg,stim_02/b.jpg,2,1,j,2,18,138,15,j,1,1.04968601439,02,02,60.0196902816,PLT_learning_02,A,2014_Feb_24_1058,P13,
stim_fb/ques.jpg,stim_fb/negf.jpg,stim_fb/posf.jpg,stim_02/f.jpg,stim_02/e.jpg,1,3,f,2,19,139,45,j,0,0.716501424801,02,02,60.0196902816,PLT_learning_02,A,2014_Feb_24_1058,P13,
stim_fb/ques.jpg,stim_fb/posf.jpg,stim_fb/negf.jpg,stim_02/a.jpg,stim_02/b.jpg,2,1,j,2,20,140,18,j,1,0.616508414222,02,02,60.0196902816,PLT_learning_02,A,2014_Feb_24_1058,P13,
stim_fb/ques.jpg,stim_fb/posf.jpg,stim_fb/negf.jpg,stim_02/a.jpg,stim_02/b.jpg,2,1,j,2,21,141,19,j,1,0.583142174871,02,02,60.0196902816,PLT_learning_02,A,2014_Feb_24_1058,P13,
stim_fb/ques.jpg,stim_fb/posf.jpg,stim_fb/negf.jpg,stim_02/b.jpg,stim_02/a.jpg,1,1,f,2,22,142,8,f,1,0.583187191074,02,02,60.0196902816,PLT_learning_02,A,2014_Feb_24_1058,P13,
stim_fb/ques.jpg,stim_fb/posf.jpg,stim_fb/negf.jpg,stim_02/f.jpg,stim_02/e.jpg,1,3,f,2,23,143,48,j,0,0.783090830896,02,02,60.0196902816,PLT_learning_02,A,2014_Feb_24_1058,P13,
stim_fb/ques.jpg,stim_fb/negf.jpg,stim_fb/posf.jpg,stim_02/d.jpg,stim_02/c.jpg,1,2,f,2,24,144,20,j,0,0.633207257089,02,02,60.0196902816,PLT_learning_02,A,2014_Feb_24_1058,P13,
stim_fb/ques.jpg,stim_fb/negf.jpg,stim_fb/posf.jpg,stim_02/b.jpg,stim_02/a.jpg,1,1,f,2,25,145,2,f,1,0.68315631311,02,02,60.0196902816,PLT_learning_02,A,2014_Feb_24_1058,P13,
stim_fb/ques.jpg,stim_fb/posf.jpg,stim_fb/negf.jpg,stim_02/e.jpg,stim_02/f.jpg,2,3,j,2,26,146,56,f,0,0.983002843588,02,02,60.0196902816,PLT_learning_02,A,2014_Feb_24_1058,P13,
stim_fb/ques.jpg,stim_fb/posf.jpg,stim_fb/negf.jpg,stim_02/c.jpg,stim_02/d.jpg,2,2,j,2,27,147,38,j,1,0.916403329298,02,02,60.0196902816,PLT_learning_02,A,2014_Feb_24_1058,P13,
stim_fb/ques.jpg,stim_fb/negf.jpg,stim_fb/posf.jpg,stim_02/e.jpg,stim_02/f.jpg,2,3,j,2,28,148,52,f,0,0.599849396621,02,02,60.0196902816,PLT_learning_02,A,2014_Feb_24_1058,P13,
stim_fb/ques.jpg,stim_fb/negf.jpg,stim_fb/posf.jpg,stim_02/a.jpg,stim_02/b.jpg,2,1,j,2,29,149,16,j,1,0.416555051466,02,02,60.0196902816,PLT_learning_02,A,2014_Feb_24_1058,P13,
stim_fb/ques.jpg,stim_fb/posf.jpg,stim_fb/negf.jpg,stim_02/d.jpg,stim_02/c.jpg,1,2,f,2,30,150,29,f,1,1.19960727513,02,02,60.0196902816,PLT_learning_02,A,2014_Feb_24_1058,P13,
stim_fb/ques.jpg,stim_fb/negf.jpg,stim_fb/posf.jpg,stim_02/e.jpg,stim_02/f.jpg,2,3,j,2,31,151,50,f,0,0.633159200307,02,02,60.0196902816,PLT_learning_02,A,2014_Feb_24_1058,P13,
stim_fb/ques.jpg,stim_fb/negf.jpg,stim_fb/posf.jpg,stim_02/c.jpg,stim_02/d.jpg,2,2,j,2,32,152,36,j,1,0.999682357276,02,02,60.0196902816,PLT_learning_02,A,2014_Feb_24_1058,P13,
stim_fb/ques.jpg,stim_fb/negf.jpg,stim_fb/posf.jpg,stim_02/f.jpg,stim_02/e.jpg,1,3,f,2,33,153,43,j,0,1.08301546605,02,02,60.0196902816,PLT_learning_02,A,2014_Feb_24_1058,P13,
stim_fb/ques.jpg,stim_fb/negf.jpg,stim_fb/posf.jpg,stim_02/a.jpg,stim_02/b.jpg,2,1,j,2,34,154,11,j,1,0.883107008218,02,02,60.0196902816,PLT_learning_02,A,2014_Feb_24_1058,P13,
stim_fb/ques.jpg,stim_fb/posf.jpg,stim_fb/negf.jpg,stim_02/c.jpg,stim_02/d.jpg,2,2,j,2,35,155,39,f,0,0.583191284276,02,02,60.0196902816,PLT_learning_02,A,2014_Feb_24_1058,P13,
stim_fb/ques.jpg,stim_fb/negf.jpg,stim_fb/posf.jpg,stim_02/e.jpg,stim_02/f.jpg,2,3,j,2,36,156,55,f,0,1.04971705175,02,02,60.0196902816,PLT_learning_02,A,2014_Feb_24_1058,P13,
stim_fb/ques.jpg,stim_fb/negf.jpg,stim_fb/posf.jpg,stim_02/c.jpg,stim_02/d.jpg,2,2,j,2,37,157,33,j,1,0.949742173367,02,02,60.0196902816,PLT_learning_02,A,2014_Feb_24_1058,P13,
stim_fb/ques.jpg,stim_fb/negf.jpg,stim_fb/posf.jpg,stim_02/f.jpg,stim_02/e.jpg,1,3,f,2,38,158,44,j,0,0.666486540703,02,02,60.0196902816,PLT_learning_02,A,2014_Feb_24_1058,P13,
stim_fb/ques.jpg,stim_fb/posf.jpg,stim_fb/negf.jpg,stim_02/e.jpg,stim_02/f.jpg,2,3,j,2,39,159,57,f,0,0.583184800114,02,02,60.0196902816,PLT_learning_02,A,2014_Feb_24_1058,P13,
stim_fb/ques.jpg,stim_fb/negf.jpg,stim_fb/posf.jpg,stim_02/f.jpg,stim_02/e.jpg,1,3,f,2,40,160,42,j,0,0.899751677055,02,02,60.0196902816,PLT_learning_02,A,2014_Feb_24_1058,P13,
stim_fb/ques.jpg,stim_fb/negf.jpg,stim_fb/posf.jpg,stim_02/d.jpg,stim_02/c.jpg,1,2,f,2,41,161,24,f,1,1.56620859994,02,02,60.0196902816,PLT_learning_02,A,2014_Feb_24_1058,P13,
stim_fb/ques.jpg,stim_fb/negf.jpg,stim_fb/posf.jpg,stim_02/d.jpg,stim_02/c.jpg,1,2,f,2,42,162,21,j,0,0.683174099443,02,02,60.0196902816,PLT_learning_02,A,2014_Feb_24_1058,P13,
stim_fb/ques.jpg,stim_fb/negf.jpg,stim_fb/posf.jpg,stim_02/b.jpg,stim_02/a.jpg,1,1,f,2,43,163,0,f,1,1.03306746867,02,02,60.0196902816,PLT_learning_02,A,2014_Feb_24_1058,P13,
stim_fb/ques.jpg,stim_fb/negf.jpg,stim_fb/posf.jpg,stim_02/e.jpg,stim_02/f.jpg,2,3,j,2,44,164,53,f,0,0.699821905098,02,02,60.0196902816,PLT_learning_02,A,2014_Feb_24_1058,P13,
stim_fb/ques.jpg,stim_fb/negf.jpg,stim_fb/posf.jpg,stim_02/e.jpg,stim_02/f.jpg,2,3,j,2,45,165,54,j,1,0.466545222968,02,02,60.0196902816,PLT_learning_02,A,2014_Feb_24_1058,P13,
stim_fb/ques.jpg,stim_fb/negf.jpg,stim_fb/posf.jpg,stim_02/d.jpg,stim_02/c.jpg,1,2,f,2,46,166,22,f,1,1.23298698807,02,02,60.0196902816,PLT_learning_02,A,2014_Feb_24_1058,P13,
stim_fb/ques.jpg,stim_fb/negf.jpg,stim_fb/posf.jpg,stim_02/f.jpg,stim_02/e.jpg,1,3,f,2,47,167,41,j,0,1.1830009639,02,02,60.0196902816,PLT_learning_02,A,2014_Feb_24_1058,P13,
stim_fb/ques.jpg,stim_fb/negf.jpg,stim_fb/posf.jpg,stim_02/b.jpg,stim_02/a.jpg,1,1,f,2,48,168,7,f,1,0.983066656642,02,02,60.0196902816,PLT_learning_02,A,2014_Feb_24_1058,P13,
stim_fb/ques.jpg,stim_fb/negf.jpg,stim_fb/posf.jpg,stim_02/d.jpg,stim_02/c.jpg,1,2,f,2,49,169,26,f,1,0.883083146744,02,02,60.0196902816,PLT_learning_02,A,2014_Feb_24_1058,P13,
stim_fb/ques.jpg,stim_fb/negf.jpg,stim_fb/posf.jpg,stim_02/b.jpg,stim_02/a.jpg,1,1,f,2,50,170,3,f,1,0.816500056391,02,02,60.0196902816,PLT_learning_02,A,2014_Feb_24_1058,P13,
stim_fb/ques.jpg,stim_fb/posf.jpg,stim_fb/negf.jpg,stim_02/d.jpg,stim_02/c.jpg,1,2,f,2,51,171,27,f,1,0.916423852452,02,02,60.0196902816,PLT_learning_02,A,2014_Feb_24_1058,P13,
stim_fb/ques.jpg,stim_fb/negf.jpg,stim_fb/posf.jpg,stim_02/c.jpg,stim_02/d.jpg,2,2,j,2,52,172,31,f,0,1.31629758272,02,02,60.0196902816,PLT_learning_02,A,2014_Feb_24_1058,P13,
stim_fb/ques.jpg,stim_fb/negf.jpg,stim_fb/posf.jpg,stim_02/b.jpg,stim_02/a.jpg,1,1,f,2,53,173,5,f,1,0.666500257892,02,02,60.0196902816,PLT_learning_02,A,2014_Feb_24_1058,P13,
stim_fb/ques.jpg,stim_fb/posf.jpg,stim_fb/negf.jpg,stim_02/b.jpg,stim_02/a.jpg,1,1,f,2,54,174,9,f,1,0.899698095503,02,02,60.0196902816,PLT_learning_02,A,2014_Feb_24_1058,P13,
stim_fb/ques.jpg,stim_fb/posf.jpg,stim_fb/negf.jpg,stim_02/e.jpg,stim_02/f.jpg,2,3,j,2,55,175,59,j,1,0.833131916301,02,02,60.0196902816,PLT_learning_02,A,2014_Feb_24_1058,P13,
stim_fb/ques.jpg,stim_fb/negf.jpg,stim_fb/posf.jpg,stim_02/e.jpg,stim_02/f.jpg,2,3,j,2,56,176,51,j,1,0.483240817738,02,02,60.0196902816,PLT_learning_02,A,2014_Feb_24_1058,P13,
stim_fb/ques.jpg,stim_fb/negf.jpg,stim_fb/posf.jpg,stim_02/b.jpg,stim_02/a.jpg,1,1,f,2,57,177,6,f,1,0.616518269788,02,02,60.0196902816,PLT_learning_02,A,2014_Feb_24_1058,P13,
stim_fb/ques.jpg,stim_fb/negf.jpg,stim_fb/posf.jpg,stim_02/d.jpg,stim_02/c.jpg,1,2,f,2,58,178,25,j,0,1.18298976399,02,02,60.0196902816,PLT_learning_02,A,2014_Feb_24_1058,P13,
stim_fb/ques.jpg,stim_fb/negf.jpg,stim_fb/posf.jpg,stim_02/a.jpg,stim_02/b.jpg,2,1,j,2,59,179,14,j,1,0.899734931316,02,02,60.0196902816,PLT_learning_02,A,2014_Feb_24_1058,P13,
stim_fb/ques.jpg,stim_fb/negf.jpg,stim_fb/posf.jpg,stim_02/e.jpg,stim_02/f.jpg,2,3,j,3,0,180,53,f,0,1.59956479124,02,02,60.0196902816,PLT_learning_02,A,2014_Feb_24_1058,P13,
stim_fb/ques.jpg,stim_fb/negf.jpg,stim_fb/posf.jpg,stim_02/d.jpg,stim_02/c.jpg,1,2,f,3,1,181,24,f,1,1.28300929166,02,02,60.0196902816,PLT_learning_02,A,2014_Feb_24_1058,P13,
stim_fb/ques.jpg,stim_fb/posf.jpg,stim_fb/negf.jpg,stim_02/e.jpg,stim_02/f.jpg,2,3,j,3,2,182,59,j,1,0.899763860422,02,02,60.0196902816,PLT_learning_02,A,2014_Feb_24_1058,P13,
stim_fb/ques.jpg,stim_fb/negf.jpg,stim_fb/posf.jpg,stim_02/d.jpg,stim_02/c.jpg,1,2,f,3,3,183,22,f,1,0.799788052721,02,02,60.0196902816,PLT_learning_02,A,2014_Feb_24_1058,P13,
stim_fb/ques.jpg,stim_fb/negf.jpg,stim_fb/posf.jpg,stim_02/c.jpg,stim_02/d.jpg,2,2,j,3,4,184,35,j,1,0.817445258307,02,02,60.0196902816,PLT_learning_02,A,2014_Feb_24_1058,P13,
stim_fb/ques.jpg,stim_fb/posf.jpg,stim_fb/negf.jpg,stim_02/d.jpg,stim_02/c.jpg,1,2,f,3,5,185,29,f,1,0.866418838956,02,02,60.0196902816,PLT_learning_02,A,2014_Feb_24_1058,P13,
stim_fb/ques.jpg,stim_fb/negf.jpg,stim_fb/posf.jpg,stim_02/c.jpg,stim_02/d.jpg,2,2,j,3,6,186,34,j,1,0.866409539778,02,02,60.0196902816,PLT_learning_02,A,2014_Feb_24_1058,P13,
stim_fb/ques.jpg,stim_fb/negf.jpg,stim_fb/posf.jpg,stim_02/e.jpg,stim_02/f.jpg,2,3,j,3,7,187,55,j,1,0.966401485703,02,02,60.0196902816,PLT_learning_02,A,2014_Feb_24_1058,P13,
stim_fb/ques.jpg,stim_fb/posf.jpg,stim_fb/negf.jpg,stim_02/c.jpg,stim_02/d.jpg,2,2,j,3,8,188,37,j,1,0.983040599695,02,02,60.0196902816,PLT_learning_02,A,2014_Feb_24_1058,P13,
stim_fb/ques.jpg,stim_fb/negf.jpg,stim_fb/posf.jpg,stim_02/a.jpg,stim_02/b.jpg,2,1,j,3,9,189,12,f,0,0.566439963609,02,02,60.0196902816,PLT_learning_02,A,2014_Feb_24_1058,P13,
stim_fb/ques.jpg,stim_fb/negf.jpg,stim_fb/posf.jpg,stim_02/c.jpg,stim_02/d.jpg,2,2,j,3,10,190,32,j,1,1.09973454936,02,02,60.0196902816,PLT_learning_02,A,2014_Feb_24_1058,P13,
stim_fb/ques.jpg,stim_fb/negf.jpg,stim_fb/posf.jpg,stim_02/f.jpg,stim_02/e.jpg,1,3,f,3,11,191,40,f,1,0.599890497064,02,02,60.0196902816,PLT_learning_02,A,2014_Feb_24_1058,P13,
stim_fb/ques.jpg,stim_fb/posf.jpg,stim_fb/negf.jpg,stim_02/f.jpg,stim_02/e.jpg,1,3,f,3,12,192,48,f,1,0.499882343742,02,02,60.0196902816,PLT_learning_02,A,2014_Feb_24_1058,P13,
stim_fb/ques.jpg,stim_fb/negf.jpg,stim_fb/posf.jpg,stim_02/b.jpg,stim_02/a.jpg,1,1,f,3,13,193,2,f,1,0.816472074646,02,02,60.0196902816,PLT_learning_02,A,2014_Feb_24_1058,P13,
stim_fb/ques.jpg,stim_fb/negf.jpg,stim_fb/posf.jpg,stim_02/c.jpg,stim_02/d.jpg,2,2,j,3,14,194,36,j,1,0.849747902647,02,02,60.0196902816,PLT_learning_02,A,2014_Feb_24_1058,P13,
stim_fb/ques.jpg,stim_fb/posf.jpg,stim_fb/negf.jpg,stim_02/f.jpg,stim_02/e.jpg,1,3,f,3,15,195,46,f,1,0.81646515139,02,02,60.0196902816,PLT_learning_02,A,2014_Feb_24_1058,P13,
stim_fb/ques.jpg,stim_fb/negf.jpg,stim_fb/posf.jpg,stim_02/b.jpg,stim_02/a.jpg,1,1,f,3,16,196,5,f,1,0.817442879377,02,02,60.0196902816,PLT_learning_02,A,2014_Feb_24_1058,P13,
stim_fb/ques.jpg,stim_fb/negf.jpg,stim_fb/posf.jpg,stim_02/b.jpg,stim_02/a.jpg,1,1,f,3,17,197,6,f,1,0.766424038917,02,02,60.0196902816,PLT_learning_02,A,2014_Feb_24_1058,P13,
stim_fb/ques.jpg,stim_fb/negf.jpg,stim_fb/posf.jpg,stim_02/f.jpg,stim_02/e.jpg,1,3,f,3,18,198,44,f,1,1.08303385388,02,02,60.0196902816,PLT_learning_02,A,2014_Feb_24_1058,P13,
stim_fb/ques.jpg,stim_fb/negf.jpg,stim_fb/posf.jpg,stim_02/d.jpg,stim_02/c.jpg,1,2,f,3,19,199,21,f,1,1.16633541101,02,02,60.0196902816,PLT_learning_02,A,2014_Feb_24_1058,P13,
stim_fb/ques.jpg,stim_fb/posf.jpg,stim_fb/negf.jpg,stim_02/d.jpg,stim_02/c.jpg,1,2,f,3,20,200,28,f,1,1.24957278817,02,02,60.0196902816,PLT_learning_02,A,2014_Feb_24_1058,P13,
stim_fb/ques.jpg,stim_fb/negf.jpg,stim_fb/posf.jpg,stim_02/b.jpg,stim_02/a.jpg,1,1,f,3,21,201,1,f,1,0.716484832445,02,02,60.0196902816,PLT_learning_02,A,2014_Feb_24_1058,P13,
stim_fb/ques.jpg,stim_fb/negf.jpg,stim_fb/posf.jpg,stim_02/c.jpg,stim_02/d.jpg,2,2,j,3,22,202,31,j,1,0.933079889625,02,02,60.0196902816,PLT_learning_02,A,2014_Feb_24_1058,P13,
stim_fb/ques.jpg,stim_fb/negf.jpg,stim_fb/posf.jpg,stim_02/b.jpg,stim_02/a.jpg,1,1,f,3,23,203,7,f,1,0.783091260968,02,02,60.0196902816,PLT_learning_02,A,2014_Feb_24_1058,P13,
stim_fb/ques.jpg,stim_fb/negf.jpg,stim_fb/posf.jpg,stim_02/d.jpg,stim_02/c.jpg,1,2,f,3,24,204,26,f,1,0.883086674537,02,02,60.0196902816,PLT_learning_02,A,2014_Feb_24_1058,P13,
stim_fb/ques.jpg,stim_fb/negf.jpg,stim_fb/posf.jpg,stim_02/b.jpg,stim_02/a.jpg,1,1,f,3,25,205,0,f,1,0.599829619326,02,02,60.0196902816,PLT_learning_02,A,2014_Feb_24_1058,P13,
stim_fb/ques.jpg,stim_fb/posf.jpg,stim_fb/negf.jpg,stim_02/f.jpg,stim_02/e.jpg,1,3,f,3,26,206,47,f,1,1.23292213442,02,02,60.0196902816,PLT_learning_02,A,2014_Feb_24_1058,P13,
stim_fb/ques.jpg,stim_fb/posf.jpg,stim_fb/negf.jpg,stim_02/c.jpg,stim_02/d.jpg,2,2,j,3,27,207,38,j,1,0.999717999113,02,02,60.0196902816,PLT_learning_02,A,2014_Feb_24_1058,P13,
stim_fb/ques.jpg,stim_fb/negf.jpg,stim_fb/posf.jpg,stim_02/a.jpg,stim_02/b.jpg,2,1,j,3,28,208,10,j,1,0.79979102112,02,02,60.0196902816,PLT_learning_02,A,2014_Feb_24_1058,P13,
stim_fb/ques.jpg,stim_fb/negf.jpg,stim_fb/posf.jpg,stim_02/c.jpg,stim_02/d.jpg,2,2,j,3,29,209,30,j,1,0.916407575883,02,02,60.0196902816,PLT_learning_02,A,2014_Feb_24_1058,P13,
stim_fb/ques.jpg,stim_fb/negf.jpg,stim_fb/posf.jpg,stim_02/a.jpg,stim_02/b.jpg,2,1,j,3,30,210,15,j,1,0.699791090292,02,02,60.0196902816,PLT_learning_02,A,2014_Feb_24_1058,P13,
stim_fb/ques.jpg,stim_fb/posf.jpg,stim_fb/negf.jpg,stim_02/b.jpg,stim_02/a.jpg,1,1,f,3,31,211,8,f,1,0.799741529763,02,02,60.0196902816,PLT_learning_02,A,2014_Feb_24_1058,P13,
stim_fb/ques.jpg,stim_fb/posf.jpg,stim_fb/negf.jpg,stim_02/e.jpg,stim_02/f.jpg,2,3,j,3,32,212,56,j,1,1.06633166066,02,02,60.0196902816,PLT_learning_02,A,2014_Feb_24_1058,P13,
stim_fb/ques.jpg,stim_fb/negf.jpg,stim_fb/posf.jpg,stim_02/a.jpg,stim_02/b.jpg,2,1,j,3,33,213,13,j,1,0.649799649626,02,02,60.0196902816,PLT_learning_02,A,2014_Feb_24_1058,P13,
stim_fb/ques.jpg,stim_fb/negf.jpg,stim_fb/posf.jpg,stim_02/e.jpg,stim_02/f.jpg,2,3,j,3,34,214,50,j,1,1.09968688656,02,02,60.0196902816,PLT_learning_02,A,2014_Feb_24_1058,P13,
stim_fb/ques.jpg,stim_fb/negf.jpg,stim_fb/posf.jpg,stim_02/a.jpg,stim_02/b.jpg,2,1,j,3,35,215,11,j,1,0.699822181788,02,02,60.0196902816,PLT_learning_02,A,2014_Feb_24_1058,P13,
stim_fb/ques.jpg,stim_fb/posf.jpg,stim_fb/negf.jpg,stim_02/e.jpg,stim_02/f.jpg,2,3,j,3,36,216,57,j,1,0.73313113736,02,02,60.0196902816,PLT_learning_02,A,2014_Feb_24_1058,P13,
stim_fb/ques.jpg,stim_fb/posf.jpg,stim_fb/negf.jpg,stim_02/d.jpg,stim_02/c.jpg,1,2,f,3,37,217,27,f,1,0.966382472312,02,02,60.0196902816,PLT_learning_02,A,2014_Feb_24_1058,P13,
stim_fb/ques.jpg,stim_fb/posf.jpg,stim_fb/negf.jpg,stim_02/a.jpg,stim_02/b.jpg,2,1,j,3,38,218,19,j,1,0.849786350479,02,02,60.0196902816,PLT_learning_02,A,2014_Feb_24_1058,P13,
stim_fb/ques.jpg,stim_fb/negf.jpg,stim_fb/posf.jpg,stim_02/a.jpg,stim_02/b.jpg,2,1,j,3,39,219,16,j,1,0.866452986068,02,02,60.0196902816,PLT_learning_02,A,2014_Feb_24_1058,P13,
stim_fb/ques.jpg,stim_fb/negf.jpg,stim_fb/posf.jpg,stim_02/d.jpg,stim_02/c.jpg,1,2,f,3,40,220,25,f,1,0.833068728807,02,02,60.0196902816,PLT_learning_02,A,2014_Feb_24_1058,P13,
stim_fb/ques.jpg,stim_fb/posf.jpg,stim_fb/negf.jpg,stim_02/a.jpg,stim_02/b.jpg,2,1,j,3,41,221,18,j,1,0.649793989519,02,02,60.0196902816,PLT_learning_02,A,2014_Feb_24_1058,P13,
stim_fb/ques.jpg,stim_fb/negf.jpg,stim_fb/posf.jpg,stim_02/e.jpg,stim_02/f.jpg,2,3,j,3,42,222,51,f,0,0.916395488755,02,02,60.0196902816,PLT_learning_02,A,2014_Feb_24_1058,P13,
stim_fb/ques.jpg,stim_fb/negf.jpg,stim_fb/posf.jpg,stim_02/b.jpg,stim_02/a.jpg,1,1,f,3,43,223,4,f,1,0.916465208532,02,02,60.0196902816,PLT_learning_02,A,2014_Feb_24_1058,P13,
stim_fb/ques.jpg,stim_fb/negf.jpg,stim_fb/posf.jpg,stim_02/c.jpg,stim_02/d.jpg,2,2,j,3,44,224,33,j,1,0.983047670318,02,02,60.0196902816,PLT_learning_02,A,2014_Feb_24_1058,P13,
stim_fb/ques.jpg,stim_fb/negf.jpg,stim_fb/posf.jpg,stim_02/f.jpg,stim_02/e.jpg,1,3,f,3,45,225,45,f,1,1.06634713122,02,02,60.0196902816,PLT_learning_02,A,2014_Feb_24_1058,P13,
stim_fb/ques.jpg,stim_fb/negf.jpg,stim_fb/posf.jpg,stim_02/e.jpg,stim_02/f.jpg,2,3,j,3,46,226,52,j,1,0.716481430967,02,02,60.0196902816,PLT_learning_02,A,2014_Feb_24_1058,P13,
stim_fb/ques.jpg,stim_fb/negf.jpg,stim_fb/posf.jpg,stim_02/d.jpg,stim_02/c.jpg,1,2,f,3,47,227,23,f,1,0.833117675807,02,02,60.0196902816,PLT_learning_02,A,2014_Feb_24_1058,P13,
stim_fb/ques.jpg,stim_fb/negf.jpg,stim_fb/posf.jpg,stim_02/a.jpg,stim_02/b.jpg,2,1,j,3,48,228,14,j,1,0.749794786505,02,02,60.0196902816,PLT_learning_02,A,2014_Feb_24_1058,P13,
stim_fb/ques.jpg,stim_fb/negf.jpg,stim_fb/posf.jpg,stim_02/f.jpg,stim_02/e.jpg,1,3,f,3,49,229,41,f,1,0.883061155931,02,02,60.0196902816,PLT_learning_02,A,2014_Feb_24_1058,P13,
stim_fb/ques.jpg,stim_fb/negf.jpg,stim_fb/posf.jpg,stim_02/a.jpg,stim_02/b.jpg,2,1,j,3,50,230,17,j,1,0.666482113668,02,02,60.0196902816,PLT_learning_02,A,2014_Feb_24_1058,P13,
stim_fb/ques.jpg,stim_fb/negf.jpg,stim_fb/posf.jpg,stim_02/e.jpg,stim_02/f.jpg,2,3,j,3,51,231,54,j,1,0.866449244742,02,02,60.0196902816,PLT_learning_02,A,2014_Feb_24_1058,P13,
stim_fb/ques.jpg,stim_fb/posf.jpg,stim_fb/negf.jpg,stim_02/b.jpg,stim_02/a.jpg,1,1,f,3,52,232,9,f,1,1.16634945,02,02,60.0196902816,PLT_learning_02,A,2014_Feb_24_1058,P13,
stim_fb/ques.jpg,stim_fb/posf.jpg,stim_fb/negf.jpg,stim_02/e.jpg,stim_02/f.jpg,2,3,j,3,53,233,58,j,1,0.616544269592,02,02,60.0196902816,PLT_learning_02,A,2014_Feb_24_1058,P13,
stim_fb/ques.jpg,stim_fb/negf.jpg,stim_fb/posf.jpg,stim_02/d.jpg,stim_02/c.jpg,1,2,f,3,54,234,20,f,1,0.749804506733,02,02,60.0196902816,PLT_learning_02,A,2014_Feb_24_1058,P13,
stim_fb/ques.jpg,stim_fb/posf.jpg,stim_fb/negf.jpg,stim_02/c.jpg,stim_02/d.jpg,2,2,j,3,55,235,39,j,1,0.81649098879,02,02,60.0196902816,PLT_learning_02,A,2014_Feb_24_1058,P13,
stim_fb/ques.jpg,stim_fb/negf.jpg,stim_fb/posf.jpg,stim_02/f.jpg,stim_02/e.jpg,1,3,f,3,56,236,42,f,1,1.38293984857,02,02,60.0196902816,PLT_learning_02,A,2014_Feb_24_1058,P13,
stim_fb/ques.jpg,stim_fb/negf.jpg,stim_fb/posf.jpg,stim_02/f.jpg,stim_02/e.jpg,1,3,f,3,57,237,43,f,1,0.499757770242,02,02,60.0196902816,PLT_learning_02,A,2014_Feb_24_1058,P13,
stim_fb/ques.jpg,stim_fb/posf.jpg,stim_fb/negf.jpg,stim_02/f.jpg,stim_02/e.jpg,1,3,f,3,58,238,49,f,1,0.649840055338,02,02,60.0196902816,PLT_learning_02,A,2014_Feb_24_1058,P13,
stim_fb/ques.jpg,stim_fb/negf.jpg,stim_fb/posf.jpg,stim_02/b.jpg,stim_02/a.jpg,1,1,f,3,59,239,3,f,1,0.84976194164,02,02,60.0196902816,PLT_learning_02,A,2014_Feb_24_1058,P13,
stim_fb/ques.jpg,stim_fb/negf.jpg,stim_fb/posf.jpg,stim_02/b.jpg,stim_02/a.jpg,1,1,f,4,0,240,1,f,1,1.24961251419,02,02,60.0196902816,PLT_learning_02,A,2014_Feb_24_1058,P13,
stim_fb/ques.jpg,stim_fb/posf.jpg,stim_fb/negf.jpg,stim_02/f.jpg,stim_02/e.jpg,1,3,f,4,1,241,49,f,1,1.41624821768,02,02,60.0196902816,PLT_learning_02,A,2014_Feb_24_1058,P13,
stim_fb/ques.jpg,stim_fb/negf.jpg,stim_fb/posf.jpg,stim_02/a.jpg,stim_02/b.jpg,2,1,j,4,2,242,15,j,1,0.733132379456,02,02,60.0196902816,PLT_learning_02,A,2014_Feb_24_1058,P13,
stim_fb/ques.jpg,stim_fb/negf.jpg,stim_fb/posf.jpg,stim_02/a.jpg,stim_02/b.jpg,2,1,j,4,3,243,11,j,1,0.583189269254,02,02,60.0196902816,PLT_learning_02,A,2014_Feb_24_1058,P13,
stim_fb/ques.jpg,stim_fb/negf.jpg,stim_fb/posf.jpg,stim_02/b.jpg,stim_02/a.jpg,1,1,f,4,4,244,6,f,1,0.716477614454,02,02,60.0196902816,PLT_learning_02,A,2014_Feb_24_1058,P13,
stim_fb/ques.jpg,stim_fb/posf.jpg,stim_fb/negf.jpg,stim_02/d.jpg,stim_02/c.jpg,1,2,f,4,5,245,27,f,1,1.13296559575,02,02,60.0196902816,PLT_learning_02,A,2014_Feb_24_1058,P13,
stim_fb/ques.jpg,stim_fb/negf.jpg,stim_fb/posf.jpg,stim_02/c.jpg,stim_02/d.jpg,2,2,j,4,6,246,33,j,1,1.1163424666,02,02,60.0196902816,PLT_learning_02,A,2014_Feb_24_1058,P13,
stim_fb/ques.jpg,stim_fb/posf.jpg,stim_fb/negf.jpg,stim_02/c.jpg,stim_02/d.jpg,2,2,j,4,7,247,39,j,1,1.09967243555,02,02,60.0196902816,PLT_learning_02,A,2014_Feb_24_1058,P13,
stim_fb/ques.jpg,stim_fb/negf.jpg,stim_fb/posf.jpg,stim_02/f.jpg,stim_02/e.jpg,1,3,f,4,8,248,41,f,1,0.899797499267,02,02,60.0196902816,PLT_learning_02,A,2014_Feb_24_1058,P13,
stim_fb/ques.jpg,stim_fb/negf.jpg,stim_fb/posf.jpg,stim_02/c.jpg,stim_02/d.jpg,2,2,j,4,9,249,34,j,1,1.14967262803,02,02,60.0196902816,PLT_learning_02,A,2014_Feb_24_1058,P13,
stim_fb/ques.jpg,stim_fb/posf.jpg,stim_fb/negf.jpg,stim_02/a.jpg,stim_02/b.jpg,2,1,j,4,10,250,19,j,1,0.899764296509,02,02,60.0196902816,PLT_learning_02,A,2014_Feb_24_1058,P13,
stim_fb/ques.jpg,stim_fb/posf.jpg,stim_fb/negf.jpg,stim_02/d.jpg,stim_02/c.jpg,1,2,f,4,11,251,29,f,1,1.28299834738,02,02,60.0196902816,PLT_learning_02,A,2014_Feb_24_1058,P13,
stim_fb/ques.jpg,stim_fb/negf.jpg,stim_fb/posf.jpg,stim_02/d.jpg,stim_02/c.jpg,1,2,f,4,12,252,23,f,1,0.699816356268,02,02,60.0196902816,PLT_learning_02,A,2014_Feb_24_1058,P13,
stim_fb/ques.jpg,stim_fb/negf.jpg,stim_fb/posf.jpg,stim_02/d.jpg,stim_02/c.jpg,1,2,f,4,13,253,24,f,1,0.76644916354,02,02,60.0196902816,PLT_learning_02,A,2014_Feb_24_1058,P13,
stim_fb/ques.jpg,stim_fb/negf.jpg,stim_fb/posf.jpg,stim_02/f.jpg,stim_02/e.jpg,1,3,f,4,14,254,43,f,1,1.31627766408,02,02,60.0196902816,PLT_learning_02,A,2014_Feb_24_1058,P13,
stim_fb/ques.jpg,stim_fb/posf.jpg,stim_fb/negf.jpg,stim_02/a.jpg,stim_02/b.jpg,2,1,j,4,15,255,18,j,1,0.833113161555,02,02,60.0196902816,PLT_learning_02,A,2014_Feb_24_1058,P13,
stim_fb/ques.jpg,stim_fb/posf.jpg,stim_fb/negf.jpg,stim_02/c.jpg,stim_02/d.jpg,2,2,j,4,16,256,38,j,1,0.883096334614,02,02,60.0196902816,PLT_learning_02,A,2014_Feb_24_1058,P13,
stim_fb/ques.jpg,stim_fb/negf.jpg,stim_fb/posf.jpg,stim_02/f.jpg,stim_02/e.jpg,1,3,f,4,17,257,42,f,1,0.799795757926,02,02,60.0196902816,PLT_learning_02,A,2014_Feb_24_1058,P13,
stim_fb/ques.jpg,stim_fb/negf.jpg,stim_fb/posf.jpg,stim_02/c.jpg,stim_02/d.jpg,2,2,j,4,18,258,36,j,1,0.883054939437,02,02,60.0196902816,PLT_learning_02,A,2014_Feb_24_1058,P13,
stim_fb/ques.jpg,stim_fb/posf.jpg,stim_fb/negf.jpg,stim_02/b.jpg,stim_02/a.jpg,1,1,f,4,19,259,9,f,1,0.916417172803,02,02,60.0196902816,PLT_learning_02,A,2014_Feb_24_1058,P13,
stim_fb/ques.jpg,stim_fb/negf.jpg,stim_fb/posf.jpg,stim_02/c.jpg,stim_02/d.jpg,2,2,j,4,20,260,30,j,1,0.949763685987,02,02,60.0196902816,PLT_learning_02,A,2014_Feb_24_1058,P13,
stim_fb/ques.jpg,stim_fb/posf.jpg,stim_fb/negf.jpg,stim_02/f.jpg,stim_02/e.jpg,1,3,f,4,21,261,46,f,1,1.03303247945,02,02,60.0196902816,PLT_learning_02,A,2014_Feb_24_1058,P13,
stim_fb/ques.jpg,stim_fb/negf.jpg,stim_fb/posf.jpg,stim_02/a.jpg,stim_02/b.jpg,2,1,j,4,22,262,12,j,1,0.799777391147,02,02,60.0196902816,PLT_learning_02,A,2014_Feb_24_1058,P13,
stim_fb/ques.jpg,stim_fb/negf.jpg,stim_fb/posf.jpg,stim_02/b.jpg,stim_02/a.jpg,1,1,f,4,23,263,0,f,1,1.29963058022,02,02,60.0196902816,PLT_learning_02,A,2014_Feb_24_1058,P13,
stim_fb/ques.jpg,stim_fb/negf.jpg,stim_fb/posf.jpg,stim_02/c.jpg,stim_02/d.jpg,2,2,j,4,24,264,35,j,1,0.949719442711,02,02,60.0196902816,PLT_learning_02,A,2014_Feb_24_1058,P13,
stim_fb/ques.jpg,stim_fb/negf.jpg,stim_fb/posf.jpg,stim_02/d.jpg,stim_02/c.jpg,1,2,f,4,25,265,26,f,1,1.18303887941,02,02,60.0196902816,PLT_learning_02,A,2014_Feb_24_1058,P13,
stim_fb/ques.jpg,stim_fb/negf.jpg,stim_fb/posf.jpg,stim_02/f.jpg,stim_02/e.jpg,1,3,f,4,26,266,45,f,1,0.866427431372,02,02,60.0196902816,PLT_learning_02,A,2014_Feb_24_1058,P13,
stim_fb/ques.jpg,stim_fb/posf.jpg,stim_fb/negf.jpg,stim_02/e.jpg,stim_02/f.jpg,2,3,j,4,27,267,56,j,1,0.783135083195,02,02,60.0196902816,PLT_learning_02,A,2014_Feb_24_1058,P13,
stim_fb/ques.jpg,stim_fb/negf.jpg,stim_fb/posf.jpg,stim_02/e.jpg,stim_02/f.jpg,2,3,j,4,28,268,55,j,1,0.749798714296,02,02,60.0196902816,PLT_learning_02,A,2014_Feb_24_1058,P13,
stim_fb/ques.jpg,stim_fb/negf.jpg,stim_fb/posf.jpg,stim_02/a.jpg,stim_02/b.jpg,2,1,j,4,29,269,13,j,1,0.749797884227,02,02,60.0196902816,PLT_learning_02,A,2014_Feb_24_1058,P13,
stim_fb/ques.jpg,stim_fb/posf.jpg,stim_fb/negf.jpg,stim_02/e.jpg,stim_02/f.jpg,2,3,j,4,30,270,57,j,1,0.566507139044,02,02,60.0196902816,PLT_learning_02,A,2014_Feb_24_1058,P13,
stim_fb/ques.jpg,stim_fb/negf.jpg,stim_fb/posf.jpg,stim_02/e.jpg,stim_02/f.jpg,2,3,j,4,31,271,50,j,1,0.483230853903,02,02,60.0196902816,PLT_learning_02,A,2014_Feb_24_1058,P13,
stim_fb/ques.jpg,stim_fb/negf.jpg,stim_fb/posf.jpg,stim_02/d.jpg,stim_02/c.jpg,1,2,f,4,32,272,20,f,1,0.79981473222,02,02,60.0196902816,PLT_learning_02,A,2014_Feb_24_1058,P13,
stim_fb/ques.jpg,stim_fb/negf.jpg,stim_fb/posf.jpg,stim_02/d.jpg,stim_02/c.jpg,1,2,f,4,33,273,25,f,1,1.06641035481,02,02,60.0196902816,PLT_learning_02,A,2014_Feb_24_1058,P13,
stim_fb/ques.jpg,stim_fb/negf.jpg,stim_fb/posf.jpg,stim_02/c.jpg,stim_02/d.jpg,2,2,j,4,34,274,31,j,1,0.833115441238,02,02,60.0196902816,PLT_learning_02,A,2014_Feb_24_1058,P13,
stim_fb/ques.jpg,stim_fb/negf.jpg,stim_fb/posf.jpg,stim_02/a.jpg,stim_02/b.jpg,2,1,j,4,35,275,14,j,1,0.916396339877,02,02,60.0196902816,PLT_learning_02,A,2014_Feb_24_1058,P13,
stim_fb/ques.jpg,stim_fb/posf.jpg,stim_fb/negf.jpg,stim_02/f.jpg,stim_02/e.jpg,1,3,f,4,36,276,48,f,1,1.1496697679,02,02,60.0196902816,PLT_learning_02,A,2014_Feb_24_1058,P13,
stim_fb/ques.jpg,stim_fb/posf.jpg,stim_fb/negf.jpg,stim_02/b.jpg,stim_02/a.jpg,1,1,f,4,37,277,8,f,1,0.883014136736,02,02,60.0196902816,PLT_learning_02,A,2014_Feb_24_1058,P13,
stim_fb/ques.jpg,stim_fb/negf.jpg,stim_fb/posf.jpg,stim_02/d.jpg,stim_02/c.jpg,1,2,f,4,38,278,21,f,1,1.04966972278,02,02,60.0196902816,PLT_learning_02,A,2014_Feb_24_1058,P13,
stim_fb/ques.jpg,stim_fb/negf.jpg,stim_fb/posf.jpg,stim_02/b.jpg,stim_02/a.jpg,1,1,f,4,39,279,2,f,1,0.583181257284,02,02,60.0196902816,PLT_learning_02,A,2014_Feb_24_1058,P13,
stim_fb/ques.jpg,stim_fb/negf.jpg,stim_fb/posf.jpg,stim_02/c.jpg,stim_02/d.jpg,2,2,j,4,40,280,32,j,1,0.916445178608,02,02,60.0196902816,PLT_learning_02,A,2014_Feb_24_1058,P13,
stim_fb/ques.jpg,stim_fb/posf.jpg,stim_fb/negf.jpg,stim_02/e.jpg,stim_02/f.jpg,2,3,j,4,41,281,58,j,1,0.899724750942,02,02,60.0196902816,PLT_learning_02,A,2014_Feb_24_1058,P13,
stim_fb/ques.jpg,stim_fb/negf.jpg,stim_fb/posf.jpg,stim_02/b.jpg,stim_02/a.jpg,1,1,f,4,42,282,5,f,1,1.08302210059,02,02,60.0196902816,PLT_learning_02,A,2014_Feb_24_1058,P13,
stim_fb/ques.jpg,stim_fb/posf.jpg,stim_fb/negf.jpg,stim_02/d.jpg,stim_02/c.jpg,1,2,f,4,43,283,28,f,1,1.08302573364,02,02,60.0196902816,PLT_learning_02,A,2014_Feb_24_1058,P13,
stim_fb/ques.jpg,stim_fb/negf.jpg,stim_fb/posf.jpg,stim_02/f.jpg,stim_02/e.jpg,1,3,f,4,44,284,44,f,1,0.949744510192,02,02,60.0196902816,PLT_learning_02,A,2014_Feb_24_1058,P13,
stim_fb/ques.jpg,stim_fb/negf.jpg,stim_fb/posf.jpg,stim_02/a.jpg,stim_02/b.jpg,2,1,j,4,45,285,17,j,1,0.633159994286,02,02,60.0196902816,PLT_learning_02,A,2014_Feb_24_1058,P13,
stim_fb/ques.jpg,stim_fb/negf.jpg,stim_fb/posf.jpg,stim_02/f.jpg,stim_02/e.jpg,1,3,f,4,46,286,40,f,1,1.0163545838,02,02,60.0196902816,PLT_learning_02,A,2014_Feb_24_1058,P13,
stim_fb/ques.jpg,stim_fb/negf.jpg,stim_fb/posf.jpg,stim_02/a.jpg,stim_02/b.jpg,2,1,j,4,47,287,10,j,1,1.04972275396,02,02,60.0196902816,PLT_learning_02,A,2014_Feb_24_1058,P13,
stim_fb/ques.jpg,stim_fb/posf.jpg,stim_fb/negf.jpg,stim_02/c.jpg,stim_02/d.jpg,2,2,j,4,48,288,37,j,1,1.0830288885,02,02,60.0196902816,PLT_learning_02,A,2014_Feb_24_1058,P13,
stim_fb/ques.jpg,stim_fb/posf.jpg,stim_fb/negf.jpg,stim_02/e.jpg,stim_02/f.jpg,2,3,j,4,49,289,59,j,1,0.76648047759,02,02,60.0196902816,PLT_learning_02,A,2014_Feb_24_1058,P13,
stim_fb/ques.jpg,stim_fb/negf.jpg,stim_fb/posf.jpg,stim_02/e.jpg,stim_02/f.jpg,2,3,j,4,50,290,54,j,1,0.516567673927,02,02,60.0196902816,PLT_learning_02,A,2014_Feb_24_1058,P13,
stim_fb/ques.jpg,stim_fb/negf.jpg,stim_fb/posf.jpg,stim_02/a.jpg,stim_02/b.jpg,2,1,j,4,51,291,16,j,1,0.583235193721,02,02,60.0196902816,PLT_learning_02,A,2014_Feb_24_1058,P13,
stim_fb/ques.jpg,stim_fb/negf.jpg,stim_fb/posf.jpg,stim_02/d.jpg,stim_02/c.jpg,1,2,f,4,52,292,22,f,1,1.16633681551,02,02,60.0196902816,PLT_learning_02,A,2014_Feb_24_1058,P13,
stim_fb/ques.jpg,stim_fb/posf.jpg,stim_fb/negf.jpg,stim_02/f.jpg,stim_02/e.jpg,1,3,f,4,53,293,47,f,1,1.06636699273,02,02,60.0196902816,PLT_learning_02,A,2014_Feb_24_1058,P13,
stim_fb/ques.jpg,stim_fb/negf.jpg,stim_fb/posf.jpg,stim_02/b.jpg,stim_02/a.jpg,1,1,f,4,54,294,7,f,1,1.0163785776,02,02,60.0196902816,PLT_learning_02,A,2014_Feb_24_1058,P13,
stim_fb/ques.jpg,stim_fb/negf.jpg,stim_fb/posf.jpg,stim_02/b.jpg,stim_02/a.jpg,1,1,f,4,55,295,4,f,1,0.899767974677,02,02,60.0196902816,PLT_learning_02,A,2014_Feb_24_1058,P13,
stim_fb/ques.jpg,stim_fb/negf.jpg,stim_fb/posf.jpg,stim_02/e.jpg,stim_02/f.jpg,2,3,j,4,56,296,51,j,1,0.799790864731,02,02,60.0196902816,PLT_learning_02,A,2014_Feb_24_1058,P13,
stim_fb/ques.jpg,stim_fb/negf.jpg,stim_fb/posf.jpg,stim_02/e.jpg,stim_02/f.jpg,2,3,j,4,57,297,52,j,1,0.549855107856,02,02,60.0196902816,PLT_learning_02,A,2014_Feb_24_1058,P13,
stim_fb/ques.jpg,stim_fb/negf.jpg,stim_fb/posf.jpg,stim_02/e.jpg,stim_02/f.jpg,2,3,j,4,58,298,53,j,1,0.733131796002,02,02,60.0196902816,PLT_learning_02,A,2014_Feb_24_1058,P13,
stim_fb/ques.jpg,stim_fb/negf.jpg,stim_fb/posf.jpg,stim_02/b.jpg,stim_02/a.jpg,1,1,f,4,59,299,3,None,0,,02,02,60.0196902816,PLT_learning_02,A,2014_Feb_24_1058,P13,
stim_fb/ques.jpg,stim_fb/posf.jpg,stim_fb/negf.jpg,stim_02/e.jpg,stim_02/f.jpg,2,3,j,5,0,300,56,j,1,1.19965053797,02,02,60.0196902816,PLT_learning_02,A,2014_Feb_24_1058,P13,
stim_fb/ques.jpg,stim_fb/negf.jpg,stim_fb/posf.jpg,stim_02/a.jpg,stim_02/b.jpg,2,1,j,5,1,301,11,j,1,1.14965989729,02,02,60.0196902816,PLT_learning_02,A,2014_Feb_24_1058,P13,
stim_fb/ques.jpg,stim_fb/negf.jpg,stim_fb/posf.jpg,stim_02/f.jpg,stim_02/e.jpg,1,3,f,5,2,302,43,f,1,1.24961209615,02,02,60.0196902816,PLT_learning_02,A,2014_Feb_24_1058,P13,
stim_fb/ques.jpg,stim_fb/negf.jpg,stim_fb/posf.jpg,stim_02/c.jpg,stim_02/d.jpg,2,2,j,5,3,303,30,j,1,0.866454366509,02,02,60.0196902816,PLT_learning_02,A,2014_Feb_24_1058,P13,
stim_fb/ques.jpg,stim_fb/posf.jpg,stim_fb/negf.jpg,stim_02/d.jpg,stim_02/c.jpg,1,2,f,5,4,304,28,f,1,0.816777579116,02,02,60.0196902816,PLT_learning_02,A,2014_Feb_24_1058,P13,
stim_fb/ques.jpg,stim_fb/negf.jpg,stim_fb/posf.jpg,stim_02/a.jpg,stim_02/b.jpg,2,1,j,5,5,305,17,j,1,0.949741574876,02,02,60.0196902816,PLT_learning_02,A,2014_Feb_24_1058,P13,
stim_fb/ques.jpg,stim_fb/negf.jpg,stim_fb/posf.jpg,stim_02/e.jpg,stim_02/f.jpg,2,3,j,5,6,306,55,j,1,1.21634532372,02,02,60.0196902816,PLT_learning_02,A,2014_Feb_24_1058,P13,
stim_fb/ques.jpg,stim_fb/negf.jpg,stim_fb/posf.jpg,stim_02/e.jpg,stim_02/f.jpg,2,3,j,5,7,307,50,j,1,0.599828308058,02,02,60.0196902816,PLT_learning_02,A,2014_Feb_24_1058,P13,
stim_fb/ques.jpg,stim_fb/posf.jpg,stim_fb/negf.jpg,stim_02/f.jpg,stim_02/e.jpg,1,3,f,5,8,308,47,f,1,0.649875528756,02,02,60.0196902816,PLT_learning_02,A,2014_Feb_24_1058,P13,
stim_fb/ques.jpg,stim_fb/posf.jpg,stim_fb/negf.jpg,stim_02/a.jpg,stim_02/b.jpg,2,1,j,5,9,309,18,j,1,0.566528630612,02,02,60.0196902816,PLT_learning_02,A,2014_Feb_24_1058,P13,
stim_fb/ques.jpg,stim_fb/negf.jpg,stim_fb/posf.jpg,stim_02/b.jpg,stim_02/a.jpg,1,1,f,5,10,310,6,f,1,1.1330180946,02,02,60.0196902816,PLT_learning_02,A,2014_Feb_24_1058,P13,
stim_fb/ques.jpg,stim_fb/negf.jpg,stim_fb/posf.jpg,stim_02/f.jpg,stim_02/e.jpg,1,3,f,5,11,311,45,f,1,1.23294862144,02,02,60.0196902816,PLT_learning_02,A,2014_Feb_24_1058,P13,
stim_fb/ques.jpg,stim_fb/posf.jpg,stim_fb/negf.jpg,stim_02/b.jpg,stim_02/a.jpg,1,1,f,5,12,312,9,f,1,1.43289131661,02,02,60.0196902816,PLT_learning_02,A,2014_Feb_24_1058,P13,
stim_fb/ques.jpg,stim_fb/negf.jpg,stim_fb/posf.jpg,stim_02/f.jpg,stim_02/e.jpg,1,3,f,5,13,313,42,f,1,0.833114129969,02,02,60.0196902816,PLT_learning_02,A,2014_Feb_24_1058,P13,
stim_fb/ques.jpg,stim_fb/posf.jpg,stim_fb/negf.jpg,stim_02/d.jpg,stim_02/c.jpg,1,2,f,5,14,314,29,f,1,1.04972241412,02,02,60.0196902816,PLT_learning_02,A,2014_Feb_24_1058,P13,
stim_fb/ques.jpg,stim_fb/negf.jpg,stim_fb/posf.jpg,stim_02/e.jpg,stim_02/f.jpg,2,3,j,5,15,315,54,j,1,1.14966580101,02,02,60.0196902816,PLT_learning_02,A,2014_Feb_24_1058,P13,
stim_fb/ques.jpg,stim_fb/negf.jpg,stim_fb/posf.jpg,stim_02/a.jpg,stim_02/b.jpg,2,1,j,5,16,316,16,j,1,0.766461136382,02,02,60.0196902816,PLT_learning_02,A,2014_Feb_24_1058,P13,
stim_fb/ques.jpg,stim_fb/posf.jpg,stim_fb/negf.jpg,stim_02/e.jpg,stim_02/f.jpg,2,3,j,5,17,317,58,j,1,0.683123344937,02,02,60.0196902816,PLT_learning_02,A,2014_Feb_24_1058,P13,
stim_fb/ques.jpg,stim_fb/negf.jpg,stim_fb/posf.jpg,stim_02/b.jpg,stim_02/a.jpg,1,1,f,5,18,318,1,f,1,0.733152292088,02,02,60.0196902816,PLT_learning_02,A,2014_Feb_24_1058,P13,
stim_fb/ques.jpg,stim_fb/negf.jpg,stim_fb/posf.jpg,stim_02/c.jpg,stim_02/d.jpg,2,2,j,5,19,319,32,j,1,0.833160343155,02,02,60.0196902816,PLT_learning_02,A,2014_Feb_24_1058,P13,
stim_fb/ques.jpg,stim_fb/negf.jpg,stim_fb/posf.jpg,stim_02/d.jpg,stim_02/c.jpg,1,2,f,5,20,320,26,f,1,0.816430123082,02,02,60.0196902816,PLT_learning_02,A,2014_Feb_24_1058,P13,
stim_fb/ques.jpg,stim_fb/negf.jpg,stim_fb/posf.jpg,stim_02/b.jpg,stim_02/a.jpg,1,1,f,5,21,321,7,f,1,0.666491259464,02,02,60.0196902816,PLT_learning_02,A,2014_Feb_24_1058,P13,
stim_fb/ques.jpg,stim_fb/negf.jpg,stim_fb/posf.jpg,stim_02/b.jpg,stim_02/a.jpg,1,1,f,5,22,322,3,f,1,0.51655949053,02,02,60.0196902816,PLT_learning_02,A,2014_Feb_24_1058,P13,
stim_fb/ques.jpg,stim_fb/negf.jpg,stim_fb/posf.jpg,stim_02/a.jpg,stim_02/b.jpg,2,1,j,5,23,323,10,j,1,0.949741589913,02,02,60.0196902816,PLT_learning_02,A,2014_Feb_24_1058,P13,
stim_fb/ques.jpg,stim_fb/negf.jpg,stim_fb/posf.jpg,stim_02/c.jpg,stim_02/d.jpg,2,2,j,5,24,324,35,j,1,0.816435178683,02,02,60.0196902816,PLT_learning_02,A,2014_Feb_24_1058,P13,
stim_fb/ques.jpg,stim_fb/negf.jpg,stim_fb/posf.jpg,stim_02/a.jpg,stim_02/b.jpg,2,1,j,5,25,325,13,j,1,0.58319401809,02,02,60.0196902816,PLT_learning_02,A,2014_Feb_24_1058,P13,
stim_fb/ques.jpg,stim_fb/negf.jpg,stim_fb/posf.jpg,stim_02/c.jpg,stim_02/d.jpg,2,2,j,5,26,326,33,j,1,1.1163415433,02,02,60.0196902816,PLT_learning_02,A,2014_Feb_24_1058,P13,
stim_fb/ques.jpg,stim_fb/negf.jpg,stim_fb/posf.jpg,stim_02/f.jpg,stim_02/e.jpg,1,3,f,5,27,327,40,f,1,1.04971212848,02,02,60.0196902816,PLT_learning_02,A,2014_Feb_24_1058,P13,
stim_fb/ques.jpg,stim_fb/negf.jpg,stim_fb/posf.jpg,stim_02/d.jpg,stim_02/c.jpg,1,2,f,5,28,328,25,f,1,0.716491551192,02,02,60.0196902816,PLT_learning_02,A,2014_Feb_24_1058,P13,
stim_fb/ques.jpg,stim_fb/posf.jpg,stim_fb/negf.jpg,stim_02/c.jpg,stim_02/d.jpg,2,2,j,5,29,329,38,j,1,0.81648260389,02,02,60.0196902816,PLT_learning_02,A,2014_Feb_24_1058,P13,
stim_fb/ques.jpg,stim_fb/posf.jpg,stim_fb/negf.jpg,stim_02/c.jpg,stim_02/d.jpg,2,2,j,5,30,330,37,j,1,0.799782933963,02,02,60.0196902816,PLT_learning_02,A,2014_Feb_24_1058,P13,
stim_fb/ques.jpg,stim_fb/negf.jpg,stim_fb/posf.jpg,stim_02/a.jpg,stim_02/b.jpg,2,1,j,5,31,331,14,j,1,0.799748600386,02,02,60.0196902816,PLT_learning_02,A,2014_Feb_24_1058,P13,
stim_fb/ques.jpg,stim_fb/negf.jpg,stim_fb/posf.jpg,stim_02/e.jpg,stim_02/f.jpg,2,3,j,5,32,332,53,j,1,1.11634687559,02,02,60.0196902816,PLT_learning_02,A,2014_Feb_24_1058,P13,
stim_fb/ques.jpg,stim_fb/negf.jpg,stim_fb/posf.jpg,stim_02/b.jpg,stim_02/a.jpg,1,1,f,5,33,333,5,f,1,1.28296578522,02,02,60.0196902816,PLT_learning_02,A,2014_Feb_24_1058,P13,
stim_fb/ques.jpg,stim_fb/negf.jpg,stim_fb/posf.jpg,stim_02/d.jpg,stim_02/c.jpg,1,2,f,5,34,334,20,f,1,1.06637461372,02,02,60.0196902816,PLT_learning_02,A,2014_Feb_24_1058,P13,
stim_fb/ques.jpg,stim_fb/posf.jpg,stim_fb/negf.jpg,stim_02/f.jpg,stim_02/e.jpg,1,3,f,5,35,335,46,f,1,0.749856271757,02,02,60.0196902816,PLT_learning_02,A,2014_Feb_24_1058,P13,
stim_fb/ques.jpg,stim_fb/posf.jpg,stim_fb/negf.jpg,stim_02/c.jpg,stim_02/d.jpg,2,2,j,5,36,336,39,j,1,1.03303334561,02,02,60.0196902816,PLT_learning_02,A,2014_Feb_24_1058,P13,
stim_fb/ques.jpg,stim_fb/posf.jpg,stim_fb/negf.jpg,stim_02/e.jpg,stim_02/f.jpg,2,3,j,5,37,337,59,j,1,0.966382899377,02,02,60.0196902816,PLT_learning_02,A,2014_Feb_24_1058,P13,
stim_fb/ques.jpg,stim_fb/posf.jpg,stim_fb/negf.jpg,stim_02/b.jpg,stim_02/a.jpg,1,1,f,5,38,338,8,f,1,1.14966382508,02,02,60.0196902816,PLT_learning_02,A,2014_Feb_24_1058,P13,
stim_fb/ques.jpg,stim_fb/negf.jpg,stim_fb/posf.jpg,stim_02/d.jpg,stim_02/c.jpg,1,2,f,5,39,339,24,f,1,0.899740477139,02,02,60.0196902816,PLT_learning_02,A,2014_Feb_24_1058,P13,
stim_fb/ques.jpg,stim_fb/negf.jpg,stim_fb/posf.jpg,stim_02/d.jpg,stim_02/c.jpg,1,2,f,5,40,340,22,f,1,0.899760949166,02,02,60.0196902816,PLT_learning_02,A,2014_Feb_24_1058,P13,
stim_fb/ques.jpg,stim_fb/negf.jpg,stim_fb/posf.jpg,stim_02/c.jpg,stim_02/d.jpg,2,2,j,5,41,341,36,j,1,1.19966581605,02,02,60.0196902816,PLT_learning_02,A,2014_Feb_24_1058,P13,
stim_fb/ques.jpg,stim_fb/negf.jpg,stim_fb/posf.jpg,stim_02/d.jpg,stim_02/c.jpg,1,2,f,5,42,342,23,f,1,1.31627035285,02,02,60.0196902816,PLT_learning_02,A,2014_Feb_24_1058,P13,
stim_fb/ques.jpg,stim_fb/posf.jpg,stim_fb/negf.jpg,stim_02/f.jpg,stim_02/e.jpg,1,3,f,5,43,343,49,f,1,1.14969115119,02,02,60.0196902816,PLT_learning_02,A,2014_Feb_24_1058,P13,
stim_fb/ques.jpg,stim_fb/negf.jpg,stim_fb/posf.jpg,stim_02/f.jpg,stim_02/e.jpg,1,3,f,5,44,344,41,f,1,1.23306647619,02,02,60.0196902816,PLT_learning_02,A,2014_Feb_24_1058,P13,
stim_fb/ques.jpg,stim_fb/negf.jpg,stim_fb/posf.jpg,stim_02/e.jpg,stim_02/f.jpg,2,3,j,5,45,345,51,j,1,0.549842434267,02,02,60.0196902816,PLT_learning_02,A,2014_Feb_24_1058,P13,
stim_fb/ques.jpg,stim_fb/negf.jpg,stim_fb/posf.jpg,stim_02/c.jpg,stim_02/d.jpg,2,2,j,5,46,346,34,j,1,1.0663283464,02,02,60.0196902816,PLT_learning_02,A,2014_Feb_24_1058,P13,
stim_fb/ques.jpg,stim_fb/negf.jpg,stim_fb/posf.jpg,stim_02/b.jpg,stim_02/a.jpg,1,1,f,5,47,347,4,f,1,1.28296007699,02,02,60.0196902816,PLT_learning_02,A,2014_Feb_24_1058,P13,
stim_fb/ques.jpg,stim_fb/negf.jpg,stim_fb/posf.jpg,stim_02/a.jpg,stim_02/b.jpg,2,1,j,5,48,348,15,j,1,0.666470378418,02,02,60.0196902816,PLT_learning_02,A,2014_Feb_24_1058,P13,
stim_fb/ques.jpg,stim_fb/posf.jpg,stim_fb/negf.jpg,stim_02/d.jpg,stim_02/c.jpg,1,2,f,5,49,349,27,f,1,1.01638594597,02,02,60.0196902816,PLT_learning_02,A,2014_Feb_24_1058,P13,
stim_fb/ques.jpg,stim_fb/negf.jpg,stim_fb/posf.jpg,stim_02/a.jpg,stim_02/b.jpg,2,1,j,5,50,350,12,j,1,0.499852984564,02,02,60.0196902816,PLT_learning_02,A,2014_Feb_24_1058,P13,
stim_fb/ques.jpg,stim_fb/negf.jpg,stim_fb/posf.jpg,stim_02/d.jpg,stim_02/c.jpg,1,2,f,5,51,351,21,f,1,0.783103982677,02,02,60.0196902816,PLT_learning_02,A,2014_Feb_24_1058,P13,
stim_fb/ques.jpg,stim_fb/negf.jpg,stim_fb/posf.jpg,stim_02/b.jpg,stim_02/a.jpg,1,1,f,5,52,352,0,f,1,0.716485193344,02,02,60.0196902816,PLT_learning_02,A,2014_Feb_24_1058,P13,
stim_fb/ques.jpg,stim_fb/negf.jpg,stim_fb/posf.jpg,stim_02/c.jpg,stim_02/d.jpg,2,2,j,5,53,353,31,j,1,1.0163911339,02,02,60.0196902816,PLT_learning_02,A,2014_Feb_24_1058,P13,
stim_fb/ques.jpg,stim_fb/negf.jpg,stim_fb/posf.jpg,stim_02/b.jpg,stim_02/a.jpg,1,1,f,5,54,354,2,f,1,0.76648606251,02,02,60.0196902816,PLT_learning_02,A,2014_Feb_24_1058,P13,
stim_fb/ques.jpg,stim_fb/negf.jpg,stim_fb/posf.jpg,stim_02/e.jpg,stim_02/f.jpg,2,3,j,5,55,355,52,j,1,1.1829846332,02,02,60.0196902816,PLT_learning_02,A,2014_Feb_24_1058,P13,
stim_fb/ques.jpg,stim_fb/negf.jpg,stim_fb/posf.jpg,stim_02/f.jpg,stim_02/e.jpg,1,3,f,5,56,356,44,f,1,0.799798091743,02,02,60.0196902816,PLT_learning_02,A,2014_Feb_24_1058,P13,
stim_fb/ques.jpg,stim_fb/posf.jpg,stim_fb/negf.jpg,stim_02/f.jpg,stim_02/e.jpg,1,3,f,5,57,357,48,f,1,0.683188030165,02,02,60.0196902816,PLT_learning_02,A,2014_Feb_24_1058,P13,
stim_fb/ques.jpg,stim_fb/posf.jpg,stim_fb/negf.jpg,stim_02/e.jpg,stim_02/f.jpg,2,3,j,5,58,358,57,j,1,0.749832049383,02,02,60.0196902816,PLT_learning_02,A,2014_Feb_24_1058,P13,
stim_fb/ques.jpg,stim_fb/posf.jpg,stim_fb/negf.jpg,stim_02/a.jpg,stim_02/b.jpg,2,1,j,5,59,359,19,j,1,0.966393720348,02,02,60.0196902816,PLT_learning_02,A,2014_Feb_24_1058,P13,
