Fb3,Fb2,Fb1,Symbol2,Symbol1,PosCond,Pair,Correct,trials.thisRepN,trials.thisTrialN,trials.thisN,trials.thisIndex,Response.keys,Response.corr,Response.rt,Version,Session Number,frameRate,expName,StimCondition,date,Participant,
stim_fb/ques.jpg,stim_fb/negf.jpg,stim_fb/posf.jpg,stim_03/b.jpg,stim_03/a.jpg,1,1,f,0,0,0,1,f,1,0.899729903798,03,03,60.0154753347,PLT_learning_3,A,2014_Mrz_06_1346,P14,
stim_fb/ques.jpg,stim_fb/posf.jpg,stim_fb/negf.jpg,stim_03/f.jpg,stim_03/e.jpg,1,3,f,0,1,1,49,f,1,1.11636985147,03,03,60.0154753347,PLT_learning_3,A,2014_Mrz_06_1346,P14,
stim_fb/ques.jpg,stim_fb/negf.jpg,stim_fb/posf.jpg,stim_03/f.jpg,stim_03/e.jpg,1,3,f,0,2,2,44,f,1,1.06635269527,03,03,60.0154753347,PLT_learning_3,A,2014_Mrz_06_1346,P14,
stim_fb/ques.jpg,stim_fb/negf.jpg,stim_fb/posf.jpg,stim_03/d.jpg,stim_03/c.jpg,1,2,f,0,3,3,22,j,0,1.51619835866,03,03,60.0154753347,PLT_learning_3,A,2014_Mrz_06_1346,P14,
stim_fb/ques.jpg,stim_fb/negf.jpg,stim_fb/posf.jpg,stim_03/f.jpg,stim_03/e.jpg,1,3,f,0,4,4,41,f,1,1.28296611392,03,03,60.0154753347,PLT_learning_3,A,2014_Mrz_06_1346,P14,
stim_fb/ques.jpg,stim_fb/negf.jpg,stim_fb/posf.jpg,stim_03/f.jpg,stim_03/e.jpg,1,3,f,0,5,5,42,f,1,0.783106978492,03,03,60.0154753347,PLT_learning_3,A,2014_Mrz_06_1346,P14,
stim_fb/ques.jpg,stim_fb/negf.jpg,stim_fb/posf.jpg,stim_03/c.jpg,stim_03/d.jpg,2,2,j,0,6,6,34,f,0,1.29963081018,03,03,60.0154753347,PLT_learning_3,A,2014_Mrz_06_1346,P14,
stim_fb/ques.jpg,stim_fb/negf.jpg,stim_fb/posf.jpg,stim_03/a.jpg,stim_03/b.jpg,2,1,j,0,7,7,17,j,1,1.01637500329,03,03,60.0154753347,PLT_learning_3,A,2014_Mrz_06_1346,P14,
stim_fb/ques.jpg,stim_fb/negf.jpg,stim_fb/posf.jpg,stim_03/d.jpg,stim_03/c.jpg,1,2,f,0,8,8,23,j,0,1.06634120367,03,03,60.0154753347,PLT_learning_3,A,2014_Mrz_06_1346,P14,
stim_fb/ques.jpg,stim_fb/posf.jpg,stim_fb/negf.jpg,stim_03/f.jpg,stim_03/e.jpg,1,3,f,0,9,9,47,f,1,1.16626882253,03,03,60.0154753347,PLT_learning_3,A,2014_Mrz_06_1346,P14,
stim_fb/ques.jpg,stim_fb/negf.jpg,stim_fb/posf.jpg,stim_03/c.jpg,stim_03/d.jpg,2,2,j,0,10,10,32,j,1,1.03295497269,03,03,60.0154753347,PLT_learning_3,A,2014_Mrz_06_1346,P14,
stim_fb/ques.jpg,stim_fb/posf.jpg,stim_fb/negf.jpg,stim_03/d.jpg,stim_03/c.jpg,1,2,f,0,11,11,28,f,1,0.799695789897,03,03,60.0154753347,PLT_learning_3,A,2014_Mrz_06_1346,P14,
stim_fb/ques.jpg,stim_fb/negf.jpg,stim_fb/posf.jpg,stim_03/e.jpg,stim_03/f.jpg,2,3,j,0,12,12,54,j,1,1.04974754721,03,03,60.0154753347,PLT_learning_3,A,2014_Mrz_06_1346,P14,
stim_fb/ques.jpg,stim_fb/negf.jpg,stim_fb/posf.jpg,stim_03/e.jpg,stim_03/f.jpg,2,3,j,0,13,13,52,j,1,0.783148935914,03,03,60.0154753347,PLT_learning_3,A,2014_Mrz_06_1346,P14,
stim_fb/ques.jpg,stim_fb/posf.jpg,stim_fb/negf.jpg,stim_03/f.jpg,stim_03/e.jpg,1,3,f,0,14,14,48,f,1,0.783113841573,03,03,60.0154753347,PLT_learning_3,A,2014_Mrz_06_1346,P14,
stim_fb/ques.jpg,stim_fb/negf.jpg,stim_fb/posf.jpg,stim_03/e.jpg,stim_03/f.jpg,2,3,j,0,15,15,55,j,1,0.683157104243,03,03,60.0154753347,PLT_learning_3,A,2014_Mrz_06_1346,P14,
stim_fb/ques.jpg,stim_fb/posf.jpg,stim_fb/negf.jpg,stim_03/e.jpg,stim_03/f.jpg,2,3,j,0,16,16,57,j,1,0.699817996037,03,03,60.0154753347,PLT_learning_3,A,2014_Mrz_06_1346,P14,
stim_fb/ques.jpg,stim_fb/negf.jpg,stim_fb/posf.jpg,stim_03/b.jpg,stim_03/a.jpg,1,1,f,0,17,17,3,f,1,1.04966878419,03,03,60.0154753347,PLT_learning_3,A,2014_Mrz_06_1346,P14,
stim_fb/ques.jpg,stim_fb/negf.jpg,stim_fb/posf.jpg,stim_03/a.jpg,stim_03/b.jpg,2,1,j,0,18,18,12,j,1,0.949725030169,03,03,60.0154753347,PLT_learning_3,A,2014_Mrz_06_1346,P14,
stim_fb/ques.jpg,stim_fb/negf.jpg,stim_fb/posf.jpg,stim_03/a.jpg,stim_03/b.jpg,2,1,j,0,19,19,10,f,0,0.883111204009,03,03,60.0154753347,PLT_learning_3,A,2014_Mrz_06_1346,P14,
stim_fb/ques.jpg,stim_fb/negf.jpg,stim_fb/posf.jpg,stim_03/b.jpg,stim_03/a.jpg,1,1,f,0,20,20,4,f,1,0.733104622128,03,03,60.0154753347,PLT_learning_3,A,2014_Mrz_06_1346,P14,
stim_fb/ques.jpg,stim_fb/negf.jpg,stim_fb/posf.jpg,stim_03/a.jpg,stim_03/b.jpg,2,1,j,0,21,21,15,j,1,0.666548229907,03,03,60.0154753347,PLT_learning_3,A,2014_Mrz_06_1346,P14,
stim_fb/ques.jpg,stim_fb/negf.jpg,stim_fb/posf.jpg,stim_03/b.jpg,stim_03/a.jpg,1,1,f,0,22,22,7,f,1,0.583374527355,03,03,60.0154753347,PLT_learning_3,A,2014_Mrz_06_1346,P14,
stim_fb/ques.jpg,stim_fb/negf.jpg,stim_fb/posf.jpg,stim_03/d.jpg,stim_03/c.jpg,1,2,f,0,23,23,21,f,1,0.849734584948,03,03,60.0154753347,PLT_learning_3,A,2014_Mrz_06_1346,P14,
stim_fb/ques.jpg,stim_fb/negf.jpg,stim_fb/posf.jpg,stim_03/e.jpg,stim_03/f.jpg,2,3,j,0,24,24,51,j,1,1.24962965079,03,03,60.0154753347,PLT_learning_3,A,2014_Mrz_06_1346,P14,
stim_fb/ques.jpg,stim_fb/negf.jpg,stim_fb/posf.jpg,stim_03/e.jpg,stim_03/f.jpg,2,3,j,0,25,25,50,j,1,0.683149579516,03,03,60.0154753347,PLT_learning_3,A,2014_Mrz_06_1346,P14,
stim_fb/ques.jpg,stim_fb/negf.jpg,stim_fb/posf.jpg,stim_03/a.jpg,stim_03/b.jpg,2,1,j,0,26,26,14,j,1,0.633199980452,03,03,60.0154753347,PLT_learning_3,A,2014_Mrz_06_1346,P14,
stim_fb/ques.jpg,stim_fb/posf.jpg,stim_fb/negf.jpg,stim_03/e.jpg,stim_03/f.jpg,2,3,j,0,27,27,59,j,1,0.816417862956,03,03,60.0154753347,PLT_learning_3,A,2014_Mrz_06_1346,P14,
stim_fb/ques.jpg,stim_fb/negf.jpg,stim_fb/posf.jpg,stim_03/c.jpg,stim_03/d.jpg,2,2,j,0,28,28,31,j,1,1.11620945328,03,03,60.0154753347,PLT_learning_3,A,2014_Mrz_06_1346,P14,
stim_fb/ques.jpg,stim_fb/negf.jpg,stim_fb/posf.jpg,stim_03/e.jpg,stim_03/f.jpg,2,3,j,0,29,29,53,f,0,0.949712837825,03,03,60.0154753347,PLT_learning_3,A,2014_Mrz_06_1346,P14,
stim_fb/ques.jpg,stim_fb/posf.jpg,stim_fb/negf.jpg,stim_03/c.jpg,stim_03/d.jpg,2,2,j,0,30,30,38,j,1,0.783124130179,03,03,60.0154753347,PLT_learning_3,A,2014_Mrz_06_1346,P14,
stim_fb/ques.jpg,stim_fb/negf.jpg,stim_fb/posf.jpg,stim_03/d.jpg,stim_03/c.jpg,1,2,f,0,31,31,24,f,1,0.699776086735,03,03,60.0154753347,PLT_learning_3,A,2014_Mrz_06_1346,P14,
stim_fb/ques.jpg,stim_fb/negf.jpg,stim_fb/posf.jpg,stim_03/f.jpg,stim_03/e.jpg,1,3,f,0,32,32,45,f,1,1.24967957504,03,03,60.0154753347,PLT_learning_3,A,2014_Mrz_06_1346,P14,
stim_fb/ques.jpg,stim_fb/negf.jpg,stim_fb/posf.jpg,stim_03/a.jpg,stim_03/b.jpg,2,1,j,0,33,33,11,j,1,1.13299739326,03,03,60.0154753347,PLT_learning_3,A,2014_Mrz_06_1346,P14,
stim_fb/ques.jpg,stim_fb/posf.jpg,stim_fb/negf.jpg,stim_03/e.jpg,stim_03/f.jpg,2,3,j,0,34,34,56,j,1,1.03299848197,03,03,60.0154753347,PLT_learning_3,A,2014_Mrz_06_1346,P14,
stim_fb/ques.jpg,stim_fb/posf.jpg,stim_fb/negf.jpg,stim_03/d.jpg,stim_03/c.jpg,1,2,f,0,35,35,27,f,1,0.966376397259,03,03,60.0154753347,PLT_learning_3,A,2014_Mrz_06_1346,P14,
stim_fb/ques.jpg,stim_fb/negf.jpg,stim_fb/posf.jpg,stim_03/d.jpg,stim_03/c.jpg,1,2,f,0,36,36,25,f,1,0.699824053112,03,03,60.0154753347,PLT_learning_3,A,2014_Mrz_06_1346,P14,
stim_fb/ques.jpg,stim_fb/negf.jpg,stim_fb/posf.jpg,stim_03/c.jpg,stim_03/d.jpg,2,2,j,0,37,37,30,j,1,0.733110916794,03,03,60.0154753347,PLT_learning_3,A,2014_Mrz_06_1346,P14,
stim_fb/ques.jpg,stim_fb/negf.jpg,stim_fb/posf.jpg,stim_03/d.jpg,stim_03/c.jpg,1,2,f,0,38,38,26,f,1,0.78308746593,03,03,60.0154753347,PLT_learning_3,A,2014_Mrz_06_1346,P14,
stim_fb/ques.jpg,stim_fb/negf.jpg,stim_fb/posf.jpg,stim_03/a.jpg,stim_03/b.jpg,2,1,j,0,39,39,13,j,1,0.849769528915,03,03,60.0154753347,PLT_learning_3,A,2014_Mrz_06_1346,P14,
stim_fb/ques.jpg,stim_fb/negf.jpg,stim_fb/posf.jpg,stim_03/f.jpg,stim_03/e.jpg,1,3,f,0,40,40,43,f,1,0.666503514622,03,03,60.0154753347,PLT_learning_3,A,2014_Mrz_06_1346,P14,
stim_fb/ques.jpg,stim_fb/negf.jpg,stim_fb/posf.jpg,stim_03/f.jpg,stim_03/e.jpg,1,3,f,0,41,41,40,j,0,1.08301640508,03,03,60.0154753347,PLT_learning_3,A,2014_Mrz_06_1346,P14,
stim_fb/ques.jpg,stim_fb/posf.jpg,stim_fb/negf.jpg,stim_03/a.jpg,stim_03/b.jpg,2,1,j,0,42,42,19,j,1,0.916431231226,03,03,60.0154753347,PLT_learning_3,A,2014_Mrz_06_1346,P14,
stim_fb/ques.jpg,stim_fb/negf.jpg,stim_fb/posf.jpg,stim_03/a.jpg,stim_03/b.jpg,2,1,j,0,43,43,16,j,1,0.833093707965,03,03,60.0154753347,PLT_learning_3,A,2014_Mrz_06_1346,P14,
stim_fb/ques.jpg,stim_fb/negf.jpg,stim_fb/posf.jpg,stim_03/c.jpg,stim_03/d.jpg,2,2,j,0,44,44,35,j,1,1.13299095725,03,03,60.0154753347,PLT_learning_3,A,2014_Mrz_06_1346,P14,
stim_fb/ques.jpg,stim_fb/posf.jpg,stim_fb/negf.jpg,stim_03/e.jpg,stim_03/f.jpg,2,3,j,0,45,45,58,j,1,1.11632866096,03,03,60.0154753347,PLT_learning_3,A,2014_Mrz_06_1346,P14,
stim_fb/ques.jpg,stim_fb/negf.jpg,stim_fb/posf.jpg,stim_03/c.jpg,stim_03/d.jpg,2,2,j,0,46,46,36,j,1,0.766491313256,03,03,60.0154753347,PLT_learning_3,A,2014_Mrz_06_1346,P14,
stim_fb/ques.jpg,stim_fb/posf.jpg,stim_fb/negf.jpg,stim_03/d.jpg,stim_03/c.jpg,1,2,f,0,47,47,29,f,1,0.94971223332,03,03,60.0154753347,PLT_learning_3,A,2014_Mrz_06_1346,P14,
stim_fb/ques.jpg,stim_fb/posf.jpg,stim_fb/negf.jpg,stim_03/b.jpg,stim_03/a.jpg,1,1,f,0,48,48,8,j,0,0.816408963808,03,03,60.0154753347,PLT_learning_3,A,2014_Mrz_06_1346,P14,
stim_fb/ques.jpg,stim_fb/negf.jpg,stim_fb/posf.jpg,stim_03/b.jpg,stim_03/a.jpg,1,1,f,0,49,49,0,j,0,0.783061505322,03,03,60.0154753347,PLT_learning_3,A,2014_Mrz_06_1346,P14,
stim_fb/ques.jpg,stim_fb/negf.jpg,stim_fb/posf.jpg,stim_03/b.jpg,stim_03/a.jpg,1,1,f,0,50,50,5,f,1,0.849795029379,03,03,60.0154753347,PLT_learning_3,A,2014_Mrz_06_1346,P14,
stim_fb/ques.jpg,stim_fb/posf.jpg,stim_fb/negf.jpg,stim_03/c.jpg,stim_03/d.jpg,2,2,j,0,51,51,37,j,1,0.733131346639,03,03,60.0154753347,PLT_learning_3,A,2014_Mrz_06_1346,P14,
stim_fb/ques.jpg,stim_fb/negf.jpg,stim_fb/posf.jpg,stim_03/b.jpg,stim_03/a.jpg,1,1,f,0,52,52,6,f,1,1.24963023725,03,03,60.0154753347,PLT_learning_3,A,2014_Mrz_06_1346,P14,
stim_fb/ques.jpg,stim_fb/negf.jpg,stim_fb/posf.jpg,stim_03/c.jpg,stim_03/d.jpg,2,2,j,0,53,53,33,j,1,1.16633461427,03,03,60.0154753347,PLT_learning_3,A,2014_Mrz_06_1346,P14,
stim_fb/ques.jpg,stim_fb/posf.jpg,stim_fb/negf.jpg,stim_03/f.jpg,stim_03/e.jpg,1,3,f,0,54,54,46,f,1,0.766462886509,03,03,60.0154753347,PLT_learning_3,A,2014_Mrz_06_1346,P14,
stim_fb/ques.jpg,stim_fb/posf.jpg,stim_fb/negf.jpg,stim_03/c.jpg,stim_03/d.jpg,2,2,j,0,55,55,39,f,0,0.749784211456,03,03,60.0154753347,PLT_learning_3,A,2014_Mrz_06_1346,P14,
stim_fb/ques.jpg,stim_fb/posf.jpg,stim_fb/negf.jpg,stim_03/a.jpg,stim_03/b.jpg,2,1,j,0,56,56,18,j,1,0.883087733597,03,03,60.0154753347,PLT_learning_3,A,2014_Mrz_06_1346,P14,
stim_fb/ques.jpg,stim_fb/posf.jpg,stim_fb/negf.jpg,stim_03/b.jpg,stim_03/a.jpg,1,1,f,0,57,57,9,f,1,0.883098798135,03,03,60.0154753347,PLT_learning_3,A,2014_Mrz_06_1346,P14,
stim_fb/ques.jpg,stim_fb/negf.jpg,stim_fb/posf.jpg,stim_03/d.jpg,stim_03/c.jpg,1,2,f,0,58,58,20,f,1,0.79977536494,03,03,60.0154753347,PLT_learning_3,A,2014_Mrz_06_1346,P14,
stim_fb/ques.jpg,stim_fb/negf.jpg,stim_fb/posf.jpg,stim_03/b.jpg,stim_03/a.jpg,1,1,f,0,59,59,2,f,1,0.966392111367,03,03,60.0154753347,PLT_learning_3,A,2014_Mrz_06_1346,P14,
stim_fb/ques.jpg,stim_fb/negf.jpg,stim_fb/posf.jpg,stim_03/f.jpg,stim_03/e.jpg,1,3,f,1,0,60,43,j,0,1.16636350116,03,03,60.0154753347,PLT_learning_3,A,2014_Mrz_06_1346,P14,
stim_fb/ques.jpg,stim_fb/posf.jpg,stim_fb/negf.jpg,stim_03/b.jpg,stim_03/a.jpg,1,1,f,1,1,61,8,j,0,1.04970161088,03,03,60.0154753347,PLT_learning_3,A,2014_Mrz_06_1346,P14,
stim_fb/ques.jpg,stim_fb/negf.jpg,stim_fb/posf.jpg,stim_03/a.jpg,stim_03/b.jpg,2,1,j,1,2,62,17,j,1,1.04970348756,03,03,60.0154753347,PLT_learning_3,A,2014_Mrz_06_1346,P14,
stim_fb/ques.jpg,stim_fb/negf.jpg,stim_fb/posf.jpg,stim_03/d.jpg,stim_03/c.jpg,1,2,f,1,3,63,23,f,1,0.783092900457,03,03,60.0154753347,PLT_learning_3,A,2014_Mrz_06_1346,P14,
stim_fb/ques.jpg,stim_fb/negf.jpg,stim_fb/posf.jpg,stim_03/f.jpg,stim_03/e.jpg,1,3,f,1,4,64,41,f,1,1.09967945023,03,03,60.0154753347,PLT_learning_3,A,2014_Mrz_06_1346,P14,
stim_fb/ques.jpg,stim_fb/negf.jpg,stim_fb/posf.jpg,stim_03/b.jpg,stim_03/a.jpg,1,1,f,1,5,65,7,f,1,0.899727100822,03,03,60.0154753347,PLT_learning_3,A,2014_Mrz_06_1346,P14,
stim_fb/ques.jpg,stim_fb/negf.jpg,stim_fb/posf.jpg,stim_03/a.jpg,stim_03/b.jpg,2,1,j,1,6,66,15,j,1,0.949596369966,03,03,60.0154753347,PLT_learning_3,A,2014_Mrz_06_1346,P14,
stim_fb/ques.jpg,stim_fb/negf.jpg,stim_fb/posf.jpg,stim_03/c.jpg,stim_03/d.jpg,2,2,j,1,7,67,36,j,1,0.916355466667,03,03,60.0154753347,PLT_learning_3,A,2014_Mrz_06_1346,P14,
stim_fb/ques.jpg,stim_fb/negf.jpg,stim_fb/posf.jpg,stim_03/e.jpg,stim_03/f.jpg,2,3,j,1,8,68,52,j,1,0.899773482254,03,03,60.0154753347,PLT_learning_3,A,2014_Mrz_06_1346,P14,
stim_fb/ques.jpg,stim_fb/posf.jpg,stim_fb/negf.jpg,stim_03/c.jpg,stim_03/d.jpg,2,2,j,1,9,69,38,j,1,0.899753067447,03,03,60.0154753347,PLT_learning_3,A,2014_Mrz_06_1346,P14,
stim_fb/ques.jpg,stim_fb/negf.jpg,stim_fb/posf.jpg,stim_03/e.jpg,stim_03/f.jpg,2,3,j,1,10,70,50,j,1,0.78307517434,03,03,60.0154753347,PLT_learning_3,A,2014_Mrz_06_1346,P14,
stim_fb/ques.jpg,stim_fb/posf.jpg,stim_fb/negf.jpg,stim_03/c.jpg,stim_03/d.jpg,2,2,j,1,11,71,39,j,1,0.899752020841,03,03,60.0154753347,PLT_learning_3,A,2014_Mrz_06_1346,P14,
stim_fb/ques.jpg,stim_fb/negf.jpg,stim_fb/posf.jpg,stim_03/c.jpg,stim_03/d.jpg,2,2,j,1,12,72,33,j,1,0.849757766642,03,03,60.0154753347,PLT_learning_3,A,2014_Mrz_06_1346,P14,
stim_fb/ques.jpg,stim_fb/posf.jpg,stim_fb/negf.jpg,stim_03/a.jpg,stim_03/b.jpg,2,1,j,1,13,73,18,j,1,0.949730759427,03,03,60.0154753347,PLT_learning_3,A,2014_Mrz_06_1346,P14,
stim_fb/ques.jpg,stim_fb/posf.jpg,stim_fb/negf.jpg,stim_03/d.jpg,stim_03/c.jpg,1,2,f,1,14,74,27,f,1,0.649745835949,03,03,60.0154753347,PLT_learning_3,A,2014_Mrz_06_1346,P14,
stim_fb/ques.jpg,stim_fb/posf.jpg,stim_fb/negf.jpg,stim_03/b.jpg,stim_03/a.jpg,1,1,f,1,15,75,9,f,1,1.01641362842,03,03,60.0154753347,PLT_learning_3,A,2014_Mrz_06_1346,P14,
stim_fb/ques.jpg,stim_fb/negf.jpg,stim_fb/posf.jpg,stim_03/b.jpg,stim_03/a.jpg,1,1,f,1,16,76,0,f,1,1.04975711703,03,03,60.0154753347,PLT_learning_3,A,2014_Mrz_06_1346,P14,
stim_fb/ques.jpg,stim_fb/negf.jpg,stim_fb/posf.jpg,stim_03/a.jpg,stim_03/b.jpg,2,1,j,1,17,77,13,j,1,0.716455504637,03,03,60.0154753347,PLT_learning_3,A,2014_Mrz_06_1346,P14,
stim_fb/ques.jpg,stim_fb/negf.jpg,stim_fb/posf.jpg,stim_03/d.jpg,stim_03/c.jpg,1,2,f,1,18,78,20,f,1,0.800016165231,03,03,60.0154753347,PLT_learning_3,A,2014_Mrz_06_1346,P14,
stim_fb/ques.jpg,stim_fb/negf.jpg,stim_fb/posf.jpg,stim_03/c.jpg,stim_03/d.jpg,2,2,j,1,19,79,30,j,1,0.849742777337,03,03,60.0154753347,PLT_learning_3,A,2014_Mrz_06_1346,P14,
stim_fb/ques.jpg,stim_fb/negf.jpg,stim_fb/posf.jpg,stim_03/f.jpg,stim_03/e.jpg,1,3,f,1,20,80,45,j,0,1.08301073296,03,03,60.0154753347,PLT_learning_3,A,2014_Mrz_06_1346,P14,
stim_fb/ques.jpg,stim_fb/negf.jpg,stim_fb/posf.jpg,stim_03/e.jpg,stim_03/f.jpg,2,3,j,1,21,81,51,j,1,0.883081348707,03,03,60.0154753347,PLT_learning_3,A,2014_Mrz_06_1346,P14,
stim_fb/ques.jpg,stim_fb/posf.jpg,stim_fb/negf.jpg,stim_03/c.jpg,stim_03/d.jpg,2,2,j,1,22,82,37,j,1,0.99975048101,03,03,60.0154753347,PLT_learning_3,A,2014_Mrz_06_1346,P14,
stim_fb/ques.jpg,stim_fb/negf.jpg,stim_fb/posf.jpg,stim_03/c.jpg,stim_03/d.jpg,2,2,j,1,23,83,32,j,1,1.13298491821,03,03,60.0154753347,PLT_learning_3,A,2014_Mrz_06_1346,P14,
stim_fb/ques.jpg,stim_fb/negf.jpg,stim_fb/posf.jpg,stim_03/f.jpg,stim_03/e.jpg,1,3,f,1,24,84,44,f,1,1.44956990109,03,03,60.0154753347,PLT_learning_3,A,2014_Mrz_06_1346,P14,
stim_fb/ques.jpg,stim_fb/negf.jpg,stim_fb/posf.jpg,stim_03/b.jpg,stim_03/a.jpg,1,1,f,1,25,85,1,j,0,1.2829682763,03,03,60.0154753347,PLT_learning_3,A,2014_Mrz_06_1346,P14,
stim_fb/ques.jpg,stim_fb/negf.jpg,stim_fb/posf.jpg,stim_03/f.jpg,stim_03/e.jpg,1,3,f,1,26,86,42,f,1,0.616523148987,03,03,60.0154753347,PLT_learning_3,A,2014_Mrz_06_1346,P14,
stim_fb/ques.jpg,stim_fb/posf.jpg,stim_fb/negf.jpg,stim_03/f.jpg,stim_03/e.jpg,1,3,f,1,27,87,49,f,1,0.83310978598,03,03,60.0154753347,PLT_learning_3,A,2014_Mrz_06_1346,P14,
stim_fb/ques.jpg,stim_fb/negf.jpg,stim_fb/posf.jpg,stim_03/f.jpg,stim_03/e.jpg,1,3,f,1,28,88,40,f,1,1.01621514344,03,03,60.0154753347,PLT_learning_3,A,2014_Mrz_06_1346,P14,
stim_fb/ques.jpg,stim_fb/posf.jpg,stim_fb/negf.jpg,stim_03/d.jpg,stim_03/c.jpg,1,2,f,1,29,89,29,f,1,1.28296250193,03,03,60.0154753347,PLT_learning_3,A,2014_Mrz_06_1346,P14,
stim_fb/ques.jpg,stim_fb/posf.jpg,stim_fb/negf.jpg,stim_03/e.jpg,stim_03/f.jpg,2,3,j,1,30,90,58,j,1,0.816445913768,03,03,60.0154753347,PLT_learning_3,A,2014_Mrz_06_1346,P14,
stim_fb/ques.jpg,stim_fb/negf.jpg,stim_fb/posf.jpg,stim_03/a.jpg,stim_03/b.jpg,2,1,j,1,31,91,14,j,1,0.783120858036,03,03,60.0154753347,PLT_learning_3,A,2014_Mrz_06_1346,P14,
stim_fb/ques.jpg,stim_fb/negf.jpg,stim_fb/posf.jpg,stim_03/a.jpg,stim_03/b.jpg,2,1,j,1,32,92,12,j,1,0.766448922756,03,03,60.0154753347,PLT_learning_3,A,2014_Mrz_06_1346,P14,
stim_fb/ques.jpg,stim_fb/negf.jpg,stim_fb/posf.jpg,stim_03/e.jpg,stim_03/f.jpg,2,3,j,1,33,93,54,j,1,0.783050353568,03,03,60.0154753347,PLT_learning_3,A,2014_Mrz_06_1346,P14,
stim_fb/ques.jpg,stim_fb/posf.jpg,stim_fb/negf.jpg,stim_03/e.jpg,stim_03/f.jpg,2,3,j,1,34,94,59,j,1,0.799728327876,03,03,60.0154753347,PLT_learning_3,A,2014_Mrz_06_1346,P14,
stim_fb/ques.jpg,stim_fb/negf.jpg,stim_fb/posf.jpg,stim_03/d.jpg,stim_03/c.jpg,1,2,f,1,35,95,21,f,1,1.13303249362,03,03,60.0154753347,PLT_learning_3,A,2014_Mrz_06_1346,P14,
stim_fb/ques.jpg,stim_fb/negf.jpg,stim_fb/posf.jpg,stim_03/c.jpg,stim_03/d.jpg,2,2,j,1,36,96,34,j,1,0.933074096157,03,03,60.0154753347,PLT_learning_3,A,2014_Mrz_06_1346,P14,
stim_fb/ques.jpg,stim_fb/posf.jpg,stim_fb/negf.jpg,stim_03/f.jpg,stim_03/e.jpg,1,3,f,1,37,97,46,f,1,1.18295961775,03,03,60.0154753347,PLT_learning_3,A,2014_Mrz_06_1346,P14,
stim_fb/ques.jpg,stim_fb/negf.jpg,stim_fb/posf.jpg,stim_03/c.jpg,stim_03/d.jpg,2,2,j,1,38,98,31,None,0,,03,03,60.0154753347,PLT_learning_3,A,2014_Mrz_06_1346,P14,
stim_fb/ques.jpg,stim_fb/negf.jpg,stim_fb/posf.jpg,stim_03/b.jpg,stim_03/a.jpg,1,1,f,1,39,99,2,j,0,0.69982205915,03,03,60.0154753347,PLT_learning_3,A,2014_Mrz_06_1346,P14,
stim_fb/ques.jpg,stim_fb/negf.jpg,stim_fb/posf.jpg,stim_03/b.jpg,stim_03/a.jpg,1,1,f,1,40,100,6,f,1,0.716489795979,03,03,60.0154753347,PLT_learning_3,A,2014_Mrz_06_1346,P14,
stim_fb/ques.jpg,stim_fb/negf.jpg,stim_fb/posf.jpg,stim_03/e.jpg,stim_03/f.jpg,2,3,j,1,41,101,53,j,1,0.699783262595,03,03,60.0154753347,PLT_learning_3,A,2014_Mrz_06_1346,P14,
stim_fb/ques.jpg,stim_fb/negf.jpg,stim_fb/posf.jpg,stim_03/a.jpg,stim_03/b.jpg,2,1,j,1,42,102,10,j,1,0.749816469739,03,03,60.0154753347,PLT_learning_3,A,2014_Mrz_06_1346,P14,
stim_fb/ques.jpg,stim_fb/posf.jpg,stim_fb/negf.jpg,stim_03/e.jpg,stim_03/f.jpg,2,3,j,1,43,103,56,j,1,0.699834880058,03,03,60.0154753347,PLT_learning_3,A,2014_Mrz_06_1346,P14,
stim_fb/ques.jpg,stim_fb/negf.jpg,stim_fb/posf.jpg,stim_03/a.jpg,stim_03/b.jpg,2,1,j,1,44,104,11,j,1,0.866429476359,03,03,60.0154753347,PLT_learning_3,A,2014_Mrz_06_1346,P14,
stim_fb/ques.jpg,stim_fb/negf.jpg,stim_fb/posf.jpg,stim_03/a.jpg,stim_03/b.jpg,2,1,j,1,45,105,16,f,0,1.06637184393,03,03,60.0154753347,PLT_learning_3,A,2014_Mrz_06_1346,P14,
stim_fb/ques.jpg,stim_fb/posf.jpg,stim_fb/negf.jpg,stim_03/d.jpg,stim_03/c.jpg,1,2,f,1,46,106,28,f,1,1.03302488167,03,03,60.0154753347,PLT_learning_3,A,2014_Mrz_06_1346,P14,
stim_fb/ques.jpg,stim_fb/negf.jpg,stim_fb/posf.jpg,stim_03/b.jpg,stim_03/a.jpg,1,1,f,1,47,107,4,j,0,1.09966538723,03,03,60.0154753347,PLT_learning_3,A,2014_Mrz_06_1346,P14,
stim_fb/ques.jpg,stim_fb/negf.jpg,stim_fb/posf.jpg,stim_03/e.jpg,stim_03/f.jpg,2,3,j,1,48,108,55,j,1,0.983079429931,03,03,60.0154753347,PLT_learning_3,A,2014_Mrz_06_1346,P14,
stim_fb/ques.jpg,stim_fb/posf.jpg,stim_fb/negf.jpg,stim_03/a.jpg,stim_03/b.jpg,2,1,j,1,49,109,19,j,1,0.866428700429,03,03,60.0154753347,PLT_learning_3,A,2014_Mrz_06_1346,P14,
stim_fb/ques.jpg,stim_fb/negf.jpg,stim_fb/posf.jpg,stim_03/d.jpg,stim_03/c.jpg,1,2,f,1,50,110,24,f,1,1.16634384424,03,03,60.0154753347,PLT_learning_3,A,2014_Mrz_06_1346,P14,
stim_fb/ques.jpg,stim_fb/negf.jpg,stim_fb/posf.jpg,stim_03/b.jpg,stim_03/a.jpg,1,1,f,1,51,111,3,j,0,1.26629406135,03,03,60.0154753347,PLT_learning_3,A,2014_Mrz_06_1346,P14,
stim_fb/ques.jpg,stim_fb/negf.jpg,stim_fb/posf.jpg,stim_03/d.jpg,stim_03/c.jpg,1,2,f,1,52,112,25,f,1,1.4162508483,03,03,60.0154753347,PLT_learning_3,A,2014_Mrz_06_1346,P14,
stim_fb/ques.jpg,stim_fb/negf.jpg,stim_fb/posf.jpg,stim_03/d.jpg,stim_03/c.jpg,1,2,f,1,53,113,22,f,1,1.61614121044,03,03,60.0154753347,PLT_learning_3,A,2014_Mrz_06_1346,P14,
stim_fb/ques.jpg,stim_fb/negf.jpg,stim_fb/posf.jpg,stim_03/d.jpg,stim_03/c.jpg,1,2,f,1,54,114,26,j,0,0.899741993888,03,03,60.0154753347,PLT_learning_3,A,2014_Mrz_06_1346,P14,
stim_fb/ques.jpg,stim_fb/negf.jpg,stim_fb/posf.jpg,stim_03/b.jpg,stim_03/a.jpg,1,1,f,1,55,115,5,f,1,1.38293707665,03,03,60.0154753347,PLT_learning_3,A,2014_Mrz_06_1346,P14,
stim_fb/ques.jpg,stim_fb/posf.jpg,stim_fb/negf.jpg,stim_03/f.jpg,stim_03/e.jpg,1,3,f,1,56,116,48,j,0,0.899755542607,03,03,60.0154753347,PLT_learning_3,A,2014_Mrz_06_1346,P14,
stim_fb/ques.jpg,stim_fb/posf.jpg,stim_fb/negf.jpg,stim_03/f.jpg,stim_03/e.jpg,1,3,f,1,57,117,47,f,1,1.08299841731,03,03,60.0154753347,PLT_learning_3,A,2014_Mrz_06_1346,P14,
stim_fb/ques.jpg,stim_fb/posf.jpg,stim_fb/negf.jpg,stim_03/e.jpg,stim_03/f.jpg,2,3,j,1,58,118,57,j,1,0.799735160881,03,03,60.0154753347,PLT_learning_3,A,2014_Mrz_06_1346,P14,
stim_fb/ques.jpg,stim_fb/negf.jpg,stim_fb/posf.jpg,stim_03/c.jpg,stim_03/d.jpg,2,2,j,1,59,119,35,j,1,1.06634674647,03,03,60.0154753347,PLT_learning_3,A,2014_Mrz_06_1346,P14,
stim_fb/ques.jpg,stim_fb/negf.jpg,stim_fb/posf.jpg,stim_03/d.jpg,stim_03/c.jpg,1,2,f,2,0,120,24,f,1,0.916378657384,03,03,60.0154753347,PLT_learning_3,A,2014_Mrz_06_1346,P14,
stim_fb/ques.jpg,stim_fb/negf.jpg,stim_fb/posf.jpg,stim_03/e.jpg,stim_03/f.jpg,2,3,j,2,1,121,53,j,1,0.766475301406,03,03,60.0154753347,PLT_learning_3,A,2014_Mrz_06_1346,P14,
stim_fb/ques.jpg,stim_fb/negf.jpg,stim_fb/posf.jpg,stim_03/f.jpg,stim_03/e.jpg,1,3,f,2,2,122,45,f,1,0.966360003459,03,03,60.0154753347,PLT_learning_3,A,2014_Mrz_06_1346,P14,
stim_fb/ques.jpg,stim_fb/negf.jpg,stim_fb/posf.jpg,stim_03/f.jpg,stim_03/e.jpg,1,3,f,2,3,123,43,f,1,0.99966781728,03,03,60.0154753347,PLT_learning_3,A,2014_Mrz_06_1346,P14,
stim_fb/ques.jpg,stim_fb/negf.jpg,stim_fb/posf.jpg,stim_03/d.jpg,stim_03/c.jpg,1,2,f,2,4,124,22,j,0,0.849761932009,03,03,60.0154753347,PLT_learning_3,A,2014_Mrz_06_1346,P14,
stim_fb/ques.jpg,stim_fb/negf.jpg,stim_fb/posf.jpg,stim_03/f.jpg,stim_03/e.jpg,1,3,f,2,5,125,44,f,1,0.683100019172,03,03,60.0154753347,PLT_learning_3,A,2014_Mrz_06_1346,P14,
stim_fb/ques.jpg,stim_fb/posf.jpg,stim_fb/negf.jpg,stim_03/b.jpg,stim_03/a.jpg,1,1,f,2,6,126,9,f,1,1.23298597685,03,03,60.0154753347,PLT_learning_3,A,2014_Mrz_06_1346,P14,
stim_fb/ques.jpg,stim_fb/negf.jpg,stim_fb/posf.jpg,stim_03/c.jpg,stim_03/d.jpg,2,2,j,2,7,127,33,j,1,1.04969376736,03,03,60.0154753347,PLT_learning_3,A,2014_Mrz_06_1346,P14,
stim_fb/ques.jpg,stim_fb/posf.jpg,stim_fb/negf.jpg,stim_03/e.jpg,stim_03/f.jpg,2,3,j,2,8,128,56,j,1,1.16633625636,03,03,60.0154753347,PLT_learning_3,A,2014_Mrz_06_1346,P14,
stim_fb/ques.jpg,stim_fb/posf.jpg,stim_fb/negf.jpg,stim_03/d.jpg,stim_03/c.jpg,1,2,f,2,9,129,29,f,1,0.816415438923,03,03,60.0154753347,PLT_learning_3,A,2014_Mrz_06_1346,P14,
stim_fb/ques.jpg,stim_fb/negf.jpg,stim_fb/posf.jpg,stim_03/a.jpg,stim_03/b.jpg,2,1,j,2,10,130,14,j,1,1.0998602903,03,03,60.0154753347,PLT_learning_3,A,2014_Mrz_06_1346,P14,
stim_fb/ques.jpg,stim_fb/negf.jpg,stim_fb/posf.jpg,stim_03/a.jpg,stim_03/b.jpg,2,1,j,2,11,131,16,j,1,1.01638731593,03,03,60.0154753347,PLT_learning_3,A,2014_Mrz_06_1346,P14,
stim_fb/ques.jpg,stim_fb/negf.jpg,stim_fb/posf.jpg,stim_03/a.jpg,stim_03/b.jpg,2,1,j,2,12,132,10,j,1,1.03304135668,03,03,60.0154753347,PLT_learning_3,A,2014_Mrz_06_1346,P14,
stim_fb/ques.jpg,stim_fb/negf.jpg,stim_fb/posf.jpg,stim_03/e.jpg,stim_03/f.jpg,2,3,j,2,13,133,51,f,0,1.2829408751,03,03,60.0154753347,PLT_learning_3,A,2014_Mrz_06_1346,P14,
stim_fb/ques.jpg,stim_fb/negf.jpg,stim_fb/posf.jpg,stim_03/d.jpg,stim_03/c.jpg,1,2,f,2,14,134,25,f,1,1.24949609741,03,03,60.0154753347,PLT_learning_3,A,2014_Mrz_06_1346,P14,
stim_fb/ques.jpg,stim_fb/negf.jpg,stim_fb/posf.jpg,stim_03/a.jpg,stim_03/b.jpg,2,1,j,2,15,135,15,j,1,0.933071410474,03,03,60.0154753347,PLT_learning_3,A,2014_Mrz_06_1346,P14,
stim_fb/ques.jpg,stim_fb/posf.jpg,stim_fb/negf.jpg,stim_03/f.jpg,stim_03/e.jpg,1,3,f,2,16,136,47,f,1,1.21629857107,03,03,60.0154753347,PLT_learning_3,A,2014_Mrz_06_1346,P14,
stim_fb/ques.jpg,stim_fb/negf.jpg,stim_fb/posf.jpg,stim_03/d.jpg,stim_03/c.jpg,1,2,f,2,17,137,23,f,1,0.999729930865,03,03,60.0154753347,PLT_learning_3,A,2014_Mrz_06_1346,P14,
stim_fb/ques.jpg,stim_fb/negf.jpg,stim_fb/posf.jpg,stim_03/e.jpg,stim_03/f.jpg,2,3,j,2,18,138,52,j,1,1.08300925629,03,03,60.0154753347,PLT_learning_3,A,2014_Mrz_06_1346,P14,
stim_fb/ques.jpg,stim_fb/posf.jpg,stim_fb/negf.jpg,stim_03/c.jpg,stim_03/d.jpg,2,2,j,2,19,139,37,j,1,1.0996755014,03,03,60.0154753347,PLT_learning_3,A,2014_Mrz_06_1346,P14,
stim_fb/ques.jpg,stim_fb/negf.jpg,stim_fb/posf.jpg,stim_03/b.jpg,stim_03/a.jpg,1,1,f,2,20,140,3,f,1,0.849763968075,03,03,60.0154753347,PLT_learning_3,A,2014_Mrz_06_1346,P14,
stim_fb/ques.jpg,stim_fb/negf.jpg,stim_fb/posf.jpg,stim_03/e.jpg,stim_03/f.jpg,2,3,j,2,21,141,55,j,1,1.13303243347,03,03,60.0154753347,PLT_learning_3,A,2014_Mrz_06_1346,P14,
stim_fb/ques.jpg,stim_fb/posf.jpg,stim_fb/negf.jpg,stim_03/e.jpg,stim_03/f.jpg,2,3,j,2,22,142,57,j,1,0.999696364326,03,03,60.0154753347,PLT_learning_3,A,2014_Mrz_06_1346,P14,
stim_fb/ques.jpg,stim_fb/posf.jpg,stim_fb/negf.jpg,stim_03/c.jpg,stim_03/d.jpg,2,2,j,2,23,143,38,j,1,0.849763736499,03,03,60.0154753347,PLT_learning_3,A,2014_Mrz_06_1346,P14,
stim_fb/ques.jpg,stim_fb/negf.jpg,stim_fb/posf.jpg,stim_03/a.jpg,stim_03/b.jpg,2,1,j,2,24,144,11,j,1,0.883084972726,03,03,60.0154753347,PLT_learning_3,A,2014_Mrz_06_1346,P14,
stim_fb/ques.jpg,stim_fb/posf.jpg,stim_fb/negf.jpg,stim_03/a.jpg,stim_03/b.jpg,2,1,j,2,25,145,19,j,1,0.966364265065,03,03,60.0154753347,PLT_learning_3,A,2014_Mrz_06_1346,P14,
stim_fb/ques.jpg,stim_fb/posf.jpg,stim_fb/negf.jpg,stim_03/a.jpg,stim_03/b.jpg,2,1,j,2,26,146,18,j,1,1.39956066661,03,03,60.0154753347,PLT_learning_3,A,2014_Mrz_06_1346,P14,
stim_fb/ques.jpg,stim_fb/negf.jpg,stim_fb/posf.jpg,stim_03/b.jpg,stim_03/a.jpg,1,1,f,2,27,147,7,f,1,1.11634013451,03,03,60.0154753347,PLT_learning_3,A,2014_Mrz_06_1346,P14,
stim_fb/ques.jpg,stim_fb/negf.jpg,stim_fb/posf.jpg,stim_03/c.jpg,stim_03/d.jpg,2,2,j,2,28,148,34,j,1,0.949760202704,03,03,60.0154753347,PLT_learning_3,A,2014_Mrz_06_1346,P14,
stim_fb/ques.jpg,stim_fb/negf.jpg,stim_fb/posf.jpg,stim_03/c.jpg,stim_03/d.jpg,2,2,j,2,29,149,32,j,1,0.849716284403,03,03,60.0154753347,PLT_learning_3,A,2014_Mrz_06_1346,P14,
stim_fb/ques.jpg,stim_fb/negf.jpg,stim_fb/posf.jpg,stim_03/d.jpg,stim_03/c.jpg,1,2,f,2,30,150,21,f,1,0.999718093405,03,03,60.0154753347,PLT_learning_3,A,2014_Mrz_06_1346,P14,
stim_fb/ques.jpg,stim_fb/negf.jpg,stim_fb/posf.jpg,stim_03/b.jpg,stim_03/a.jpg,1,1,f,2,31,151,0,f,1,0.899735675162,03,03,60.0154753347,PLT_learning_3,A,2014_Mrz_06_1346,P14,
stim_fb/ques.jpg,stim_fb/posf.jpg,stim_fb/negf.jpg,stim_03/f.jpg,stim_03/e.jpg,1,3,f,2,32,152,46,j,0,1.09966343237,03,03,60.0154753347,PLT_learning_3,A,2014_Mrz_06_1346,P14,
stim_fb/ques.jpg,stim_fb/negf.jpg,stim_fb/posf.jpg,stim_03/f.jpg,stim_03/e.jpg,1,3,f,2,33,153,42,j,0,0.649821868175,03,03,60.0154753347,PLT_learning_3,A,2014_Mrz_06_1346,P14,
stim_fb/ques.jpg,stim_fb/negf.jpg,stim_fb/posf.jpg,stim_03/b.jpg,stim_03/a.jpg,1,1,f,2,34,154,5,f,1,0.88308615166,03,03,60.0154753347,PLT_learning_3,A,2014_Mrz_06_1346,P14,
stim_fb/ques.jpg,stim_fb/negf.jpg,stim_fb/posf.jpg,stim_03/e.jpg,stim_03/f.jpg,2,3,j,2,35,155,50,j,1,0.833059711356,03,03,60.0154753347,PLT_learning_3,A,2014_Mrz_06_1346,P14,
stim_fb/ques.jpg,stim_fb/negf.jpg,stim_fb/posf.jpg,stim_03/b.jpg,stim_03/a.jpg,1,1,f,2,36,156,6,f,1,0.96643038462,03,03,60.0154753347,PLT_learning_3,A,2014_Mrz_06_1346,P14,
stim_fb/ques.jpg,stim_fb/negf.jpg,stim_fb/posf.jpg,stim_03/f.jpg,stim_03/e.jpg,1,3,f,2,37,157,40,f,1,0.733211417917,03,03,60.0154753347,PLT_learning_3,A,2014_Mrz_06_1346,P14,
stim_fb/ques.jpg,stim_fb/posf.jpg,stim_fb/negf.jpg,stim_03/d.jpg,stim_03/c.jpg,1,2,f,2,38,158,27,j,0,0.666484928365,03,03,60.0154753347,PLT_learning_3,A,2014_Mrz_06_1346,P14,
stim_fb/ques.jpg,stim_fb/posf.jpg,stim_fb/negf.jpg,stim_03/e.jpg,stim_03/f.jpg,2,3,j,2,39,159,59,j,1,0.899780011503,03,03,60.0154753347,PLT_learning_3,A,2014_Mrz_06_1346,P14,
stim_fb/ques.jpg,stim_fb/posf.jpg,stim_fb/negf.jpg,stim_03/e.jpg,stim_03/f.jpg,2,3,j,2,40,160,58,f,0,0.949779038582,03,03,60.0154753347,PLT_learning_3,A,2014_Mrz_06_1346,P14,
stim_fb/ques.jpg,stim_fb/negf.jpg,stim_fb/posf.jpg,stim_03/e.jpg,stim_03/f.jpg,2,3,j,2,41,161,54,f,0,0.849754118562,03,03,60.0154753347,PLT_learning_3,A,2014_Mrz_06_1346,P14,
stim_fb/ques.jpg,stim_fb/negf.jpg,stim_fb/posf.jpg,stim_03/d.jpg,stim_03/c.jpg,1,2,f,2,42,162,20,f,1,1.11633306993,03,03,60.0154753347,PLT_learning_3,A,2014_Mrz_06_1346,P14,
stim_fb/ques.jpg,stim_fb/negf.jpg,stim_fb/posf.jpg,stim_03/d.jpg,stim_03/c.jpg,1,2,f,2,43,163,26,f,1,0.799746255494,03,03,60.0154753347,PLT_learning_3,A,2014_Mrz_06_1346,P14,
stim_fb/ques.jpg,stim_fb/posf.jpg,stim_fb/negf.jpg,stim_03/b.jpg,stim_03/a.jpg,1,1,f,2,44,164,8,f,1,1.13303593418,03,03,60.0154753347,PLT_learning_3,A,2014_Mrz_06_1346,P14,
stim_fb/ques.jpg,stim_fb/posf.jpg,stim_fb/negf.jpg,stim_03/f.jpg,stim_03/e.jpg,1,3,f,2,45,165,49,j,0,1.24961895918,03,03,60.0154753347,PLT_learning_3,A,2014_Mrz_06_1346,P14,
stim_fb/ques.jpg,stim_fb/posf.jpg,stim_fb/negf.jpg,stim_03/d.jpg,stim_03/c.jpg,1,2,f,2,46,166,28,f,1,1.23303117634,03,03,60.0154753347,PLT_learning_3,A,2014_Mrz_06_1346,P14,
stim_fb/ques.jpg,stim_fb/posf.jpg,stim_fb/negf.jpg,stim_03/f.jpg,stim_03/e.jpg,1,3,f,2,47,167,48,f,1,0.933083608832,03,03,60.0154753347,PLT_learning_3,A,2014_Mrz_06_1346,P14,
stim_fb/ques.jpg,stim_fb/negf.jpg,stim_fb/posf.jpg,stim_03/a.jpg,stim_03/b.jpg,2,1,j,2,48,168,12,j,1,0.949731505284,03,03,60.0154753347,PLT_learning_3,A,2014_Mrz_06_1346,P14,
stim_fb/ques.jpg,stim_fb/negf.jpg,stim_fb/posf.jpg,stim_03/b.jpg,stim_03/a.jpg,1,1,f,2,49,169,2,f,1,0.849807627733,03,03,60.0154753347,PLT_learning_3,A,2014_Mrz_06_1346,P14,
stim_fb/ques.jpg,stim_fb/negf.jpg,stim_fb/posf.jpg,stim_03/c.jpg,stim_03/d.jpg,2,2,j,2,50,170,30,j,1,0.966424926035,03,03,60.0154753347,PLT_learning_3,A,2014_Mrz_06_1346,P14,
stim_fb/ques.jpg,stim_fb/negf.jpg,stim_fb/posf.jpg,stim_03/c.jpg,stim_03/d.jpg,2,2,j,2,51,171,31,j,1,0.916393604583,03,03,60.0154753347,PLT_learning_3,A,2014_Mrz_06_1346,P14,
stim_fb/ques.jpg,stim_fb/negf.jpg,stim_fb/posf.jpg,stim_03/a.jpg,stim_03/b.jpg,2,1,j,2,52,172,17,j,1,0.733117509201,03,03,60.0154753347,PLT_learning_3,A,2014_Mrz_06_1346,P14,
stim_fb/ques.jpg,stim_fb/negf.jpg,stim_fb/posf.jpg,stim_03/a.jpg,stim_03/b.jpg,2,1,j,2,53,173,13,j,1,0.766425882414,03,03,60.0154753347,PLT_learning_3,A,2014_Mrz_06_1346,P14,
stim_fb/ques.jpg,stim_fb/negf.jpg,stim_fb/posf.jpg,stim_03/b.jpg,stim_03/a.jpg,1,1,f,2,54,174,4,f,1,0.999693221505,03,03,60.0154753347,PLT_learning_3,A,2014_Mrz_06_1346,P14,
stim_fb/ques.jpg,stim_fb/negf.jpg,stim_fb/posf.jpg,stim_03/c.jpg,stim_03/d.jpg,2,2,j,2,55,175,36,j,1,1.14973825107,03,03,60.0154753347,PLT_learning_3,A,2014_Mrz_06_1346,P14,
stim_fb/ques.jpg,stim_fb/posf.jpg,stim_fb/negf.jpg,stim_03/c.jpg,stim_03/d.jpg,2,2,j,2,56,176,39,j,1,0.849703550712,03,03,60.0154753347,PLT_learning_3,A,2014_Mrz_06_1346,P14,
stim_fb/ques.jpg,stim_fb/negf.jpg,stim_fb/posf.jpg,stim_03/b.jpg,stim_03/a.jpg,1,1,f,2,57,177,1,f,1,0.83308280884,03,03,60.0154753347,PLT_learning_3,A,2014_Mrz_06_1346,P14,
stim_fb/ques.jpg,stim_fb/negf.jpg,stim_fb/posf.jpg,stim_03/f.jpg,stim_03/e.jpg,1,3,f,2,58,178,41,f,1,0.983031042507,03,03,60.0154753347,PLT_learning_3,A,2014_Mrz_06_1346,P14,
stim_fb/ques.jpg,stim_fb/negf.jpg,stim_fb/posf.jpg,stim_03/c.jpg,stim_03/d.jpg,2,2,j,2,59,179,35,j,1,0.933054400139,03,03,60.0154753347,PLT_learning_3,A,2014_Mrz_06_1346,P14,
stim_fb/ques.jpg,stim_fb/negf.jpg,stim_fb/posf.jpg,stim_03/b.jpg,stim_03/a.jpg,1,1,f,3,0,180,6,j,0,0.933099187603,03,03,60.0154753347,PLT_learning_3,A,2014_Mrz_06_1346,P14,
stim_fb/ques.jpg,stim_fb/posf.jpg,stim_fb/negf.jpg,stim_03/e.jpg,stim_03/f.jpg,2,3,j,3,1,181,56,j,1,0.733135996211,03,03,60.0154753347,PLT_learning_3,A,2014_Mrz_06_1346,P14,
stim_fb/ques.jpg,stim_fb/negf.jpg,stim_fb/posf.jpg,stim_03/e.jpg,stim_03/f.jpg,2,3,j,3,2,182,50,f,0,0.683205443547,03,03,60.0154753347,PLT_learning_3,A,2014_Mrz_06_1346,P14,
stim_fb/ques.jpg,stim_fb/posf.jpg,stim_fb/negf.jpg,stim_03/d.jpg,stim_03/c.jpg,1,2,f,3,3,183,27,f,1,0.883047496457,03,03,60.0154753347,PLT_learning_3,A,2014_Mrz_06_1346,P14,
stim_fb/ques.jpg,stim_fb/negf.jpg,stim_fb/posf.jpg,stim_03/e.jpg,stim_03/f.jpg,2,3,j,3,4,184,54,j,1,0.649840794276,03,03,60.0154753347,PLT_learning_3,A,2014_Mrz_06_1346,P14,
stim_fb/ques.jpg,stim_fb/posf.jpg,stim_fb/negf.jpg,stim_03/e.jpg,stim_03/f.jpg,2,3,j,3,5,185,58,j,1,0.63316996876,03,03,60.0154753347,PLT_learning_3,A,2014_Mrz_06_1346,P14,
stim_fb/ques.jpg,stim_fb/posf.jpg,stim_fb/negf.jpg,stim_03/e.jpg,stim_03/f.jpg,2,3,j,3,6,186,57,j,1,0.649856679812,03,03,60.0154753347,PLT_learning_3,A,2014_Mrz_06_1346,P14,
stim_fb/ques.jpg,stim_fb/posf.jpg,stim_fb/negf.jpg,stim_03/f.jpg,stim_03/e.jpg,1,3,f,3,7,187,46,f,1,0.816408067578,03,03,60.0154753347,PLT_learning_3,A,2014_Mrz_06_1346,P14,
stim_fb/ques.jpg,stim_fb/posf.jpg,stim_fb/negf.jpg,stim_03/f.jpg,stim_03/e.jpg,1,3,f,3,8,188,47,j,0,0.68315225317,03,03,60.0154753347,PLT_learning_3,A,2014_Mrz_06_1346,P14,
stim_fb/ques.jpg,stim_fb/negf.jpg,stim_fb/posf.jpg,stim_03/b.jpg,stim_03/a.jpg,1,1,f,3,9,189,3,f,1,0.866439076251,03,03,60.0154753347,PLT_learning_3,A,2014_Mrz_06_1346,P14,
stim_fb/ques.jpg,stim_fb/posf.jpg,stim_fb/negf.jpg,stim_03/b.jpg,stim_03/a.jpg,1,1,f,3,10,190,8,f,1,0.666484483259,03,03,60.0154753347,PLT_learning_3,A,2014_Mrz_06_1346,P14,
stim_fb/ques.jpg,stim_fb/negf.jpg,stim_fb/posf.jpg,stim_03/c.jpg,stim_03/d.jpg,2,2,j,3,11,191,36,j,1,1.01639487374,03,03,60.0154753347,PLT_learning_3,A,2014_Mrz_06_1346,P14,
stim_fb/ques.jpg,stim_fb/negf.jpg,stim_fb/posf.jpg,stim_03/b.jpg,stim_03/a.jpg,1,1,f,3,12,192,4,j,0,0.69985429638,03,03,60.0154753347,PLT_learning_3,A,2014_Mrz_06_1346,P14,
stim_fb/ques.jpg,stim_fb/posf.jpg,stim_fb/negf.jpg,stim_03/c.jpg,stim_03/d.jpg,2,2,j,3,13,193,39,j,1,0.799787629463,03,03,60.0154753347,PLT_learning_3,A,2014_Mrz_06_1346,P14,
stim_fb/ques.jpg,stim_fb/negf.jpg,stim_fb/posf.jpg,stim_03/c.jpg,stim_03/d.jpg,2,2,j,3,14,194,35,j,1,0.633158729788,03,03,60.0154753347,PLT_learning_3,A,2014_Mrz_06_1346,P14,
stim_fb/ques.jpg,stim_fb/negf.jpg,stim_fb/posf.jpg,stim_03/f.jpg,stim_03/e.jpg,1,3,f,3,15,195,43,j,0,1.11634916599,03,03,60.0154753347,PLT_learning_3,A,2014_Mrz_06_1346,P14,
stim_fb/ques.jpg,stim_fb/posf.jpg,stim_fb/negf.jpg,stim_03/f.jpg,stim_03/e.jpg,1,3,f,3,16,196,49,j,0,0.949696468086,03,03,60.0154753347,PLT_learning_3,A,2014_Mrz_06_1346,P14,
stim_fb/ques.jpg,stim_fb/negf.jpg,stim_fb/posf.jpg,stim_03/c.jpg,stim_03/d.jpg,2,2,j,3,17,197,31,j,1,0.883072924742,03,03,60.0154753347,PLT_learning_3,A,2014_Mrz_06_1346,P14,
stim_fb/ques.jpg,stim_fb/negf.jpg,stim_fb/posf.jpg,stim_03/a.jpg,stim_03/b.jpg,2,1,j,3,18,198,17,j,1,0.949705186784,03,03,60.0154753347,PLT_learning_3,A,2014_Mrz_06_1346,P14,
stim_fb/ques.jpg,stim_fb/posf.jpg,stim_fb/negf.jpg,stim_03/e.jpg,stim_03/f.jpg,2,3,j,3,19,199,59,f,0,0.966385275354,03,03,60.0154753347,PLT_learning_3,A,2014_Mrz_06_1346,P14,
stim_fb/ques.jpg,stim_fb/negf.jpg,stim_fb/posf.jpg,stim_03/c.jpg,stim_03/d.jpg,2,2,j,3,20,200,30,j,1,0.666500365785,03,03,60.0154753347,PLT_learning_3,A,2014_Mrz_06_1346,P14,
stim_fb/ques.jpg,stim_fb/negf.jpg,stim_fb/posf.jpg,stim_03/d.jpg,stim_03/c.jpg,1,2,f,3,21,201,26,f,1,0.749840487513,03,03,60.0154753347,PLT_learning_3,A,2014_Mrz_06_1346,P14,
stim_fb/ques.jpg,stim_fb/negf.jpg,stim_fb/posf.jpg,stim_03/a.jpg,stim_03/b.jpg,2,1,j,3,22,202,13,j,1,0.783135624786,03,03,60.0154753347,PLT_learning_3,A,2014_Mrz_06_1346,P14,
stim_fb/ques.jpg,stim_fb/negf.jpg,stim_fb/posf.jpg,stim_03/e.jpg,stim_03/f.jpg,2,3,j,3,23,203,51,j,1,0.766454784344,03,03,60.0154753347,PLT_learning_3,A,2014_Mrz_06_1346,P14,
stim_fb/ques.jpg,stim_fb/negf.jpg,stim_fb/posf.jpg,stim_03/e.jpg,stim_03/f.jpg,2,3,j,3,24,204,52,f,0,0.916409502149,03,03,60.0154753347,PLT_learning_3,A,2014_Mrz_06_1346,P14,
stim_fb/ques.jpg,stim_fb/negf.jpg,stim_fb/posf.jpg,stim_03/f.jpg,stim_03/e.jpg,1,3,f,3,25,205,44,j,0,0.833149325384,03,03,60.0154753347,PLT_learning_3,A,2014_Mrz_06_1346,P14,
stim_fb/ques.jpg,stim_fb/negf.jpg,stim_fb/posf.jpg,stim_03/d.jpg,stim_03/c.jpg,1,2,f,3,26,206,22,f,1,1.16632905945,03,03,60.0154753347,PLT_learning_3,A,2014_Mrz_06_1346,P14,
stim_fb/ques.jpg,stim_fb/negf.jpg,stim_fb/posf.jpg,stim_03/c.jpg,stim_03/d.jpg,2,2,j,3,27,207,34,j,1,0.716446542332,03,03,60.0154753347,PLT_learning_3,A,2014_Mrz_06_1346,P14,
stim_fb/ques.jpg,stim_fb/negf.jpg,stim_fb/posf.jpg,stim_03/a.jpg,stim_03/b.jpg,2,1,j,3,28,208,10,j,1,0.866425638808,03,03,60.0154753347,PLT_learning_3,A,2014_Mrz_06_1346,P14,
stim_fb/ques.jpg,stim_fb/negf.jpg,stim_fb/posf.jpg,stim_03/c.jpg,stim_03/d.jpg,2,2,j,3,29,209,32,j,1,0.899755966661,03,03,60.0154753347,PLT_learning_3,A,2014_Mrz_06_1346,P14,
stim_fb/ques.jpg,stim_fb/negf.jpg,stim_fb/posf.jpg,stim_03/d.jpg,stim_03/c.jpg,1,2,f,3,30,210,20,f,1,0.816484024616,03,03,60.0154753347,PLT_learning_3,A,2014_Mrz_06_1346,P14,
stim_fb/ques.jpg,stim_fb/posf.jpg,stim_fb/negf.jpg,stim_03/f.jpg,stim_03/e.jpg,1,3,f,3,31,211,48,j,0,0.999728541407,03,03,60.0154753347,PLT_learning_3,A,2014_Mrz_06_1346,P14,
stim_fb/ques.jpg,stim_fb/negf.jpg,stim_fb/posf.jpg,stim_03/a.jpg,stim_03/b.jpg,2,1,j,3,32,212,15,j,1,0.933078369792,03,03,60.0154753347,PLT_learning_3,A,2014_Mrz_06_1346,P14,
stim_fb/ques.jpg,stim_fb/posf.jpg,stim_fb/negf.jpg,stim_03/c.jpg,stim_03/d.jpg,2,2,j,3,33,213,38,j,1,0.849769977031,03,03,60.0154753347,PLT_learning_3,A,2014_Mrz_06_1346,P14,
stim_fb/ques.jpg,stim_fb/posf.jpg,stim_fb/negf.jpg,stim_03/d.jpg,stim_03/c.jpg,1,2,f,3,34,214,28,f,1,0.666489418541,03,03,60.0154753347,PLT_learning_3,A,2014_Mrz_06_1346,P14,
stim_fb/ques.jpg,stim_fb/negf.jpg,stim_fb/posf.jpg,stim_03/a.jpg,stim_03/b.jpg,2,1,j,3,35,215,11,j,1,0.649814761488,03,03,60.0154753347,PLT_learning_3,A,2014_Mrz_06_1346,P14,
stim_fb/ques.jpg,stim_fb/negf.jpg,stim_fb/posf.jpg,stim_03/f.jpg,stim_03/e.jpg,1,3,f,3,36,216,40,j,0,1.09967703522,03,03,60.0154753347,PLT_learning_3,A,2014_Mrz_06_1346,P14,
stim_fb/ques.jpg,stim_fb/posf.jpg,stim_fb/negf.jpg,stim_03/b.jpg,stim_03/a.jpg,1,1,f,3,37,217,9,f,1,1.06631287316,03,03,60.0154753347,PLT_learning_3,A,2014_Mrz_06_1346,P14,
stim_fb/ques.jpg,stim_fb/negf.jpg,stim_fb/posf.jpg,stim_03/b.jpg,stim_03/a.jpg,1,1,f,3,38,218,7,j,0,0.799700141728,03,03,60.0154753347,PLT_learning_3,A,2014_Mrz_06_1346,P14,
stim_fb/ques.jpg,stim_fb/negf.jpg,stim_fb/posf.jpg,stim_03/b.jpg,stim_03/a.jpg,1,1,f,3,39,219,1,f,1,1.03304832803,03,03,60.0154753347,PLT_learning_3,A,2014_Mrz_06_1346,P14,
stim_fb/ques.jpg,stim_fb/posf.jpg,stim_fb/negf.jpg,stim_03/c.jpg,stim_03/d.jpg,2,2,j,3,40,220,37,j,1,0.949747565253,03,03,60.0154753347,PLT_learning_3,A,2014_Mrz_06_1346,P14,
stim_fb/ques.jpg,stim_fb/negf.jpg,stim_fb/posf.jpg,stim_03/d.jpg,stim_03/c.jpg,1,2,f,3,41,221,24,f,1,0.983052052797,03,03,60.0154753347,PLT_learning_3,A,2014_Mrz_06_1346,P14,
stim_fb/ques.jpg,stim_fb/negf.jpg,stim_fb/posf.jpg,stim_03/a.jpg,stim_03/b.jpg,2,1,j,3,42,222,14,j,1,0.916409619441,03,03,60.0154753347,PLT_learning_3,A,2014_Mrz_06_1346,P14,
stim_fb/ques.jpg,stim_fb/negf.jpg,stim_fb/posf.jpg,stim_03/a.jpg,stim_03/b.jpg,2,1,j,3,43,223,16,j,1,0.733174031872,03,03,60.0154753347,PLT_learning_3,A,2014_Mrz_06_1346,P14,
stim_fb/ques.jpg,stim_fb/negf.jpg,stim_fb/posf.jpg,stim_03/b.jpg,stim_03/a.jpg,1,1,f,3,44,224,2,j,0,0.949727526381,03,03,60.0154753347,PLT_learning_3,A,2014_Mrz_06_1346,P14,
stim_fb/ques.jpg,stim_fb/negf.jpg,stim_fb/posf.jpg,stim_03/d.jpg,stim_03/c.jpg,1,2,f,3,45,225,21,f,1,0.833074201419,03,03,60.0154753347,PLT_learning_3,A,2014_Mrz_06_1346,P14,
stim_fb/ques.jpg,stim_fb/negf.jpg,stim_fb/posf.jpg,stim_03/e.jpg,stim_03/f.jpg,2,3,j,3,46,226,55,j,1,1.09969322451,03,03,60.0154753347,PLT_learning_3,A,2014_Mrz_06_1346,P14,
stim_fb/ques.jpg,stim_fb/negf.jpg,stim_fb/posf.jpg,stim_03/a.jpg,stim_03/b.jpg,2,1,j,3,47,227,12,j,1,0.84974961335,03,03,60.0154753347,PLT_learning_3,A,2014_Mrz_06_1346,P14,
stim_fb/ques.jpg,stim_fb/negf.jpg,stim_fb/posf.jpg,stim_03/f.jpg,stim_03/e.jpg,1,3,f,3,48,228,42,f,1,1.09968350733,03,03,60.0154753347,PLT_learning_3,A,2014_Mrz_06_1346,P14,
stim_fb/ques.jpg,stim_fb/negf.jpg,stim_fb/posf.jpg,stim_03/b.jpg,stim_03/a.jpg,1,1,f,3,49,229,0,f,1,0.83306318801,03,03,60.0154753347,PLT_learning_3,A,2014_Mrz_06_1346,P14,
stim_fb/ques.jpg,stim_fb/negf.jpg,stim_fb/posf.jpg,stim_03/c.jpg,stim_03/d.jpg,2,2,j,3,50,230,33,j,1,1.09968203667,03,03,60.0154753347,PLT_learning_3,A,2014_Mrz_06_1346,P14,
stim_fb/ques.jpg,stim_fb/posf.jpg,stim_fb/negf.jpg,stim_03/d.jpg,stim_03/c.jpg,1,2,f,3,51,231,29,f,1,1.0663384819,03,03,60.0154753347,PLT_learning_3,A,2014_Mrz_06_1346,P14,
stim_fb/ques.jpg,stim_fb/posf.jpg,stim_fb/negf.jpg,stim_03/a.jpg,stim_03/b.jpg,2,1,j,3,52,232,19,j,1,0.783107498788,03,03,60.0154753347,PLT_learning_3,A,2014_Mrz_06_1346,P14,
stim_fb/ques.jpg,stim_fb/negf.jpg,stim_fb/posf.jpg,stim_03/f.jpg,stim_03/e.jpg,1,3,f,3,53,233,41,j,0,1.13298908358,03,03,60.0154753347,PLT_learning_3,A,2014_Mrz_06_1346,P14,
stim_fb/ques.jpg,stim_fb/negf.jpg,stim_fb/posf.jpg,stim_03/f.jpg,stim_03/e.jpg,1,3,f,3,54,234,45,j,0,1.29961564945,03,03,60.0154753347,PLT_learning_3,A,2014_Mrz_06_1346,P14,
stim_fb/ques.jpg,stim_fb/negf.jpg,stim_fb/posf.jpg,stim_03/d.jpg,stim_03/c.jpg,1,2,f,3,55,235,25,f,1,1.08300493152,03,03,60.0154753347,PLT_learning_3,A,2014_Mrz_06_1346,P14,
stim_fb/ques.jpg,stim_fb/negf.jpg,stim_fb/posf.jpg,stim_03/e.jpg,stim_03/f.jpg,2,3,j,3,56,236,53,f,0,1.04970230561,03,03,60.0154753347,PLT_learning_3,A,2014_Mrz_06_1346,P14,
stim_fb/ques.jpg,stim_fb/negf.jpg,stim_fb/posf.jpg,stim_03/d.jpg,stim_03/c.jpg,1,2,f,3,57,237,23,f,1,0.733125497081,03,03,60.0154753347,PLT_learning_3,A,2014_Mrz_06_1346,P14,
stim_fb/ques.jpg,stim_fb/negf.jpg,stim_fb/posf.jpg,stim_03/b.jpg,stim_03/a.jpg,1,1,f,3,58,238,5,f,1,0.916356735826,03,03,60.0154753347,PLT_learning_3,A,2014_Mrz_06_1346,P14,
stim_fb/ques.jpg,stim_fb/posf.jpg,stim_fb/negf.jpg,stim_03/a.jpg,stim_03/b.jpg,2,1,j,3,59,239,18,j,1,0.833102745458,03,03,60.0154753347,PLT_learning_3,A,2014_Mrz_06_1346,P14,
stim_fb/ques.jpg,stim_fb/negf.jpg,stim_fb/posf.jpg,stim_03/f.jpg,stim_03/e.jpg,1,3,f,4,0,240,42,j,0,1.06636009068,03,03,60.0154753347,PLT_learning_3,A,2014_Mrz_06_1346,P14,
stim_fb/ques.jpg,stim_fb/negf.jpg,stim_fb/posf.jpg,stim_03/e.jpg,stim_03/f.jpg,2,3,j,4,1,241,54,j,1,0.816445519787,03,03,60.0154753347,PLT_learning_3,A,2014_Mrz_06_1346,P14,
stim_fb/ques.jpg,stim_fb/negf.jpg,stim_fb/posf.jpg,stim_03/b.jpg,stim_03/a.jpg,1,1,f,4,2,242,6,f,1,0.916428271862,03,03,60.0154753347,PLT_learning_3,A,2014_Mrz_06_1346,P14,
stim_fb/ques.jpg,stim_fb/posf.jpg,stim_fb/negf.jpg,stim_03/d.jpg,stim_03/c.jpg,1,2,f,4,3,243,28,f,1,0.833119852032,03,03,60.0154753347,PLT_learning_3,A,2014_Mrz_06_1346,P14,
stim_fb/ques.jpg,stim_fb/negf.jpg,stim_fb/posf.jpg,stim_03/f.jpg,stim_03/e.jpg,1,3,f,4,4,244,43,f,1,1.16633620523,03,03,60.0154753347,PLT_learning_3,A,2014_Mrz_06_1346,P14,
stim_fb/ques.jpg,stim_fb/negf.jpg,stim_fb/posf.jpg,stim_03/a.jpg,stim_03/b.jpg,2,1,j,4,5,245,15,j,1,0.983024432056,03,03,60.0154753347,PLT_learning_3,A,2014_Mrz_06_1346,P14,
stim_fb/ques.jpg,stim_fb/negf.jpg,stim_fb/posf.jpg,stim_03/b.jpg,stim_03/a.jpg,1,1,f,4,6,246,0,f,1,0.783159053093,03,03,60.0154753347,PLT_learning_3,A,2014_Mrz_06_1346,P14,
stim_fb/ques.jpg,stim_fb/negf.jpg,stim_fb/posf.jpg,stim_03/d.jpg,stim_03/c.jpg,1,2,f,4,7,247,23,f,1,0.916371487539,03,03,60.0154753347,PLT_learning_3,A,2014_Mrz_06_1346,P14,
stim_fb/ques.jpg,stim_fb/posf.jpg,stim_fb/negf.jpg,stim_03/c.jpg,stim_03/d.jpg,2,2,j,4,8,248,39,j,1,0.766451545283,03,03,60.0154753347,PLT_learning_3,A,2014_Mrz_06_1346,P14,
stim_fb/ques.jpg,stim_fb/negf.jpg,stim_fb/posf.jpg,stim_03/e.jpg,stim_03/f.jpg,2,3,j,4,9,249,55,j,1,0.899772059714,03,03,60.0154753347,PLT_learning_3,A,2014_Mrz_06_1346,P14,
stim_fb/ques.jpg,stim_fb/negf.jpg,stim_fb/posf.jpg,stim_03/f.jpg,stim_03/e.jpg,1,3,f,4,10,250,41,j,0,0.949772190539,03,03,60.0154753347,PLT_learning_3,A,2014_Mrz_06_1346,P14,
stim_fb/ques.jpg,stim_fb/negf.jpg,stim_fb/posf.jpg,stim_03/b.jpg,stim_03/a.jpg,1,1,f,4,11,251,4,j,0,0.816471311978,03,03,60.0154753347,PLT_learning_3,A,2014_Mrz_06_1346,P14,
stim_fb/ques.jpg,stim_fb/negf.jpg,stim_fb/posf.jpg,stim_03/c.jpg,stim_03/d.jpg,2,2,j,4,12,252,33,j,1,0.933070706722,03,03,60.0154753347,PLT_learning_3,A,2014_Mrz_06_1346,P14,
stim_fb/ques.jpg,stim_fb/negf.jpg,stim_fb/posf.jpg,stim_03/a.jpg,stim_03/b.jpg,2,1,j,4,13,253,11,j,1,1.01638370394,03,03,60.0154753347,PLT_learning_3,A,2014_Mrz_06_1346,P14,
stim_fb/ques.jpg,stim_fb/negf.jpg,stim_fb/posf.jpg,stim_03/f.jpg,stim_03/e.jpg,1,3,f,4,14,254,44,f,1,1.11635444112,03,03,60.0154753347,PLT_learning_3,A,2014_Mrz_06_1346,P14,
stim_fb/ques.jpg,stim_fb/negf.jpg,stim_fb/posf.jpg,stim_03/b.jpg,stim_03/a.jpg,1,1,f,4,15,255,3,f,1,0.949727042176,03,03,60.0154753347,PLT_learning_3,A,2014_Mrz_06_1346,P14,
stim_fb/ques.jpg,stim_fb/negf.jpg,stim_fb/posf.jpg,stim_03/c.jpg,stim_03/d.jpg,2,2,j,4,16,256,34,j,1,1.18298935576,03,03,60.0154753347,PLT_learning_3,A,2014_Mrz_06_1346,P14,
stim_fb/ques.jpg,stim_fb/posf.jpg,stim_fb/negf.jpg,stim_03/a.jpg,stim_03/b.jpg,2,1,j,4,17,257,19,j,1,0.716445053627,03,03,60.0154753347,PLT_learning_3,A,2014_Mrz_06_1346,P14,
stim_fb/ques.jpg,stim_fb/negf.jpg,stim_fb/posf.jpg,stim_03/d.jpg,stim_03/c.jpg,1,2,f,4,18,258,26,j,0,0.883085288511,03,03,60.0154753347,PLT_learning_3,A,2014_Mrz_06_1346,P14,
stim_fb/ques.jpg,stim_fb/negf.jpg,stim_fb/posf.jpg,stim_03/f.jpg,stim_03/e.jpg,1,3,f,4,19,259,40,f,1,0.833107199543,03,03,60.0154753347,PLT_learning_3,A,2014_Mrz_06_1346,P14,
stim_fb/ques.jpg,stim_fb/posf.jpg,stim_fb/negf.jpg,stim_03/a.jpg,stim_03/b.jpg,2,1,j,4,20,260,18,j,1,0.699846263388,03,03,60.0154753347,PLT_learning_3,A,2014_Mrz_06_1346,P14,
stim_fb/ques.jpg,stim_fb/posf.jpg,stim_fb/negf.jpg,stim_03/b.jpg,stim_03/a.jpg,1,1,f,4,21,261,8,f,1,0.966389200122,03,03,60.0154753347,PLT_learning_3,A,2014_Mrz_06_1346,P14,
stim_fb/ques.jpg,stim_fb/posf.jpg,stim_fb/negf.jpg,stim_03/f.jpg,stim_03/e.jpg,1,3,f,4,22,262,46,j,0,0.949737950325,03,03,60.0154753347,PLT_learning_3,A,2014_Mrz_06_1346,P14,
stim_fb/ques.jpg,stim_fb/posf.jpg,stim_fb/negf.jpg,stim_03/e.jpg,stim_03/f.jpg,2,3,j,4,23,263,59,f,0,0.883074236005,03,03,60.0154753347,PLT_learning_3,A,2014_Mrz_06_1346,P14,
stim_fb/ques.jpg,stim_fb/negf.jpg,stim_fb/posf.jpg,stim_03/e.jpg,stim_03/f.jpg,2,3,j,4,24,264,51,f,0,0.633180624279,03,03,60.0154753347,PLT_learning_3,A,2014_Mrz_06_1346,P14,
stim_fb/ques.jpg,stim_fb/posf.jpg,stim_fb/negf.jpg,stim_03/c.jpg,stim_03/d.jpg,2,2,j,4,25,265,37,j,1,0.883100268794,03,03,60.0154753347,PLT_learning_3,A,2014_Mrz_06_1346,P14,
stim_fb/ques.jpg,stim_fb/negf.jpg,stim_fb/posf.jpg,stim_03/d.jpg,stim_03/c.jpg,1,2,f,4,26,266,20,f,1,0.716471351076,03,03,60.0154753347,PLT_learning_3,A,2014_Mrz_06_1346,P14,
stim_fb/ques.jpg,stim_fb/posf.jpg,stim_fb/negf.jpg,stim_03/d.jpg,stim_03/c.jpg,1,2,f,4,27,267,29,f,1,0.833053118949,03,03,60.0154753347,PLT_learning_3,A,2014_Mrz_06_1346,P14,
stim_fb/ques.jpg,stim_fb/posf.jpg,stim_fb/negf.jpg,stim_03/f.jpg,stim_03/e.jpg,1,3,f,4,28,268,47,f,1,1.16632993462,03,03,60.0154753347,PLT_learning_3,A,2014_Mrz_06_1346,P14,
stim_fb/ques.jpg,stim_fb/negf.jpg,stim_fb/posf.jpg,stim_03/e.jpg,stim_03/f.jpg,2,3,j,4,29,269,50,j,1,1.16634879155,03,03,60.0154753347,PLT_learning_3,A,2014_Mrz_06_1346,P14,
stim_fb/ques.jpg,stim_fb/posf.jpg,stim_fb/negf.jpg,stim_03/c.jpg,stim_03/d.jpg,2,2,j,4,30,270,38,j,1,0.816427399691,03,03,60.0154753347,PLT_learning_3,A,2014_Mrz_06_1346,P14,
stim_fb/ques.jpg,stim_fb/posf.jpg,stim_fb/negf.jpg,stim_03/b.jpg,stim_03/a.jpg,1,1,f,4,31,271,9,f,1,1.2163105168,03,03,60.0154753347,PLT_learning_3,A,2014_Mrz_06_1346,P14,
stim_fb/ques.jpg,stim_fb/posf.jpg,stim_fb/negf.jpg,stim_03/f.jpg,stim_03/e.jpg,1,3,f,4,32,272,49,f,1,1.54947440142,03,03,60.0154753347,PLT_learning_3,A,2014_Mrz_06_1346,P14,
stim_fb/ques.jpg,stim_fb/negf.jpg,stim_fb/posf.jpg,stim_03/a.jpg,stim_03/b.jpg,2,1,j,4,33,273,14,j,1,0.883087712545,03,03,60.0154753347,PLT_learning_3,A,2014_Mrz_06_1346,P14,
stim_fb/ques.jpg,stim_fb/negf.jpg,stim_fb/posf.jpg,stim_03/c.jpg,stim_03/d.jpg,2,2,j,4,34,274,32,j,1,0.949725550464,03,03,60.0154753347,PLT_learning_3,A,2014_Mrz_06_1346,P14,
stim_fb/ques.jpg,stim_fb/negf.jpg,stim_fb/posf.jpg,stim_03/d.jpg,stim_03/c.jpg,1,2,f,4,35,275,25,j,0,1.14962423431,03,03,60.0154753347,PLT_learning_3,A,2014_Mrz_06_1346,P14,
stim_fb/ques.jpg,stim_fb/negf.jpg,stim_fb/posf.jpg,stim_03/d.jpg,stim_03/c.jpg,1,2,f,4,36,276,21,f,1,1.46620819164,03,03,60.0154753347,PLT_learning_3,A,2014_Mrz_06_1346,P14,
stim_fb/ques.jpg,stim_fb/negf.jpg,stim_fb/posf.jpg,stim_03/a.jpg,stim_03/b.jpg,2,1,j,4,37,277,13,j,1,0.799757548599,03,03,60.0154753347,PLT_learning_3,A,2014_Mrz_06_1346,P14,
stim_fb/ques.jpg,stim_fb/posf.jpg,stim_fb/negf.jpg,stim_03/e.jpg,stim_03/f.jpg,2,3,j,4,38,278,57,j,1,1.08303781536,03,03,60.0154753347,PLT_learning_3,A,2014_Mrz_06_1346,P14,
stim_fb/ques.jpg,stim_fb/negf.jpg,stim_fb/posf.jpg,stim_03/e.jpg,stim_03/f.jpg,2,3,j,4,39,279,52,f,0,1.1330598888,03,03,60.0154753347,PLT_learning_3,A,2014_Mrz_06_1346,P14,
stim_fb/ques.jpg,stim_fb/negf.jpg,stim_fb/posf.jpg,stim_03/b.jpg,stim_03/a.jpg,1,1,f,4,40,280,7,j,0,1.04971678966,03,03,60.0154753347,PLT_learning_3,A,2014_Mrz_06_1346,P14,
stim_fb/ques.jpg,stim_fb/negf.jpg,stim_fb/posf.jpg,stim_03/c.jpg,stim_03/d.jpg,2,2,j,4,41,281,31,j,1,0.849710152141,03,03,60.0154753347,PLT_learning_3,A,2014_Mrz_06_1346,P14,
stim_fb/ques.jpg,stim_fb/negf.jpg,stim_fb/posf.jpg,stim_03/a.jpg,stim_03/b.jpg,2,1,j,4,42,282,17,j,1,0.94973790822,03,03,60.0154753347,PLT_learning_3,A,2014_Mrz_06_1346,P14,
stim_fb/ques.jpg,stim_fb/negf.jpg,stim_fb/posf.jpg,stim_03/f.jpg,stim_03/e.jpg,1,3,f,4,43,283,45,j,0,1.38294663143,03,03,60.0154753347,PLT_learning_3,A,2014_Mrz_06_1346,P14,
stim_fb/ques.jpg,stim_fb/negf.jpg,stim_fb/posf.jpg,stim_03/c.jpg,stim_03/d.jpg,2,2,j,4,44,284,36,j,1,0.983083165228,03,03,60.0154753347,PLT_learning_3,A,2014_Mrz_06_1346,P14,
stim_fb/ques.jpg,stim_fb/negf.jpg,stim_fb/posf.jpg,stim_03/b.jpg,stim_03/a.jpg,1,1,f,4,45,285,5,f,1,1.29963572441,03,03,60.0154753347,PLT_learning_3,A,2014_Mrz_06_1346,P14,
stim_fb/ques.jpg,stim_fb/posf.jpg,stim_fb/negf.jpg,stim_03/d.jpg,stim_03/c.jpg,1,2,f,4,46,286,27,j,0,0.966370361237,03,03,60.0154753347,PLT_learning_3,A,2014_Mrz_06_1346,P14,
stim_fb/ques.jpg,stim_fb/negf.jpg,stim_fb/posf.jpg,stim_03/c.jpg,stim_03/d.jpg,2,2,j,4,47,287,30,j,1,0.783122858013,03,03,60.0154753347,PLT_learning_3,A,2014_Mrz_06_1346,P14,
stim_fb/ques.jpg,stim_fb/negf.jpg,stim_fb/posf.jpg,stim_03/b.jpg,stim_03/a.jpg,1,1,f,4,48,288,1,f,1,0.966405777378,03,03,60.0154753347,PLT_learning_3,A,2014_Mrz_06_1346,P14,
stim_fb/ques.jpg,stim_fb/negf.jpg,stim_fb/posf.jpg,stim_03/e.jpg,stim_03/f.jpg,2,3,j,4,49,289,53,j,1,0.849769204107,03,03,60.0154753347,PLT_learning_3,A,2014_Mrz_06_1346,P14,
stim_fb/ques.jpg,stim_fb/posf.jpg,stim_fb/negf.jpg,stim_03/e.jpg,stim_03/f.jpg,2,3,j,4,50,290,56,j,1,0.849733595486,03,03,60.0154753347,PLT_learning_3,A,2014_Mrz_06_1346,P14,
stim_fb/ques.jpg,stim_fb/negf.jpg,stim_fb/posf.jpg,stim_03/a.jpg,stim_03/b.jpg,2,1,j,4,51,291,10,j,1,0.733217246422,03,03,60.0154753347,PLT_learning_3,A,2014_Mrz_06_1346,P14,
stim_fb/ques.jpg,stim_fb/negf.jpg,stim_fb/posf.jpg,stim_03/a.jpg,stim_03/b.jpg,2,1,j,4,52,292,16,j,1,1.2663161814,03,03,60.0154753347,PLT_learning_3,A,2014_Mrz_06_1346,P14,
stim_fb/ques.jpg,stim_fb/negf.jpg,stim_fb/posf.jpg,stim_03/b.jpg,stim_03/a.jpg,1,1,f,4,53,293,2,j,0,0.899691549344,03,03,60.0154753347,PLT_learning_3,A,2014_Mrz_06_1346,P14,
stim_fb/ques.jpg,stim_fb/posf.jpg,stim_fb/negf.jpg,stim_03/e.jpg,stim_03/f.jpg,2,3,j,4,54,294,58,j,1,0.78311142957,03,03,60.0154753347,PLT_learning_3,A,2014_Mrz_06_1346,P14,
stim_fb/ques.jpg,stim_fb/negf.jpg,stim_fb/posf.jpg,stim_03/c.jpg,stim_03/d.jpg,2,2,j,4,55,295,35,j,1,0.766465830836,03,03,60.0154753347,PLT_learning_3,A,2014_Mrz_06_1346,P14,
stim_fb/ques.jpg,stim_fb/negf.jpg,stim_fb/posf.jpg,stim_03/d.jpg,stim_03/c.jpg,1,2,f,4,56,296,22,f,1,0.866460507588,03,03,60.0154753347,PLT_learning_3,A,2014_Mrz_06_1346,P14,
stim_fb/ques.jpg,stim_fb/negf.jpg,stim_fb/posf.jpg,stim_03/a.jpg,stim_03/b.jpg,2,1,j,4,57,297,12,j,1,0.716500352251,03,03,60.0154753347,PLT_learning_3,A,2014_Mrz_06_1346,P14,
stim_fb/ques.jpg,stim_fb/negf.jpg,stim_fb/posf.jpg,stim_03/d.jpg,stim_03/c.jpg,1,2,f,4,58,298,24,f,1,0.933020716308,03,03,60.0154753347,PLT_learning_3,A,2014_Mrz_06_1346,P14,
stim_fb/ques.jpg,stim_fb/posf.jpg,stim_fb/negf.jpg,stim_03/f.jpg,stim_03/e.jpg,1,3,f,4,59,299,48,f,1,0.866428730504,03,03,60.0154753347,PLT_learning_3,A,2014_Mrz_06_1346,P14,
stim_fb/ques.jpg,stim_fb/posf.jpg,stim_fb/negf.jpg,stim_03/e.jpg,stim_03/f.jpg,2,3,j,5,0,300,59,j,1,0.816484424612,03,03,60.0154753347,PLT_learning_3,A,2014_Mrz_06_1346,P14,
stim_fb/ques.jpg,stim_fb/posf.jpg,stim_fb/negf.jpg,stim_03/f.jpg,stim_03/e.jpg,1,3,f,5,1,301,48,j,0,1.09969530268,03,03,60.0154753347,PLT_learning_3,A,2014_Mrz_06_1346,P14,
stim_fb/ques.jpg,stim_fb/negf.jpg,stim_fb/posf.jpg,stim_03/d.jpg,stim_03/c.jpg,1,2,f,5,2,302,25,f,1,0.966410005903,03,03,60.0154753347,PLT_learning_3,A,2014_Mrz_06_1346,P14,
stim_fb/ques.jpg,stim_fb/negf.jpg,stim_fb/posf.jpg,stim_03/c.jpg,stim_03/d.jpg,2,2,j,5,3,303,32,j,1,0.783167386833,03,03,60.0154753347,PLT_learning_3,A,2014_Mrz_06_1346,P14,
stim_fb/ques.jpg,stim_fb/posf.jpg,stim_fb/negf.jpg,stim_03/b.jpg,stim_03/a.jpg,1,1,f,5,4,304,9,f,1,1.00001545847,03,03,60.0154753347,PLT_learning_3,A,2014_Mrz_06_1346,P14,
stim_fb/ques.jpg,stim_fb/negf.jpg,stim_fb/posf.jpg,stim_03/f.jpg,stim_03/e.jpg,1,3,f,5,5,305,41,j,0,0.983017253189,03,03,60.0154753347,PLT_learning_3,A,2014_Mrz_06_1346,P14,
stim_fb/ques.jpg,stim_fb/negf.jpg,stim_fb/posf.jpg,stim_03/b.jpg,stim_03/a.jpg,1,1,f,5,6,306,1,f,1,0.849765417684,03,03,60.0154753347,PLT_learning_3,A,2014_Mrz_06_1346,P14,
stim_fb/ques.jpg,stim_fb/posf.jpg,stim_fb/negf.jpg,stim_03/f.jpg,stim_03/e.jpg,1,3,f,5,7,307,46,j,0,1.03304915809,03,03,60.0154753347,PLT_learning_3,A,2014_Mrz_06_1346,P14,
stim_fb/ques.jpg,stim_fb/posf.jpg,stim_fb/negf.jpg,stim_03/e.jpg,stim_03/f.jpg,2,3,j,5,8,308,57,f,0,0.866463358684,03,03,60.0154753347,PLT_learning_3,A,2014_Mrz_06_1346,P14,
stim_fb/ques.jpg,stim_fb/negf.jpg,stim_fb/posf.jpg,stim_03/d.jpg,stim_03/c.jpg,1,2,f,5,9,309,21,f,1,0.816441961932,03,03,60.0154753347,PLT_learning_3,A,2014_Mrz_06_1346,P14,
stim_fb/ques.jpg,stim_fb/negf.jpg,stim_fb/posf.jpg,stim_03/b.jpg,stim_03/a.jpg,1,1,f,5,10,310,6,f,1,1.199620293,03,03,60.0154753347,PLT_learning_3,A,2014_Mrz_06_1346,P14,
stim_fb/ques.jpg,stim_fb/negf.jpg,stim_fb/posf.jpg,stim_03/e.jpg,stim_03/f.jpg,2,3,j,5,11,311,55,f,0,0.699805644297,03,03,60.0154753347,PLT_learning_3,A,2014_Mrz_06_1346,P14,
stim_fb/ques.jpg,stim_fb/negf.jpg,stim_fb/posf.jpg,stim_03/b.jpg,stim_03/a.jpg,1,1,f,5,12,312,3,f,1,0.716519076853,03,03,60.0154753347,PLT_learning_3,A,2014_Mrz_06_1346,P14,
stim_fb/ques.jpg,stim_fb/negf.jpg,stim_fb/posf.jpg,stim_03/e.jpg,stim_03/f.jpg,2,3,j,5,13,313,50,j,1,0.866380673902,03,03,60.0154753347,PLT_learning_3,A,2014_Mrz_06_1346,P14,
stim_fb/ques.jpg,stim_fb/negf.jpg,stim_fb/posf.jpg,stim_03/a.jpg,stim_03/b.jpg,2,1,j,5,14,314,17,j,1,0.733006090909,03,03,60.0154753347,PLT_learning_3,A,2014_Mrz_06_1346,P14,
stim_fb/ques.jpg,stim_fb/negf.jpg,stim_fb/posf.jpg,stim_03/f.jpg,stim_03/e.jpg,1,3,f,5,15,315,42,f,1,0.799766255268,03,03,60.0154753347,PLT_learning_3,A,2014_Mrz_06_1346,P14,
stim_fb/ques.jpg,stim_fb/posf.jpg,stim_fb/negf.jpg,stim_03/d.jpg,stim_03/c.jpg,1,2,f,5,16,316,28,f,1,1.04969344556,03,03,60.0154753347,PLT_learning_3,A,2014_Mrz_06_1346,P14,
stim_fb/ques.jpg,stim_fb/negf.jpg,stim_fb/posf.jpg,stim_03/c.jpg,stim_03/d.jpg,2,2,j,5,17,317,30,j,1,1.133014163,03,03,60.0154753347,PLT_learning_3,A,2014_Mrz_06_1346,P14,
stim_fb/ques.jpg,stim_fb/negf.jpg,stim_fb/posf.jpg,stim_03/a.jpg,stim_03/b.jpg,2,1,j,5,18,318,13,j,1,0.899784537768,03,03,60.0154753347,PLT_learning_3,A,2014_Mrz_06_1346,P14,
stim_fb/ques.jpg,stim_fb/negf.jpg,stim_fb/posf.jpg,stim_03/d.jpg,stim_03/c.jpg,1,2,f,5,19,319,22,f,1,0.766457677545,03,03,60.0154753347,PLT_learning_3,A,2014_Mrz_06_1346,P14,
stim_fb/ques.jpg,stim_fb/negf.jpg,stim_fb/posf.jpg,stim_03/d.jpg,stim_03/c.jpg,1,2,f,5,20,320,26,f,1,1.34961712763,03,03,60.0154753347,PLT_learning_3,A,2014_Mrz_06_1346,P14,
stim_fb/ques.jpg,stim_fb/negf.jpg,stim_fb/posf.jpg,stim_03/b.jpg,stim_03/a.jpg,1,1,f,5,21,321,4,f,1,1.03303788002,03,03,60.0154753347,PLT_learning_3,A,2014_Mrz_06_1346,P14,
stim_fb/ques.jpg,stim_fb/posf.jpg,stim_fb/negf.jpg,stim_03/e.jpg,stim_03/f.jpg,2,3,j,5,22,322,58,j,1,0.866480215636,03,03,60.0154753347,PLT_learning_3,A,2014_Mrz_06_1346,P14,
stim_fb/ques.jpg,stim_fb/negf.jpg,stim_fb/posf.jpg,stim_03/f.jpg,stim_03/e.jpg,1,3,f,5,23,323,45,j,0,0.84981523667,03,03,60.0154753347,PLT_learning_3,A,2014_Mrz_06_1346,P14,
stim_fb/ques.jpg,stim_fb/negf.jpg,stim_fb/posf.jpg,stim_03/f.jpg,stim_03/e.jpg,1,3,f,5,24,324,43,j,0,0.783127892543,03,03,60.0154753347,PLT_learning_3,A,2014_Mrz_06_1346,P14,
stim_fb/ques.jpg,stim_fb/posf.jpg,stim_fb/negf.jpg,stim_03/a.jpg,stim_03/b.jpg,2,1,j,5,25,325,18,j,1,0.766521481337,03,03,60.0154753347,PLT_learning_3,A,2014_Mrz_06_1346,P14,
stim_fb/ques.jpg,stim_fb/negf.jpg,stim_fb/posf.jpg,stim_03/a.jpg,stim_03/b.jpg,2,1,j,5,26,326,15,j,1,1.38294713669,03,03,60.0154753347,PLT_learning_3,A,2014_Mrz_06_1346,P14,
stim_fb/ques.jpg,stim_fb/posf.jpg,stim_fb/negf.jpg,stim_03/e.jpg,stim_03/f.jpg,2,3,j,5,27,327,56,f,0,0.783114858104,03,03,60.0154753347,PLT_learning_3,A,2014_Mrz_06_1346,P14,
stim_fb/ques.jpg,stim_fb/negf.jpg,stim_fb/posf.jpg,stim_03/b.jpg,stim_03/a.jpg,1,1,f,5,28,328,5,f,1,0.733121530208,03,03,60.0154753347,PLT_learning_3,A,2014_Mrz_06_1346,P14,
stim_fb/ques.jpg,stim_fb/negf.jpg,stim_fb/posf.jpg,stim_03/d.jpg,stim_03/c.jpg,1,2,f,5,29,329,20,f,1,0.899768757495,03,03,60.0154753347,PLT_learning_3,A,2014_Mrz_06_1346,P14,
stim_fb/ques.jpg,stim_fb/negf.jpg,stim_fb/posf.jpg,stim_03/e.jpg,stim_03/f.jpg,2,3,j,5,30,330,53,f,0,0.84981129085,03,03,60.0154753347,PLT_learning_3,A,2014_Mrz_06_1346,P14,
stim_fb/ques.jpg,stim_fb/posf.jpg,stim_fb/negf.jpg,stim_03/c.jpg,stim_03/d.jpg,2,2,j,5,31,331,39,j,1,0.816496511693,03,03,60.0154753347,PLT_learning_3,A,2014_Mrz_06_1346,P14,
stim_fb/ques.jpg,stim_fb/negf.jpg,stim_fb/posf.jpg,stim_03/b.jpg,stim_03/a.jpg,1,1,f,5,32,332,0,f,1,0.699817162964,03,03,60.0154753347,PLT_learning_3,A,2014_Mrz_06_1346,P14,
stim_fb/ques.jpg,stim_fb/negf.jpg,stim_fb/posf.jpg,stim_03/f.jpg,stim_03/e.jpg,1,3,f,5,33,333,40,f,1,0.699784246042,03,03,60.0154753347,PLT_learning_3,A,2014_Mrz_06_1346,P14,
stim_fb/ques.jpg,stim_fb/negf.jpg,stim_fb/posf.jpg,stim_03/a.jpg,stim_03/b.jpg,2,1,j,5,34,334,12,j,1,0.833113861122,03,03,60.0154753347,PLT_learning_3,A,2014_Mrz_06_1346,P14,
stim_fb/ques.jpg,stim_fb/posf.jpg,stim_fb/negf.jpg,stim_03/d.jpg,stim_03/c.jpg,1,2,f,5,35,335,29,f,1,0.799779340834,03,03,60.0154753347,PLT_learning_3,A,2014_Mrz_06_1346,P14,
stim_fb/ques.jpg,stim_fb/posf.jpg,stim_fb/negf.jpg,stim_03/c.jpg,stim_03/d.jpg,2,2,j,5,36,336,37,j,1,1.1829802521,03,03,60.0154753347,PLT_learning_3,A,2014_Mrz_06_1346,P14,
stim_fb/ques.jpg,stim_fb/negf.jpg,stim_fb/posf.jpg,stim_03/e.jpg,stim_03/f.jpg,2,3,j,5,37,337,52,None,0,,03,03,60.0154753347,PLT_learning_3,A,2014_Mrz_06_1346,P14,
stim_fb/ques.jpg,stim_fb/posf.jpg,stim_fb/negf.jpg,stim_03/d.jpg,stim_03/c.jpg,1,2,f,5,38,338,27,j,0,0.733094113976,03,03,60.0154753347,PLT_learning_3,A,2014_Mrz_06_1346,P14,
stim_fb/ques.jpg,stim_fb/posf.jpg,stim_fb/negf.jpg,stim_03/c.jpg,stim_03/d.jpg,2,2,j,5,39,339,38,f,0,0.733155120807,03,03,60.0154753347,PLT_learning_3,A,2014_Mrz_06_1346,P14,
stim_fb/ques.jpg,stim_fb/negf.jpg,stim_fb/posf.jpg,stim_03/c.jpg,stim_03/d.jpg,2,2,j,5,40,340,34,f,0,0.549870661609,03,03,60.0154753347,PLT_learning_3,A,2014_Mrz_06_1346,P14,
stim_fb/ques.jpg,stim_fb/negf.jpg,stim_fb/posf.jpg,stim_03/c.jpg,stim_03/d.jpg,2,2,j,5,41,341,33,f,0,0.966285778732,03,03,60.0154753347,PLT_learning_3,A,2014_Mrz_06_1346,P14,
stim_fb/ques.jpg,stim_fb/negf.jpg,stim_fb/posf.jpg,stim_03/b.jpg,stim_03/a.jpg,1,1,f,5,42,342,2,f,1,0.932965598133,03,03,60.0154753347,PLT_learning_3,A,2014_Mrz_06_1346,P14,
stim_fb/ques.jpg,stim_fb/posf.jpg,stim_fb/negf.jpg,stim_03/f.jpg,stim_03/e.jpg,1,3,f,5,43,343,49,j,0,1.01621613892,03,03,60.0154753347,PLT_learning_3,A,2014_Mrz_06_1346,P14,
stim_fb/ques.jpg,stim_fb/posf.jpg,stim_fb/negf.jpg,stim_03/b.jpg,stim_03/a.jpg,1,1,f,5,44,344,8,f,1,0.916426993681,03,03,60.0154753347,PLT_learning_3,A,2014_Mrz_06_1346,P14,
stim_fb/ques.jpg,stim_fb/negf.jpg,stim_fb/posf.jpg,stim_03/a.jpg,stim_03/b.jpg,2,1,j,5,45,345,11,f,0,0.999766959019,03,03,60.0154753347,PLT_learning_3,A,2014_Mrz_06_1346,P14,
stim_fb/ques.jpg,stim_fb/negf.jpg,stim_fb/posf.jpg,stim_03/e.jpg,stim_03/f.jpg,2,3,j,5,46,346,51,f,0,0.983019860679,03,03,60.0154753347,PLT_learning_3,A,2014_Mrz_06_1346,P14,
stim_fb/ques.jpg,stim_fb/negf.jpg,stim_fb/posf.jpg,stim_03/f.jpg,stim_03/e.jpg,1,3,f,5,47,347,44,f,1,0.899759115498,03,03,60.0154753347,PLT_learning_3,A,2014_Mrz_06_1346,P14,
stim_fb/ques.jpg,stim_fb/negf.jpg,stim_fb/posf.jpg,stim_03/d.jpg,stim_03/c.jpg,1,2,f,5,48,348,24,f,1,1.16635104115,03,03,60.0154753347,PLT_learning_3,A,2014_Mrz_06_1346,P14,
stim_fb/ques.jpg,stim_fb/negf.jpg,stim_fb/posf.jpg,stim_03/c.jpg,stim_03/d.jpg,2,2,j,5,49,349,36,j,1,0.783062145916,03,03,60.0154753347,PLT_learning_3,A,2014_Mrz_06_1346,P14,
stim_fb/ques.jpg,stim_fb/negf.jpg,stim_fb/posf.jpg,stim_03/e.jpg,stim_03/f.jpg,2,3,j,5,50,350,54,f,0,1.1829464179,03,03,60.0154753347,PLT_learning_3,A,2014_Mrz_06_1346,P14,
stim_fb/ques.jpg,stim_fb/posf.jpg,stim_fb/negf.jpg,stim_03/a.jpg,stim_03/b.jpg,2,1,j,5,51,351,19,f,0,1.06636374477,03,03,60.0154753347,PLT_learning_3,A,2014_Mrz_06_1346,P14,
stim_fb/ques.jpg,stim_fb/negf.jpg,stim_fb/posf.jpg,stim_03/a.jpg,stim_03/b.jpg,2,1,j,5,52,352,14,f,0,0.633159412489,03,03,60.0154753347,PLT_learning_3,A,2014_Mrz_06_1346,P14,
stim_fb/ques.jpg,stim_fb/negf.jpg,stim_fb/posf.jpg,stim_03/d.jpg,stim_03/c.jpg,1,2,f,5,53,353,23,f,1,1.2496388537,03,03,60.0154753347,PLT_learning_3,A,2014_Mrz_06_1346,P14,
stim_fb/ques.jpg,stim_fb/posf.jpg,stim_fb/negf.jpg,stim_03/f.jpg,stim_03/e.jpg,1,3,f,5,54,354,47,j,0,0.849761859829,03,03,60.0154753347,PLT_learning_3,A,2014_Mrz_06_1346,P14,
stim_fb/ques.jpg,stim_fb/negf.jpg,stim_fb/posf.jpg,stim_03/c.jpg,stim_03/d.jpg,2,2,j,5,55,355,31,f,0,0.583189227189,03,03,60.0154753347,PLT_learning_3,A,2014_Mrz_06_1346,P14,
stim_fb/ques.jpg,stim_fb/negf.jpg,stim_fb/posf.jpg,stim_03/a.jpg,stim_03/b.jpg,2,1,j,5,56,356,10,j,1,0.749870574392,03,03,60.0154753347,PLT_learning_3,A,2014_Mrz_06_1346,P14,
stim_fb/ques.jpg,stim_fb/negf.jpg,stim_fb/posf.jpg,stim_03/c.jpg,stim_03/d.jpg,2,2,j,5,57,357,35,j,1,0.766449286662,03,03,60.0154753347,PLT_learning_3,A,2014_Mrz_06_1346,P14,
stim_fb/ques.jpg,stim_fb/negf.jpg,stim_fb/posf.jpg,stim_03/b.jpg,stim_03/a.jpg,1,1,f,5,58,358,7,f,1,0.799757419278,03,03,60.0154753347,PLT_learning_3,A,2014_Mrz_06_1346,P14,
stim_fb/ques.jpg,stim_fb/negf.jpg,stim_fb/posf.jpg,stim_03/a.jpg,stim_03/b.jpg,2,1,j,5,59,359,16,j,1,0.766445942339,03,03,60.0154753347,PLT_learning_3,A,2014_Mrz_06_1346,P14,
