Fb3,Fb2,Fb1,Symbol2,Symbol1,PosCond,Pair,Correct,trials.thisRepN,trials.thisTrialN,trials.thisN,trials.thisIndex,Response.keys,Response.corr,Response.rt,Version,Session Number,frameRate,expName,StimCondition,date,Participant,
stim_fb/ques.jpg,stim_fb/posf.jpg,stim_fb/negf.jpg,stim_03/e.jpg,stim_03/f.jpg,2,3,j,0,0,0,59,f,0,1.04966458899,03,02,60.0213544447,PLT_learning_3,A,2014_Mrz_03_1731,P15,
stim_fb/ques.jpg,stim_fb/negf.jpg,stim_fb/posf.jpg,stim_03/c.jpg,stim_03/d.jpg,2,2,j,0,1,1,36,j,1,1.24959744964,03,02,60.0213544447,PLT_learning_3,A,2014_Mrz_03_1731,P15,
stim_fb/ques.jpg,stim_fb/negf.jpg,stim_fb/posf.jpg,stim_03/a.jpg,stim_03/b.jpg,2,1,j,0,2,2,17,f,0,1.63283190653,03,02,60.0213544447,PLT_learning_3,A,2014_Mrz_03_1731,P15,
stim_fb/ques.jpg,stim_fb/negf.jpg,stim_fb/posf.jpg,stim_03/e.jpg,stim_03/f.jpg,2,3,j,0,3,3,51,f,0,1.04971134653,03,02,60.0213544447,PLT_learning_3,A,2014_Mrz_03_1731,P15,
stim_fb/ques.jpg,stim_fb/posf.jpg,stim_fb/negf.jpg,stim_03/a.jpg,stim_03/b.jpg,2,1,j,0,4,4,19,j,1,1.28301765851,03,02,60.0213544447,PLT_learning_3,A,2014_Mrz_03_1731,P15,
stim_fb/ques.jpg,stim_fb/posf.jpg,stim_fb/negf.jpg,stim_03/e.jpg,stim_03/f.jpg,2,3,j,0,5,5,57,f,0,0.999724663725,03,02,60.0213544447,PLT_learning_3,A,2014_Mrz_03_1731,P15,
stim_fb/ques.jpg,stim_fb/negf.jpg,stim_fb/posf.jpg,stim_03/f.jpg,stim_03/e.jpg,1,3,f,0,6,6,43,j,0,0.849759944662,03,02,60.0213544447,PLT_learning_3,A,2014_Mrz_03_1731,P15,
stim_fb/ques.jpg,stim_fb/posf.jpg,stim_fb/negf.jpg,stim_03/f.jpg,stim_03/e.jpg,1,3,f,0,7,7,47,j,0,0.733141026007,03,02,60.0213544447,PLT_learning_3,A,2014_Mrz_03_1731,P15,
stim_fb/ques.jpg,stim_fb/posf.jpg,stim_fb/negf.jpg,stim_03/b.jpg,stim_03/a.jpg,1,1,f,0,8,8,8,f,1,1.06635929053,03,02,60.0213544447,PLT_learning_3,A,2014_Mrz_03_1731,P15,
stim_fb/ques.jpg,stim_fb/negf.jpg,stim_fb/posf.jpg,stim_03/f.jpg,stim_03/e.jpg,1,3,f,0,9,9,42,j,0,0.816459118352,03,02,60.0213544447,PLT_learning_3,A,2014_Mrz_03_1731,P15,
stim_fb/ques.jpg,stim_fb/posf.jpg,stim_fb/negf.jpg,stim_03/f.jpg,stim_03/e.jpg,1,3,f,0,10,10,49,j,0,0.649869823535,03,02,60.0213544447,PLT_learning_3,A,2014_Mrz_03_1731,P15,
stim_fb/ques.jpg,stim_fb/negf.jpg,stim_fb/posf.jpg,stim_03/c.jpg,stim_03/d.jpg,2,2,j,0,11,11,32,f,0,1.16632480658,03,02,60.0213544447,PLT_learning_3,A,2014_Mrz_03_1731,P15,
stim_fb/ques.jpg,stim_fb/posf.jpg,stim_fb/negf.jpg,stim_03/b.jpg,stim_03/a.jpg,1,1,f,0,12,12,9,j,0,1.63285800257,03,02,60.0213544447,PLT_learning_3,A,2014_Mrz_03_1731,P15,
stim_fb/ques.jpg,stim_fb/negf.jpg,stim_fb/posf.jpg,stim_03/a.jpg,stim_03/b.jpg,2,1,j,0,13,13,11,f,0,1.31626339651,03,02,60.0213544447,PLT_learning_3,A,2014_Mrz_03_1731,P15,
stim_fb/ques.jpg,stim_fb/negf.jpg,stim_fb/posf.jpg,stim_03/e.jpg,stim_03/f.jpg,2,3,j,0,14,14,54,f,0,0.733116418674,03,02,60.0213544447,PLT_learning_3,A,2014_Mrz_03_1731,P15,
stim_fb/ques.jpg,stim_fb/negf.jpg,stim_fb/posf.jpg,stim_03/e.jpg,stim_03/f.jpg,2,3,j,0,15,15,55,f,0,1.13300723754,03,02,60.0213544447,PLT_learning_3,A,2014_Mrz_03_1731,P15,
stim_fb/ques.jpg,stim_fb/posf.jpg,stim_fb/negf.jpg,stim_03/f.jpg,stim_03/e.jpg,1,3,f,0,16,16,48,j,0,0.749671082171,03,02,60.0213544447,PLT_learning_3,A,2014_Mrz_03_1731,P15,
stim_fb/ques.jpg,stim_fb/posf.jpg,stim_fb/negf.jpg,stim_03/c.jpg,stim_03/d.jpg,2,2,j,0,17,17,38,j,1,1.08304360117,03,02,60.0213544447,PLT_learning_3,A,2014_Mrz_03_1731,P15,
stim_fb/ques.jpg,stim_fb/negf.jpg,stim_fb/posf.jpg,stim_03/a.jpg,stim_03/b.jpg,2,1,j,0,18,18,15,f,0,0.966401428561,03,02,60.0213544447,PLT_learning_3,A,2014_Mrz_03_1731,P15,
stim_fb/ques.jpg,stim_fb/negf.jpg,stim_fb/posf.jpg,stim_03/d.jpg,stim_03/c.jpg,1,2,f,0,19,19,20,f,1,1.23297810092,03,02,60.0213544447,PLT_learning_3,A,2014_Mrz_03_1731,P15,
stim_fb/ques.jpg,stim_fb/negf.jpg,stim_fb/posf.jpg,stim_03/b.jpg,stim_03/a.jpg,1,1,f,0,20,20,1,j,0,1.48289826092,03,02,60.0213544447,PLT_learning_3,A,2014_Mrz_03_1731,P15,
stim_fb/ques.jpg,stim_fb/negf.jpg,stim_fb/posf.jpg,stim_03/e.jpg,stim_03/f.jpg,2,3,j,0,21,21,50,f,0,1.26626648822,03,02,60.0213544447,PLT_learning_3,A,2014_Mrz_03_1731,P15,
stim_fb/ques.jpg,stim_fb/negf.jpg,stim_fb/posf.jpg,stim_03/d.jpg,stim_03/c.jpg,1,2,f,0,22,22,23,f,1,1.28295284697,03,02,60.0213544447,PLT_learning_3,A,2014_Mrz_03_1731,P15,
stim_fb/ques.jpg,stim_fb/posf.jpg,stim_fb/negf.jpg,stim_03/d.jpg,stim_03/c.jpg,1,2,f,0,23,23,28,f,1,1.19965887475,03,02,60.0213544447,PLT_learning_3,A,2014_Mrz_03_1731,P15,
stim_fb/ques.jpg,stim_fb/negf.jpg,stim_fb/posf.jpg,stim_03/c.jpg,stim_03/d.jpg,2,2,j,0,24,24,30,f,0,1.14967747912,03,02,60.0213544447,PLT_learning_3,A,2014_Mrz_03_1731,P15,
stim_fb/ques.jpg,stim_fb/posf.jpg,stim_fb/negf.jpg,stim_03/a.jpg,stim_03/b.jpg,2,1,j,0,25,25,18,f,0,1.3995903309,03,02,60.0213544447,PLT_learning_3,A,2014_Mrz_03_1731,P15,
stim_fb/ques.jpg,stim_fb/negf.jpg,stim_fb/posf.jpg,stim_03/e.jpg,stim_03/f.jpg,2,3,j,0,26,26,53,f,0,0.899756516115,03,02,60.0213544447,PLT_learning_3,A,2014_Mrz_03_1731,P15,
stim_fb/ques.jpg,stim_fb/posf.jpg,stim_fb/negf.jpg,stim_03/c.jpg,stim_03/d.jpg,2,2,j,0,27,27,37,j,1,1.04970896159,03,02,60.0213544447,PLT_learning_3,A,2014_Mrz_03_1731,P15,
stim_fb/ques.jpg,stim_fb/posf.jpg,stim_fb/negf.jpg,stim_03/f.jpg,stim_03/e.jpg,1,3,f,0,28,28,46,j,0,0.799803812,03,02,60.0213544447,PLT_learning_3,A,2014_Mrz_03_1731,P15,
stim_fb/ques.jpg,stim_fb/negf.jpg,stim_fb/posf.jpg,stim_03/c.jpg,stim_03/d.jpg,2,2,j,0,29,29,33,j,1,1.21631155255,03,02,60.0213544447,PLT_learning_3,A,2014_Mrz_03_1731,P15,
stim_fb/ques.jpg,stim_fb/posf.jpg,stim_fb/negf.jpg,stim_03/d.jpg,stim_03/c.jpg,1,2,f,0,30,30,29,f,1,0.999720735934,03,02,60.0213544447,PLT_learning_3,A,2014_Mrz_03_1731,P15,
stim_fb/ques.jpg,stim_fb/negf.jpg,stim_fb/posf.jpg,stim_03/d.jpg,stim_03/c.jpg,1,2,f,0,31,31,22,j,0,1.21630789242,03,02,60.0213544447,PLT_learning_3,A,2014_Mrz_03_1731,P15,
stim_fb/ques.jpg,stim_fb/negf.jpg,stim_fb/posf.jpg,stim_03/b.jpg,stim_03/a.jpg,1,1,f,0,32,32,7,j,0,1.24963202983,03,02,60.0213544447,PLT_learning_3,A,2014_Mrz_03_1731,P15,
stim_fb/ques.jpg,stim_fb/negf.jpg,stim_fb/posf.jpg,stim_03/c.jpg,stim_03/d.jpg,2,2,j,0,33,33,34,j,1,0.666508185654,03,02,60.0213544447,PLT_learning_3,A,2014_Mrz_03_1731,P15,
stim_fb/ques.jpg,stim_fb/negf.jpg,stim_fb/posf.jpg,stim_03/f.jpg,stim_03/e.jpg,1,3,f,0,34,34,41,j,0,1.06635657476,03,02,60.0213544447,PLT_learning_3,A,2014_Mrz_03_1731,P15,
stim_fb/ques.jpg,stim_fb/negf.jpg,stim_fb/posf.jpg,stim_03/b.jpg,stim_03/a.jpg,1,1,f,0,35,35,0,j,0,1.48288756927,03,02,60.0213544447,PLT_learning_3,A,2014_Mrz_03_1731,P15,
stim_fb/ques.jpg,stim_fb/negf.jpg,stim_fb/posf.jpg,stim_03/f.jpg,stim_03/e.jpg,1,3,f,0,36,36,44,j,0,0.783112108931,03,02,60.0213544447,PLT_learning_3,A,2014_Mrz_03_1731,P15,
stim_fb/ques.jpg,stim_fb/negf.jpg,stim_fb/posf.jpg,stim_03/b.jpg,stim_03/a.jpg,1,1,f,0,37,37,4,f,1,1.2329756859,03,02,60.0213544447,PLT_learning_3,A,2014_Mrz_03_1731,P15,
stim_fb/ques.jpg,stim_fb/negf.jpg,stim_fb/posf.jpg,stim_03/a.jpg,stim_03/b.jpg,2,1,j,0,38,38,13,f,0,0.783104081924,03,02,60.0213544447,PLT_learning_3,A,2014_Mrz_03_1731,P15,
stim_fb/ques.jpg,stim_fb/posf.jpg,stim_fb/negf.jpg,stim_03/e.jpg,stim_03/f.jpg,2,3,j,0,39,39,56,j,1,1.34962983737,03,02,60.0213544447,PLT_learning_3,A,2014_Mrz_03_1731,P15,
stim_fb/ques.jpg,stim_fb/negf.jpg,stim_fb/posf.jpg,stim_03/a.jpg,stim_03/b.jpg,2,1,j,0,40,40,10,f,0,1.36627258141,03,02,60.0213544447,PLT_learning_3,A,2014_Mrz_03_1731,P15,
stim_fb/ques.jpg,stim_fb/negf.jpg,stim_fb/posf.jpg,stim_03/d.jpg,stim_03/c.jpg,1,2,f,0,41,41,21,f,1,1.14969118728,03,02,60.0213544447,PLT_learning_3,A,2014_Mrz_03_1731,P15,
stim_fb/ques.jpg,stim_fb/posf.jpg,stim_fb/negf.jpg,stim_03/d.jpg,stim_03/c.jpg,1,2,f,0,42,42,27,f,1,0.716487734679,03,02,60.0213544447,PLT_learning_3,A,2014_Mrz_03_1731,P15,
stim_fb/ques.jpg,stim_fb/negf.jpg,stim_fb/posf.jpg,stim_03/d.jpg,stim_03/c.jpg,1,2,f,0,43,43,24,f,1,0.683211840513,03,02,60.0213544447,PLT_learning_3,A,2014_Mrz_03_1731,P15,
stim_fb/ques.jpg,stim_fb/negf.jpg,stim_fb/posf.jpg,stim_03/f.jpg,stim_03/e.jpg,1,3,f,0,44,44,40,j,0,0.983042193668,03,02,60.0213544447,PLT_learning_3,A,2014_Mrz_03_1731,P15,
stim_fb/ques.jpg,stim_fb/posf.jpg,stim_fb/negf.jpg,stim_03/e.jpg,stim_03/f.jpg,2,3,j,0,45,45,58,j,1,1.29962902835,03,02,60.0213544447,PLT_learning_3,A,2014_Mrz_03_1731,P15,
stim_fb/ques.jpg,stim_fb/negf.jpg,stim_fb/posf.jpg,stim_03/a.jpg,stim_03/b.jpg,2,1,j,0,46,46,14,f,0,1.08302403441,03,02,60.0213544447,PLT_learning_3,A,2014_Mrz_03_1731,P15,
stim_fb/ques.jpg,stim_fb/negf.jpg,stim_fb/posf.jpg,stim_03/b.jpg,stim_03/a.jpg,1,1,f,0,47,47,6,j,0,1.16632702611,03,02,60.0213544447,PLT_learning_3,A,2014_Mrz_03_1731,P15,
stim_fb/ques.jpg,stim_fb/negf.jpg,stim_fb/posf.jpg,stim_03/d.jpg,stim_03/c.jpg,1,2,f,0,48,48,25,f,1,1.09967716333,03,02,60.0213544447,PLT_learning_3,A,2014_Mrz_03_1731,P15,
stim_fb/ques.jpg,stim_fb/negf.jpg,stim_fb/posf.jpg,stim_03/c.jpg,stim_03/d.jpg,2,2,j,0,49,49,35,j,1,1.33300792024,03,02,60.0213544447,PLT_learning_3,A,2014_Mrz_03_1731,P15,
stim_fb/ques.jpg,stim_fb/negf.jpg,stim_fb/posf.jpg,stim_03/b.jpg,stim_03/a.jpg,1,1,f,0,50,50,3,f,1,1.19963479372,03,02,60.0213544447,PLT_learning_3,A,2014_Mrz_03_1731,P15,
stim_fb/ques.jpg,stim_fb/negf.jpg,stim_fb/posf.jpg,stim_03/e.jpg,stim_03/f.jpg,2,3,j,0,51,51,52,f,0,1.08302149909,03,02,60.0213544447,PLT_learning_3,A,2014_Mrz_03_1731,P15,
stim_fb/ques.jpg,stim_fb/negf.jpg,stim_fb/posf.jpg,stim_03/b.jpg,stim_03/a.jpg,1,1,f,0,52,52,5,f,1,0.999718305879,03,02,60.0213544447,PLT_learning_3,A,2014_Mrz_03_1731,P15,
stim_fb/ques.jpg,stim_fb/negf.jpg,stim_fb/posf.jpg,stim_03/b.jpg,stim_03/a.jpg,1,1,f,0,53,53,2,f,1,0.783149856017,03,02,60.0213544447,PLT_learning_3,A,2014_Mrz_03_1731,P15,
stim_fb/ques.jpg,stim_fb/posf.jpg,stim_fb/negf.jpg,stim_03/c.jpg,stim_03/d.jpg,2,2,j,0,54,54,39,f,0,1.3329457553,03,02,60.0213544447,PLT_learning_3,A,2014_Mrz_03_1731,P15,
stim_fb/ques.jpg,stim_fb/negf.jpg,stim_fb/posf.jpg,stim_03/c.jpg,stim_03/d.jpg,2,2,j,0,55,55,31,j,1,1.61618942715,03,02,60.0213544447,PLT_learning_3,A,2014_Mrz_03_1731,P15,
stim_fb/ques.jpg,stim_fb/negf.jpg,stim_fb/posf.jpg,stim_03/f.jpg,stim_03/e.jpg,1,3,f,0,56,56,45,f,1,1.18299842257,03,02,60.0213544447,PLT_learning_3,A,2014_Mrz_03_1731,P15,
stim_fb/ques.jpg,stim_fb/negf.jpg,stim_fb/posf.jpg,stim_03/d.jpg,stim_03/c.jpg,1,2,f,0,57,57,26,f,1,1.29958516703,03,02,60.0213544447,PLT_learning_3,A,2014_Mrz_03_1731,P15,
stim_fb/ques.jpg,stim_fb/negf.jpg,stim_fb/posf.jpg,stim_03/a.jpg,stim_03/b.jpg,2,1,j,0,58,58,12,j,1,0.916374791166,03,02,60.0213544447,PLT_learning_3,A,2014_Mrz_03_1731,P15,
stim_fb/ques.jpg,stim_fb/negf.jpg,stim_fb/posf.jpg,stim_03/a.jpg,stim_03/b.jpg,2,1,j,0,59,59,16,j,1,1.01637366937,03,02,60.0213544447,PLT_learning_3,A,2014_Mrz_03_1731,P15,
stim_fb/ques.jpg,stim_fb/posf.jpg,stim_fb/negf.jpg,stim_03/e.jpg,stim_03/f.jpg,2,3,j,1,0,60,57,j,1,1.29960829468,03,02,60.0213544447,PLT_learning_3,A,2014_Mrz_03_1731,P15,
stim_fb/ques.jpg,stim_fb/negf.jpg,stim_fb/posf.jpg,stim_03/e.jpg,stim_03/f.jpg,2,3,j,1,1,61,53,j,1,1.21631748633,03,02,60.0213544447,PLT_learning_3,A,2014_Mrz_03_1731,P15,
stim_fb/ques.jpg,stim_fb/posf.jpg,stim_fb/negf.jpg,stim_03/d.jpg,stim_03/c.jpg,1,2,f,1,2,62,28,f,1,1.19964331697,03,02,60.0213544447,PLT_learning_3,A,2014_Mrz_03_1731,P15,
stim_fb/ques.jpg,stim_fb/negf.jpg,stim_fb/posf.jpg,stim_03/c.jpg,stim_03/d.jpg,2,2,j,1,3,63,32,j,1,1.48290371351,03,02,60.0213544447,PLT_learning_3,A,2014_Mrz_03_1731,P15,
stim_fb/ques.jpg,stim_fb/negf.jpg,stim_fb/posf.jpg,stim_03/d.jpg,stim_03/c.jpg,1,2,f,1,4,64,21,j,0,1.03306770024,03,02,60.0213544447,PLT_learning_3,A,2014_Mrz_03_1731,P15,
stim_fb/ques.jpg,stim_fb/negf.jpg,stim_fb/posf.jpg,stim_03/f.jpg,stim_03/e.jpg,1,3,f,1,5,65,44,j,0,1.19970224284,03,02,60.0213544447,PLT_learning_3,A,2014_Mrz_03_1731,P15,
stim_fb/ques.jpg,stim_fb/negf.jpg,stim_fb/posf.jpg,stim_03/a.jpg,stim_03/b.jpg,2,1,j,1,6,66,15,j,1,0.816436607245,03,02,60.0213544447,PLT_learning_3,A,2014_Mrz_03_1731,P15,
stim_fb/ques.jpg,stim_fb/posf.jpg,stim_fb/negf.jpg,stim_03/e.jpg,stim_03/f.jpg,2,3,j,1,7,67,59,f,0,0.849762344644,03,02,60.0213544447,PLT_learning_3,A,2014_Mrz_03_1731,P15,
stim_fb/ques.jpg,stim_fb/posf.jpg,stim_fb/negf.jpg,stim_03/f.jpg,stim_03/e.jpg,1,3,f,1,8,68,48,j,0,0.68316973256,03,02,60.0213544447,PLT_learning_3,A,2014_Mrz_03_1731,P15,
stim_fb/ques.jpg,stim_fb/posf.jpg,stim_fb/negf.jpg,stim_03/f.jpg,stim_03/e.jpg,1,3,f,1,9,69,47,j,0,0.583387397088,03,02,60.0213544447,PLT_learning_3,A,2014_Mrz_03_1731,P15,
stim_fb/ques.jpg,stim_fb/negf.jpg,stim_fb/posf.jpg,stim_03/d.jpg,stim_03/c.jpg,1,2,f,1,10,70,26,j,0,0.766458071743,03,02,60.0213544447,PLT_learning_3,A,2014_Mrz_03_1731,P15,
stim_fb/ques.jpg,stim_fb/posf.jpg,stim_fb/negf.jpg,stim_03/c.jpg,stim_03/d.jpg,2,2,j,1,11,71,37,f,0,0.916411305177,03,02,60.0213544447,PLT_learning_3,A,2014_Mrz_03_1731,P15,
stim_fb/ques.jpg,stim_fb/negf.jpg,stim_fb/posf.jpg,stim_03/a.jpg,stim_03/b.jpg,2,1,j,1,12,72,17,j,1,0.766457647687,03,02,60.0213544447,PLT_learning_3,A,2014_Mrz_03_1731,P15,
stim_fb/ques.jpg,stim_fb/negf.jpg,stim_fb/posf.jpg,stim_03/d.jpg,stim_03/c.jpg,1,2,f,1,13,73,20,j,0,0.783112532989,03,02,60.0213544447,PLT_learning_3,A,2014_Mrz_03_1731,P15,
stim_fb/ques.jpg,stim_fb/negf.jpg,stim_fb/posf.jpg,stim_03/b.jpg,stim_03/a.jpg,1,1,f,1,14,74,6,f,1,0.866425359209,03,02,60.0213544447,PLT_learning_3,A,2014_Mrz_03_1731,P15,
stim_fb/ques.jpg,stim_fb/negf.jpg,stim_fb/posf.jpg,stim_03/f.jpg,stim_03/e.jpg,1,3,f,1,15,75,41,f,1,1.18300976985,03,02,60.0213544447,PLT_learning_3,A,2014_Mrz_03_1731,P15,
stim_fb/ques.jpg,stim_fb/negf.jpg,stim_fb/posf.jpg,stim_03/a.jpg,stim_03/b.jpg,2,1,j,1,16,76,11,f,0,0.966402012016,03,02,60.0213544447,PLT_learning_3,A,2014_Mrz_03_1731,P15,
stim_fb/ques.jpg,stim_fb/negf.jpg,stim_fb/posf.jpg,stim_03/c.jpg,stim_03/d.jpg,2,2,j,1,17,77,34,f,0,1.16633722453,03,02,60.0213544447,PLT_learning_3,A,2014_Mrz_03_1731,P15,
stim_fb/ques.jpg,stim_fb/negf.jpg,stim_fb/posf.jpg,stim_03/b.jpg,stim_03/a.jpg,1,1,f,1,18,78,2,f,1,0.999677933249,03,02,60.0213544447,PLT_learning_3,A,2014_Mrz_03_1731,P15,
stim_fb/ques.jpg,stim_fb/posf.jpg,stim_fb/negf.jpg,stim_03/f.jpg,stim_03/e.jpg,1,3,f,1,19,79,46,j,0,1.14967373478,03,02,60.0213544447,PLT_learning_3,A,2014_Mrz_03_1731,P15,
stim_fb/ques.jpg,stim_fb/negf.jpg,stim_fb/posf.jpg,stim_03/c.jpg,stim_03/d.jpg,2,2,j,1,20,80,30,j,1,0.816421094578,03,02,60.0213544447,PLT_learning_3,A,2014_Mrz_03_1731,P15,
stim_fb/ques.jpg,stim_fb/negf.jpg,stim_fb/posf.jpg,stim_03/d.jpg,stim_03/c.jpg,1,2,f,1,21,81,23,j,0,0.733147925203,03,02,60.0213544447,PLT_learning_3,A,2014_Mrz_03_1731,P15,
stim_fb/ques.jpg,stim_fb/posf.jpg,stim_fb/negf.jpg,stim_03/f.jpg,stim_03/e.jpg,1,3,f,1,22,82,49,j,0,0.699821484048,03,02,60.0213544447,PLT_learning_3,A,2014_Mrz_03_1731,P15,
stim_fb/ques.jpg,stim_fb/posf.jpg,stim_fb/negf.jpg,stim_03/c.jpg,stim_03/d.jpg,2,2,j,1,23,83,38,j,1,0.516551493598,03,02,60.0213544447,PLT_learning_3,A,2014_Mrz_03_1731,P15,
stim_fb/ques.jpg,stim_fb/negf.jpg,stim_fb/posf.jpg,stim_03/e.jpg,stim_03/f.jpg,2,3,j,1,24,84,55,j,1,0.966415356275,03,02,60.0213544447,PLT_learning_3,A,2014_Mrz_03_1731,P15,
stim_fb/ques.jpg,stim_fb/negf.jpg,stim_fb/posf.jpg,stim_03/e.jpg,stim_03/f.jpg,2,3,j,1,25,85,54,j,1,0.633155371765,03,02,60.0213544447,PLT_learning_3,A,2014_Mrz_03_1731,P15,
stim_fb/ques.jpg,stim_fb/posf.jpg,stim_fb/negf.jpg,stim_03/b.jpg,stim_03/a.jpg,1,1,f,1,26,86,9,f,1,1.08304680717,03,02,60.0213544447,PLT_learning_3,A,2014_Mrz_03_1731,P15,
stim_fb/ques.jpg,stim_fb/negf.jpg,stim_fb/posf.jpg,stim_03/f.jpg,stim_03/e.jpg,1,3,f,1,27,87,43,f,1,1.54941976376,03,02,60.0213544447,PLT_learning_3,A,2014_Mrz_03_1731,P15,
stim_fb/ques.jpg,stim_fb/negf.jpg,stim_fb/posf.jpg,stim_03/c.jpg,stim_03/d.jpg,2,2,j,1,28,88,35,f,0,1.28295175525,03,02,60.0213544447,PLT_learning_3,A,2014_Mrz_03_1731,P15,
stim_fb/ques.jpg,stim_fb/negf.jpg,stim_fb/posf.jpg,stim_03/e.jpg,stim_03/f.jpg,2,3,j,1,29,89,50,j,1,0.966427082501,03,02,60.0213544447,PLT_learning_3,A,2014_Mrz_03_1731,P15,
stim_fb/ques.jpg,stim_fb/negf.jpg,stim_fb/posf.jpg,stim_03/f.jpg,stim_03/e.jpg,1,3,f,1,30,90,45,f,1,0.999707433777,03,02,60.0213544447,PLT_learning_3,A,2014_Mrz_03_1731,P15,
stim_fb/ques.jpg,stim_fb/negf.jpg,stim_fb/posf.jpg,stim_03/c.jpg,stim_03/d.jpg,2,2,j,1,31,91,33,j,1,1.56622588402,03,02,60.0213544447,PLT_learning_3,A,2014_Mrz_03_1731,P15,
stim_fb/ques.jpg,stim_fb/negf.jpg,stim_fb/posf.jpg,stim_03/a.jpg,stim_03/b.jpg,2,1,j,1,32,92,13,f,0,1.31631019316,03,02,60.0213544447,PLT_learning_3,A,2014_Mrz_03_1731,P15,
stim_fb/ques.jpg,stim_fb/negf.jpg,stim_fb/posf.jpg,stim_03/c.jpg,stim_03/d.jpg,2,2,j,1,33,93,31,j,1,1.23298437455,03,02,60.0213544447,PLT_learning_3,A,2014_Mrz_03_1731,P15,
stim_fb/ques.jpg,stim_fb/posf.jpg,stim_fb/negf.jpg,stim_03/d.jpg,stim_03/c.jpg,1,2,f,1,34,94,27,j,0,1.14970474508,03,02,60.0213544447,PLT_learning_3,A,2014_Mrz_03_1731,P15,
stim_fb/ques.jpg,stim_fb/negf.jpg,stim_fb/posf.jpg,stim_03/e.jpg,stim_03/f.jpg,2,3,j,1,35,95,52,j,1,1.3162845723,03,02,60.0213544447,PLT_learning_3,A,2014_Mrz_03_1731,P15,
stim_fb/ques.jpg,stim_fb/negf.jpg,stim_fb/posf.jpg,stim_03/f.jpg,stim_03/e.jpg,1,3,f,1,36,96,42,j,0,1.56617222427,03,02,60.0213544447,PLT_learning_3,A,2014_Mrz_03_1731,P15,
stim_fb/ques.jpg,stim_fb/posf.jpg,stim_fb/negf.jpg,stim_03/e.jpg,stim_03/f.jpg,2,3,j,1,37,97,56,j,1,1.51625091841,03,02,60.0213544447,PLT_learning_3,A,2014_Mrz_03_1731,P15,
stim_fb/ques.jpg,stim_fb/posf.jpg,stim_fb/negf.jpg,stim_03/d.jpg,stim_03/c.jpg,1,2,f,1,38,98,29,j,0,1.34960436388,03,02,60.0213544447,PLT_learning_3,A,2014_Mrz_03_1731,P15,
stim_fb/ques.jpg,stim_fb/negf.jpg,stim_fb/posf.jpg,stim_03/c.jpg,stim_03/d.jpg,2,2,j,1,39,99,36,j,1,0.79978444072,03,02,60.0213544447,PLT_learning_3,A,2014_Mrz_03_1731,P15,
stim_fb/ques.jpg,stim_fb/negf.jpg,stim_fb/posf.jpg,stim_03/f.jpg,stim_03/e.jpg,1,3,f,1,40,100,40,j,0,1.28296792956,03,02,60.0213544447,PLT_learning_3,A,2014_Mrz_03_1731,P15,
stim_fb/ques.jpg,stim_fb/posf.jpg,stim_fb/negf.jpg,stim_03/a.jpg,stim_03/b.jpg,2,1,j,1,41,101,18,j,1,1.64949647897,03,02,60.0213544447,PLT_learning_3,A,2014_Mrz_03_1731,P15,
stim_fb/ques.jpg,stim_fb/negf.jpg,stim_fb/posf.jpg,stim_03/a.jpg,stim_03/b.jpg,2,1,j,1,42,102,10,j,1,1.04980435335,03,02,60.0213544447,PLT_learning_3,A,2014_Mrz_03_1731,P15,
stim_fb/ques.jpg,stim_fb/negf.jpg,stim_fb/posf.jpg,stim_03/a.jpg,stim_03/b.jpg,2,1,j,1,43,103,16,j,1,0.749737277163,03,02,60.0213544447,PLT_learning_3,A,2014_Mrz_03_1731,P15,
stim_fb/ques.jpg,stim_fb/negf.jpg,stim_fb/posf.jpg,stim_03/d.jpg,stim_03/c.jpg,1,2,f,1,44,104,22,j,0,1.24961455929,03,02,60.0213544447,PLT_learning_3,A,2014_Mrz_03_1731,P15,
stim_fb/ques.jpg,stim_fb/posf.jpg,stim_fb/negf.jpg,stim_03/a.jpg,stim_03/b.jpg,2,1,j,1,45,105,19,j,1,1.21630769393,03,02,60.0213544447,PLT_learning_3,A,2014_Mrz_03_1731,P15,
stim_fb/ques.jpg,stim_fb/negf.jpg,stim_fb/posf.jpg,stim_03/b.jpg,stim_03/a.jpg,1,1,f,1,46,106,4,f,1,1.33296385741,03,02,60.0213544447,PLT_learning_3,A,2014_Mrz_03_1731,P15,
stim_fb/ques.jpg,stim_fb/negf.jpg,stim_fb/posf.jpg,stim_03/d.jpg,stim_03/c.jpg,1,2,f,1,47,107,25,j,0,1.48290638115,03,02,60.0213544447,PLT_learning_3,A,2014_Mrz_03_1731,P15,
stim_fb/ques.jpg,stim_fb/negf.jpg,stim_fb/posf.jpg,stim_03/a.jpg,stim_03/b.jpg,2,1,j,1,48,108,14,None,0,,03,02,60.0213544447,PLT_learning_3,A,2014_Mrz_03_1731,P15,
stim_fb/ques.jpg,stim_fb/negf.jpg,stim_fb/posf.jpg,stim_03/d.jpg,stim_03/c.jpg,1,2,f,1,49,109,24,j,0,0.949715328456,03,02,60.0213544447,PLT_learning_3,A,2014_Mrz_03_1731,P15,
stim_fb/ques.jpg,stim_fb/negf.jpg,stim_fb/posf.jpg,stim_03/a.jpg,stim_03/b.jpg,2,1,j,1,50,110,12,j,1,1.11628335125,03,02,60.0213544447,PLT_learning_3,A,2014_Mrz_03_1731,P15,
stim_fb/ques.jpg,stim_fb/negf.jpg,stim_fb/posf.jpg,stim_03/b.jpg,stim_03/a.jpg,1,1,f,1,51,111,3,j,0,0.899746083112,03,02,60.0213544447,PLT_learning_3,A,2014_Mrz_03_1731,P15,
stim_fb/ques.jpg,stim_fb/negf.jpg,stim_fb/posf.jpg,stim_03/b.jpg,stim_03/a.jpg,1,1,f,1,52,112,7,j,0,1.33296009805,03,02,60.0213544447,PLT_learning_3,A,2014_Mrz_03_1731,P15,
stim_fb/ques.jpg,stim_fb/negf.jpg,stim_fb/posf.jpg,stim_03/b.jpg,stim_03/a.jpg,1,1,f,1,53,113,5,f,1,0.999691112098,03,02,60.0213544447,PLT_learning_3,A,2014_Mrz_03_1731,P15,
stim_fb/ques.jpg,stim_fb/negf.jpg,stim_fb/posf.jpg,stim_03/b.jpg,stim_03/a.jpg,1,1,f,1,54,114,1,f,1,0.766478588883,03,02,60.0213544447,PLT_learning_3,A,2014_Mrz_03_1731,P15,
stim_fb/ques.jpg,stim_fb/negf.jpg,stim_fb/posf.jpg,stim_03/b.jpg,stim_03/a.jpg,1,1,f,1,55,115,0,f,1,0.583173046818,03,02,60.0213544447,PLT_learning_3,A,2014_Mrz_03_1731,P15,
stim_fb/ques.jpg,stim_fb/posf.jpg,stim_fb/negf.jpg,stim_03/b.jpg,stim_03/a.jpg,1,1,f,1,56,116,8,f,1,0.649792518854,03,02,60.0213544447,PLT_learning_3,A,2014_Mrz_03_1731,P15,
stim_fb/ques.jpg,stim_fb/negf.jpg,stim_fb/posf.jpg,stim_03/e.jpg,stim_03/f.jpg,2,3,j,1,57,117,51,j,1,1.14963352757,03,02,60.0213544447,PLT_learning_3,A,2014_Mrz_03_1731,P15,
stim_fb/ques.jpg,stim_fb/posf.jpg,stim_fb/negf.jpg,stim_03/e.jpg,stim_03/f.jpg,2,3,j,1,58,118,58,j,1,1.09970040827,03,02,60.0213544447,PLT_learning_3,A,2014_Mrz_03_1731,P15,
stim_fb/ques.jpg,stim_fb/posf.jpg,stim_fb/negf.jpg,stim_03/c.jpg,stim_03/d.jpg,2,2,j,1,59,119,39,f,0,1.63286520252,03,02,60.0213544447,PLT_learning_3,A,2014_Mrz_03_1731,P15,
stim_fb/ques.jpg,stim_fb/posf.jpg,stim_fb/negf.jpg,stim_03/f.jpg,stim_03/e.jpg,1,3,f,2,0,120,47,f,1,1.36628034075,03,02,60.0213544447,PLT_learning_3,A,2014_Mrz_03_1731,P15,
stim_fb/ques.jpg,stim_fb/negf.jpg,stim_fb/posf.jpg,stim_03/c.jpg,stim_03/d.jpg,2,2,j,2,1,121,36,j,1,1.18295634469,03,02,60.0213544447,PLT_learning_3,A,2014_Mrz_03_1731,P15,
stim_fb/ques.jpg,stim_fb/posf.jpg,stim_fb/negf.jpg,stim_03/e.jpg,stim_03/f.jpg,2,3,j,2,2,122,59,j,1,1.34961038188,03,02,60.0213544447,PLT_learning_3,A,2014_Mrz_03_1731,P15,
stim_fb/ques.jpg,stim_fb/negf.jpg,stim_fb/posf.jpg,stim_03/d.jpg,stim_03/c.jpg,1,2,f,2,3,123,21,j,0,0.699832247878,03,02,60.0213544447,PLT_learning_3,A,2014_Mrz_03_1731,P15,
stim_fb/ques.jpg,stim_fb/negf.jpg,stim_fb/posf.jpg,stim_03/f.jpg,stim_03/e.jpg,1,3,f,2,4,124,42,j,0,0.833076497169,03,02,60.0213544447,PLT_learning_3,A,2014_Mrz_03_1731,P15,
stim_fb/ques.jpg,stim_fb/negf.jpg,stim_fb/posf.jpg,stim_03/a.jpg,stim_03/b.jpg,2,1,j,2,5,125,16,j,1,0.899750492101,03,02,60.0213544447,PLT_learning_3,A,2014_Mrz_03_1731,P15,
stim_fb/ques.jpg,stim_fb/posf.jpg,stim_fb/negf.jpg,stim_03/c.jpg,stim_03/d.jpg,2,2,j,2,6,126,38,j,1,0.583192388027,03,02,60.0213544447,PLT_learning_3,A,2014_Mrz_03_1731,P15,
stim_fb/ques.jpg,stim_fb/negf.jpg,stim_fb/posf.jpg,stim_03/e.jpg,stim_03/f.jpg,2,3,j,2,7,127,54,j,1,1.33295389057,03,02,60.0213544447,PLT_learning_3,A,2014_Mrz_03_1731,P15,
stim_fb/ques.jpg,stim_fb/posf.jpg,stim_fb/negf.jpg,stim_03/e.jpg,stim_03/f.jpg,2,3,j,2,8,128,57,j,1,0.599809469102,03,02,60.0213544447,PLT_learning_3,A,2014_Mrz_03_1731,P15,
stim_fb/ques.jpg,stim_fb/posf.jpg,stim_fb/negf.jpg,stim_03/d.jpg,stim_03/c.jpg,1,2,f,2,9,129,28,j,0,1.03303425689,03,02,60.0213544447,PLT_learning_3,A,2014_Mrz_03_1731,P15,
stim_fb/ques.jpg,stim_fb/negf.jpg,stim_fb/posf.jpg,stim_03/b.jpg,stim_03/a.jpg,1,1,f,2,10,130,3,f,1,1.21645616198,03,02,60.0213544447,PLT_learning_3,A,2014_Mrz_03_1731,P15,
stim_fb/ques.jpg,stim_fb/negf.jpg,stim_fb/posf.jpg,stim_03/b.jpg,stim_03/a.jpg,1,1,f,2,11,131,7,j,0,0.849786994084,03,02,60.0213544447,PLT_learning_3,A,2014_Mrz_03_1731,P15,
stim_fb/ques.jpg,stim_fb/negf.jpg,stim_fb/posf.jpg,stim_03/f.jpg,stim_03/e.jpg,1,3,f,2,12,132,41,f,1,0.799826061457,03,02,60.0213544447,PLT_learning_3,A,2014_Mrz_03_1731,P15,
stim_fb/ques.jpg,stim_fb/posf.jpg,stim_fb/negf.jpg,stim_03/f.jpg,stim_03/e.jpg,1,3,f,2,13,133,48,f,1,0.8498136405,03,02,60.0213544447,PLT_learning_3,A,2014_Mrz_03_1731,P15,
stim_fb/ques.jpg,stim_fb/negf.jpg,stim_fb/posf.jpg,stim_03/a.jpg,stim_03/b.jpg,2,1,j,2,14,134,11,j,1,0.616562025851,03,02,60.0213544447,PLT_learning_3,A,2014_Mrz_03_1731,P15,
stim_fb/ques.jpg,stim_fb/negf.jpg,stim_fb/posf.jpg,stim_03/e.jpg,stim_03/f.jpg,2,3,j,2,15,135,52,j,1,0.849771418261,03,02,60.0213544447,PLT_learning_3,A,2014_Mrz_03_1731,P15,
stim_fb/ques.jpg,stim_fb/negf.jpg,stim_fb/posf.jpg,stim_03/f.jpg,stim_03/e.jpg,1,3,f,2,16,136,45,f,1,1.0663673416,03,02,60.0213544447,PLT_learning_3,A,2014_Mrz_03_1731,P15,
stim_fb/ques.jpg,stim_fb/posf.jpg,stim_fb/negf.jpg,stim_03/b.jpg,stim_03/a.jpg,1,1,f,2,17,137,8,f,1,0.949791625628,03,02,60.0213544447,PLT_learning_3,A,2014_Mrz_03_1731,P15,
stim_fb/ques.jpg,stim_fb/negf.jpg,stim_fb/posf.jpg,stim_03/b.jpg,stim_03/a.jpg,1,1,f,2,18,138,6,f,1,0.733177792648,03,02,60.0213544447,PLT_learning_3,A,2014_Mrz_03_1731,P15,
stim_fb/ques.jpg,stim_fb/negf.jpg,stim_fb/posf.jpg,stim_03/e.jpg,stim_03/f.jpg,2,3,j,2,19,139,50,j,1,0.799810070601,03,02,60.0213544447,PLT_learning_3,A,2014_Mrz_03_1731,P15,
stim_fb/ques.jpg,stim_fb/negf.jpg,stim_fb/posf.jpg,stim_03/d.jpg,stim_03/c.jpg,1,2,f,2,20,140,25,j,0,1.44945546876,03,02,60.0213544447,PLT_learning_3,A,2014_Mrz_03_1731,P15,
stim_fb/ques.jpg,stim_fb/posf.jpg,stim_fb/negf.jpg,stim_03/e.jpg,stim_03/f.jpg,2,3,j,2,21,141,56,j,1,0.74981969158,03,02,60.0213544447,PLT_learning_3,A,2014_Mrz_03_1731,P15,
stim_fb/ques.jpg,stim_fb/negf.jpg,stim_fb/posf.jpg,stim_03/b.jpg,stim_03/a.jpg,1,1,f,2,22,142,1,f,1,0.883081378335,03,02,60.0213544447,PLT_learning_3,A,2014_Mrz_03_1731,P15,
stim_fb/ques.jpg,stim_fb/negf.jpg,stim_fb/posf.jpg,stim_03/f.jpg,stim_03/e.jpg,1,3,f,2,23,143,44,f,1,0.733147016939,03,02,60.0213544447,PLT_learning_3,A,2014_Mrz_03_1731,P15,
stim_fb/ques.jpg,stim_fb/negf.jpg,stim_fb/posf.jpg,stim_03/f.jpg,stim_03/e.jpg,1,3,f,2,24,144,40,f,1,0.766474035534,03,02,60.0213544447,PLT_learning_3,A,2014_Mrz_03_1731,P15,
stim_fb/ques.jpg,stim_fb/posf.jpg,stim_fb/negf.jpg,stim_03/f.jpg,stim_03/e.jpg,1,3,f,2,25,145,46,f,1,0.566488670011,03,02,60.0213544447,PLT_learning_3,A,2014_Mrz_03_1731,P15,
stim_fb/ques.jpg,stim_fb/posf.jpg,stim_fb/negf.jpg,stim_03/d.jpg,stim_03/c.jpg,1,2,f,2,26,146,27,f,1,1.349595185,03,02,60.0213544447,PLT_learning_3,A,2014_Mrz_03_1731,P15,
stim_fb/ques.jpg,stim_fb/posf.jpg,stim_fb/negf.jpg,stim_03/a.jpg,stim_03/b.jpg,2,1,j,2,27,147,19,j,1,1.19964913948,03,02,60.0213544447,PLT_learning_3,A,2014_Mrz_03_1731,P15,
stim_fb/ques.jpg,stim_fb/posf.jpg,stim_fb/negf.jpg,stim_03/c.jpg,stim_03/d.jpg,2,2,j,2,28,148,39,j,1,1.38292246224,03,02,60.0213544447,PLT_learning_3,A,2014_Mrz_03_1731,P15,
stim_fb/ques.jpg,stim_fb/negf.jpg,stim_fb/posf.jpg,stim_03/b.jpg,stim_03/a.jpg,1,1,f,2,29,149,4,f,1,1.04970214059,03,02,60.0213544447,PLT_learning_3,A,2014_Mrz_03_1731,P15,
stim_fb/ques.jpg,stim_fb/posf.jpg,stim_fb/negf.jpg,stim_03/c.jpg,stim_03/d.jpg,2,2,j,2,30,150,37,j,1,1.33299164367,03,02,60.0213544447,PLT_learning_3,A,2014_Mrz_03_1731,P15,
stim_fb/ques.jpg,stim_fb/negf.jpg,stim_fb/posf.jpg,stim_03/a.jpg,stim_03/b.jpg,2,1,j,2,31,151,14,j,1,1.1163520575,03,02,60.0213544447,PLT_learning_3,A,2014_Mrz_03_1731,P15,
stim_fb/ques.jpg,stim_fb/posf.jpg,stim_fb/negf.jpg,stim_03/a.jpg,stim_03/b.jpg,2,1,j,2,32,152,18,j,1,0.93306340253,03,02,60.0213544447,PLT_learning_3,A,2014_Mrz_03_1731,P15,
stim_fb/ques.jpg,stim_fb/negf.jpg,stim_fb/posf.jpg,stim_03/f.jpg,stim_03/e.jpg,1,3,f,2,33,153,43,f,1,0.966412571333,03,02,60.0213544447,PLT_learning_3,A,2014_Mrz_03_1731,P15,
stim_fb/ques.jpg,stim_fb/posf.jpg,stim_fb/negf.jpg,stim_03/d.jpg,stim_03/c.jpg,1,2,f,2,34,154,29,f,1,1.41622453064,03,02,60.0213544447,PLT_learning_3,A,2014_Mrz_03_1731,P15,
stim_fb/ques.jpg,stim_fb/negf.jpg,stim_fb/posf.jpg,stim_03/e.jpg,stim_03/f.jpg,2,3,j,2,35,155,51,j,1,0.983091546681,03,02,60.0213544447,PLT_learning_3,A,2014_Mrz_03_1731,P15,
stim_fb/ques.jpg,stim_fb/negf.jpg,stim_fb/posf.jpg,stim_03/d.jpg,stim_03/c.jpg,1,2,f,2,36,156,20,j,0,0.799777920467,03,02,60.0213544447,PLT_learning_3,A,2014_Mrz_03_1731,P15,
stim_fb/ques.jpg,stim_fb/negf.jpg,stim_fb/posf.jpg,stim_03/a.jpg,stim_03/b.jpg,2,1,j,2,37,157,15,j,1,1.13306068075,03,02,60.0213544447,PLT_learning_3,A,2014_Mrz_03_1731,P15,
stim_fb/ques.jpg,stim_fb/negf.jpg,stim_fb/posf.jpg,stim_03/c.jpg,stim_03/d.jpg,2,2,j,2,38,158,30,f,0,0.983076040031,03,02,60.0213544447,PLT_learning_3,A,2014_Mrz_03_1731,P15,
stim_fb/ques.jpg,stim_fb/negf.jpg,stim_fb/posf.jpg,stim_03/c.jpg,stim_03/d.jpg,2,2,j,2,39,159,34,f,0,0.749806248074,03,02,60.0213544447,PLT_learning_3,A,2014_Mrz_03_1731,P15,
stim_fb/ques.jpg,stim_fb/negf.jpg,stim_fb/posf.jpg,stim_03/d.jpg,stim_03/c.jpg,1,2,f,2,40,160,22,j,0,1.21631543823,03,02,60.0213544447,PLT_learning_3,A,2014_Mrz_03_1731,P15,
stim_fb/ques.jpg,stim_fb/negf.jpg,stim_fb/posf.jpg,stim_03/d.jpg,stim_03/c.jpg,1,2,f,2,41,161,23,f,1,0.883093185765,03,02,60.0213544447,PLT_learning_3,A,2014_Mrz_03_1731,P15,
stim_fb/ques.jpg,stim_fb/negf.jpg,stim_fb/posf.jpg,stim_03/c.jpg,stim_03/d.jpg,2,2,j,2,42,162,35,j,1,0.683145374847,03,02,60.0213544447,PLT_learning_3,A,2014_Mrz_03_1731,P15,
stim_fb/ques.jpg,stim_fb/negf.jpg,stim_fb/posf.jpg,stim_03/d.jpg,stim_03/c.jpg,1,2,f,2,43,163,24,f,1,0.599866855136,03,02,60.0213544447,PLT_learning_3,A,2014_Mrz_03_1731,P15,
stim_fb/ques.jpg,stim_fb/negf.jpg,stim_fb/posf.jpg,stim_03/a.jpg,stim_03/b.jpg,2,1,j,2,44,164,12,j,1,0.983062710806,03,02,60.0213544447,PLT_learning_3,A,2014_Mrz_03_1731,P15,
stim_fb/ques.jpg,stim_fb/negf.jpg,stim_fb/posf.jpg,stim_03/b.jpg,stim_03/a.jpg,1,1,f,2,45,165,0,f,1,1.09966627018,03,02,60.0213544447,PLT_learning_3,A,2014_Mrz_03_1731,P15,
stim_fb/ques.jpg,stim_fb/posf.jpg,stim_fb/negf.jpg,stim_03/f.jpg,stim_03/e.jpg,1,3,f,2,46,166,49,f,1,0.899709220232,03,02,60.0213544447,PLT_learning_3,A,2014_Mrz_03_1731,P15,
stim_fb/ques.jpg,stim_fb/negf.jpg,stim_fb/posf.jpg,stim_03/c.jpg,stim_03/d.jpg,2,2,j,2,47,167,31,j,1,1.16633056593,03,02,60.0213544447,PLT_learning_3,A,2014_Mrz_03_1731,P15,
stim_fb/ques.jpg,stim_fb/negf.jpg,stim_fb/posf.jpg,stim_03/b.jpg,stim_03/a.jpg,1,1,f,2,48,168,5,f,1,0.699762898023,03,02,60.0213544447,PLT_learning_3,A,2014_Mrz_03_1731,P15,
stim_fb/ques.jpg,stim_fb/negf.jpg,stim_fb/posf.jpg,stim_03/c.jpg,stim_03/d.jpg,2,2,j,2,49,169,32,j,1,0.533228592267,03,02,60.0213544447,PLT_learning_3,A,2014_Mrz_03_1731,P15,
stim_fb/ques.jpg,stim_fb/negf.jpg,stim_fb/posf.jpg,stim_03/b.jpg,stim_03/a.jpg,1,1,f,2,50,170,2,f,1,0.733126686266,03,02,60.0213544447,PLT_learning_3,A,2014_Mrz_03_1731,P15,
stim_fb/ques.jpg,stim_fb/negf.jpg,stim_fb/posf.jpg,stim_03/e.jpg,stim_03/f.jpg,2,3,j,2,51,171,53,j,1,1.13287736784,03,02,60.0213544447,PLT_learning_3,A,2014_Mrz_03_1731,P15,
stim_fb/ques.jpg,stim_fb/negf.jpg,stim_fb/posf.jpg,stim_03/d.jpg,stim_03/c.jpg,1,2,f,2,52,172,26,f,1,1.24966068526,03,02,60.0213544447,PLT_learning_3,A,2014_Mrz_03_1731,P15,
stim_fb/ques.jpg,stim_fb/negf.jpg,stim_fb/posf.jpg,stim_03/c.jpg,stim_03/d.jpg,2,2,j,2,53,173,33,j,1,0.549883104639,03,02,60.0213544447,PLT_learning_3,A,2014_Mrz_03_1731,P15,
stim_fb/ques.jpg,stim_fb/negf.jpg,stim_fb/posf.jpg,stim_03/e.jpg,stim_03/f.jpg,2,3,j,2,54,174,55,j,1,0.799769791205,03,02,60.0213544447,PLT_learning_3,A,2014_Mrz_03_1731,P15,
stim_fb/ques.jpg,stim_fb/posf.jpg,stim_fb/negf.jpg,stim_03/e.jpg,stim_03/f.jpg,2,3,j,2,55,175,58,j,1,0.783087056489,03,02,60.0213544447,PLT_learning_3,A,2014_Mrz_03_1731,P15,
stim_fb/ques.jpg,stim_fb/posf.jpg,stim_fb/negf.jpg,stim_03/b.jpg,stim_03/a.jpg,1,1,f,2,56,176,9,f,1,0.699758119112,03,02,60.0213544447,PLT_learning_3,A,2014_Mrz_03_1731,P15,
stim_fb/ques.jpg,stim_fb/negf.jpg,stim_fb/posf.jpg,stim_03/a.jpg,stim_03/b.jpg,2,1,j,2,57,177,17,j,1,0.833055342442,03,02,60.0213544447,PLT_learning_3,A,2014_Mrz_03_1731,P15,
stim_fb/ques.jpg,stim_fb/negf.jpg,stim_fb/posf.jpg,stim_03/a.jpg,stim_03/b.jpg,2,1,j,2,58,178,10,j,1,0.816489169254,03,02,60.0213544447,PLT_learning_3,A,2014_Mrz_03_1731,P15,
stim_fb/ques.jpg,stim_fb/negf.jpg,stim_fb/posf.jpg,stim_03/a.jpg,stim_03/b.jpg,2,1,j,2,59,179,13,j,1,0.816455280787,03,02,60.0213544447,PLT_learning_3,A,2014_Mrz_03_1731,P15,
stim_fb/ques.jpg,stim_fb/negf.jpg,stim_fb/posf.jpg,stim_03/b.jpg,stim_03/a.jpg,1,1,f,3,0,180,4,f,1,0.983055062745,03,02,60.0213544447,PLT_learning_3,A,2014_Mrz_03_1731,P15,
stim_fb/ques.jpg,stim_fb/negf.jpg,stim_fb/posf.jpg,stim_03/b.jpg,stim_03/a.jpg,1,1,f,3,1,181,3,f,1,0.783131368937,03,02,60.0213544447,PLT_learning_3,A,2014_Mrz_03_1731,P15,
stim_fb/ques.jpg,stim_fb/negf.jpg,stim_fb/posf.jpg,stim_03/e.jpg,stim_03/f.jpg,2,3,j,3,2,182,55,j,1,1.08302823287,03,02,60.0213544447,PLT_learning_3,A,2014_Mrz_03_1731,P15,
stim_fb/ques.jpg,stim_fb/negf.jpg,stim_fb/posf.jpg,stim_03/e.jpg,stim_03/f.jpg,2,3,j,3,3,183,50,j,1,0.899783938466,03,02,60.0213544447,PLT_learning_3,A,2014_Mrz_03_1731,P15,
stim_fb/ques.jpg,stim_fb/negf.jpg,stim_fb/posf.jpg,stim_03/c.jpg,stim_03/d.jpg,2,2,j,3,4,184,35,j,1,1.19965947925,03,02,60.0213544447,PLT_learning_3,A,2014_Mrz_03_1731,P15,
stim_fb/ques.jpg,stim_fb/negf.jpg,stim_fb/posf.jpg,stim_03/a.jpg,stim_03/b.jpg,2,1,j,3,5,185,14,j,1,0.816455479282,03,02,60.0213544447,PLT_learning_3,A,2014_Mrz_03_1731,P15,
stim_fb/ques.jpg,stim_fb/posf.jpg,stim_fb/negf.jpg,stim_03/d.jpg,stim_03/c.jpg,1,2,f,3,6,186,27,f,1,0.699863357419,03,02,60.0213544447,PLT_learning_3,A,2014_Mrz_03_1731,P15,
stim_fb/ques.jpg,stim_fb/negf.jpg,stim_fb/posf.jpg,stim_03/a.jpg,stim_03/b.jpg,2,1,j,3,7,187,10,j,1,1.04971843219,03,02,60.0213544447,PLT_learning_3,A,2014_Mrz_03_1731,P15,
stim_fb/ques.jpg,stim_fb/negf.jpg,stim_fb/posf.jpg,stim_03/c.jpg,stim_03/d.jpg,2,2,j,3,8,188,31,j,1,0.683155961233,03,02,60.0213544447,PLT_learning_3,A,2014_Mrz_03_1731,P15,
stim_fb/ques.jpg,stim_fb/posf.jpg,stim_fb/negf.jpg,stim_03/e.jpg,stim_03/f.jpg,2,3,j,3,9,189,58,j,1,0.933053116894,03,02,60.0213544447,PLT_learning_3,A,2014_Mrz_03_1731,P15,
stim_fb/ques.jpg,stim_fb/negf.jpg,stim_fb/posf.jpg,stim_03/c.jpg,stim_03/d.jpg,2,2,j,3,10,190,30,j,1,1.18299216698,03,02,60.0213544447,PLT_learning_3,A,2014_Mrz_03_1731,P15,
stim_fb/ques.jpg,stim_fb/negf.jpg,stim_fb/posf.jpg,stim_03/f.jpg,stim_03/e.jpg,1,3,f,3,11,191,41,f,1,1.04968711213,03,02,60.0213544447,PLT_learning_3,A,2014_Mrz_03_1731,P15,
stim_fb/ques.jpg,stim_fb/negf.jpg,stim_fb/posf.jpg,stim_03/d.jpg,stim_03/c.jpg,1,2,f,3,12,192,21,f,1,1.13302256374,03,02,60.0213544447,PLT_learning_3,A,2014_Mrz_03_1731,P15,
stim_fb/ques.jpg,stim_fb/negf.jpg,stim_fb/posf.jpg,stim_03/f.jpg,stim_03/e.jpg,1,3,f,3,13,193,45,f,1,1.31629154969,03,02,60.0213544447,PLT_learning_3,A,2014_Mrz_03_1731,P15,
stim_fb/ques.jpg,stim_fb/posf.jpg,stim_fb/negf.jpg,stim_03/d.jpg,stim_03/c.jpg,1,2,f,3,14,194,28,f,1,0.833113672828,03,02,60.0213544447,PLT_learning_3,A,2014_Mrz_03_1731,P15,
stim_fb/ques.jpg,stim_fb/posf.jpg,stim_fb/negf.jpg,stim_03/e.jpg,stim_03/f.jpg,2,3,j,3,15,195,56,j,1,0.666546173337,03,02,60.0213544447,PLT_learning_3,A,2014_Mrz_03_1731,P15,
stim_fb/ques.jpg,stim_fb/negf.jpg,stim_fb/posf.jpg,stim_03/d.jpg,stim_03/c.jpg,1,2,f,3,16,196,26,f,1,0.58319219254,03,02,60.0213544447,PLT_learning_3,A,2014_Mrz_03_1731,P15,
stim_fb/ques.jpg,stim_fb/negf.jpg,stim_fb/posf.jpg,stim_03/a.jpg,stim_03/b.jpg,2,1,j,3,17,197,12,j,1,0.699800001503,03,02,60.0213544447,PLT_learning_3,A,2014_Mrz_03_1731,P15,
stim_fb/ques.jpg,stim_fb/negf.jpg,stim_fb/posf.jpg,stim_03/d.jpg,stim_03/c.jpg,1,2,f,3,18,198,23,f,1,0.733127651671,03,02,60.0213544447,PLT_learning_3,A,2014_Mrz_03_1731,P15,
stim_fb/ques.jpg,stim_fb/negf.jpg,stim_fb/posf.jpg,stim_03/b.jpg,stim_03/a.jpg,1,1,f,3,19,199,0,f,1,0.699829303539,03,02,60.0213544447,PLT_learning_3,A,2014_Mrz_03_1731,P15,
stim_fb/ques.jpg,stim_fb/posf.jpg,stim_fb/negf.jpg,stim_03/c.jpg,stim_03/d.jpg,2,2,j,3,20,200,38,j,1,0.549858085276,03,02,60.0213544447,PLT_learning_3,A,2014_Mrz_03_1731,P15,
stim_fb/ques.jpg,stim_fb/posf.jpg,stim_fb/negf.jpg,stim_03/f.jpg,stim_03/e.jpg,1,3,f,3,21,201,49,f,1,0.799826323111,03,02,60.0213544447,PLT_learning_3,A,2014_Mrz_03_1731,P15,
stim_fb/ques.jpg,stim_fb/negf.jpg,stim_fb/posf.jpg,stim_03/c.jpg,stim_03/d.jpg,2,2,j,3,22,202,32,j,1,0.549812329231,03,02,60.0213544447,PLT_learning_3,A,2014_Mrz_03_1731,P15,
stim_fb/ques.jpg,stim_fb/negf.jpg,stim_fb/posf.jpg,stim_03/b.jpg,stim_03/a.jpg,1,1,f,3,23,203,7,f,1,0.999675671612,03,02,60.0213544447,PLT_learning_3,A,2014_Mrz_03_1731,P15,
stim_fb/ques.jpg,stim_fb/posf.jpg,stim_fb/negf.jpg,stim_03/a.jpg,stim_03/b.jpg,2,1,j,3,24,204,18,j,1,0.549761249915,03,02,60.0213544447,PLT_learning_3,A,2014_Mrz_03_1731,P15,
stim_fb/ques.jpg,stim_fb/negf.jpg,stim_fb/posf.jpg,stim_03/d.jpg,stim_03/c.jpg,1,2,f,3,25,205,20,f,1,0.549882972309,03,02,60.0213544447,PLT_learning_3,A,2014_Mrz_03_1731,P15,
stim_fb/ques.jpg,stim_fb/negf.jpg,stim_fb/posf.jpg,stim_03/f.jpg,stim_03/e.jpg,1,3,f,3,26,206,44,f,1,0.866395112818,03,02,60.0213544447,PLT_learning_3,A,2014_Mrz_03_1731,P15,
stim_fb/ques.jpg,stim_fb/posf.jpg,stim_fb/negf.jpg,stim_03/c.jpg,stim_03/d.jpg,2,2,j,3,27,207,37,j,1,0.64982787197,03,02,60.0213544447,PLT_learning_3,A,2014_Mrz_03_1731,P15,
stim_fb/ques.jpg,stim_fb/negf.jpg,stim_fb/posf.jpg,stim_03/b.jpg,stim_03/a.jpg,1,1,f,3,28,208,2,f,1,1.14967338892,03,02,60.0213544447,PLT_learning_3,A,2014_Mrz_03_1731,P15,
stim_fb/ques.jpg,stim_fb/negf.jpg,stim_fb/posf.jpg,stim_03/e.jpg,stim_03/f.jpg,2,3,j,3,29,209,54,j,1,1.46619608274,03,02,60.0213544447,PLT_learning_3,A,2014_Mrz_03_1731,P15,
stim_fb/ques.jpg,stim_fb/negf.jpg,stim_fb/posf.jpg,stim_03/a.jpg,stim_03/b.jpg,2,1,j,3,30,210,11,j,1,1.14971733446,03,02,60.0213544447,PLT_learning_3,A,2014_Mrz_03_1731,P15,
stim_fb/ques.jpg,stim_fb/posf.jpg,stim_fb/negf.jpg,stim_03/b.jpg,stim_03/a.jpg,1,1,f,3,31,211,9,f,1,0.883126144916,03,02,60.0213544447,PLT_learning_3,A,2014_Mrz_03_1731,P15,
stim_fb/ques.jpg,stim_fb/posf.jpg,stim_fb/negf.jpg,stim_03/f.jpg,stim_03/e.jpg,1,3,f,3,32,212,47,f,1,0.849765788227,03,02,60.0213544447,PLT_learning_3,A,2014_Mrz_03_1731,P15,
stim_fb/ques.jpg,stim_fb/negf.jpg,stim_fb/posf.jpg,stim_03/a.jpg,stim_03/b.jpg,2,1,j,3,33,213,13,j,1,0.799785132444,03,02,60.0213544447,PLT_learning_3,A,2014_Mrz_03_1731,P15,
stim_fb/ques.jpg,stim_fb/negf.jpg,stim_fb/posf.jpg,stim_03/d.jpg,stim_03/c.jpg,1,2,f,3,34,214,22,f,1,0.849772323518,03,02,60.0213544447,PLT_learning_3,A,2014_Mrz_03_1731,P15,
stim_fb/ques.jpg,stim_fb/negf.jpg,stim_fb/posf.jpg,stim_03/f.jpg,stim_03/e.jpg,1,3,f,3,35,215,42,f,1,1.26630718867,03,02,60.0213544447,PLT_learning_3,A,2014_Mrz_03_1731,P15,
stim_fb/ques.jpg,stim_fb/negf.jpg,stim_fb/posf.jpg,stim_03/c.jpg,stim_03/d.jpg,2,2,j,3,36,216,36,j,1,0.649834632823,03,02,60.0213544447,PLT_learning_3,A,2014_Mrz_03_1731,P15,
stim_fb/ques.jpg,stim_fb/negf.jpg,stim_fb/posf.jpg,stim_03/f.jpg,stim_03/e.jpg,1,3,f,3,37,217,43,f,1,0.749746871075,03,02,60.0213544447,PLT_learning_3,A,2014_Mrz_03_1731,P15,
stim_fb/ques.jpg,stim_fb/negf.jpg,stim_fb/posf.jpg,stim_03/a.jpg,stim_03/b.jpg,2,1,j,3,38,218,17,j,1,0.966410111203,03,02,60.0213544447,PLT_learning_3,A,2014_Mrz_03_1731,P15,
stim_fb/ques.jpg,stim_fb/negf.jpg,stim_fb/posf.jpg,stim_03/b.jpg,stim_03/a.jpg,1,1,f,3,39,219,6,f,1,0.999712910429,03,02,60.0213544447,PLT_learning_3,A,2014_Mrz_03_1731,P15,
stim_fb/ques.jpg,stim_fb/negf.jpg,stim_fb/posf.jpg,stim_03/d.jpg,stim_03/c.jpg,1,2,f,3,40,220,24,f,1,1.04976913256,03,02,60.0213544447,PLT_learning_3,A,2014_Mrz_03_1731,P15,
stim_fb/ques.jpg,stim_fb/negf.jpg,stim_fb/posf.jpg,stim_03/b.jpg,stim_03/a.jpg,1,1,f,3,41,221,5,f,1,0.949770473906,03,02,60.0213544447,PLT_learning_3,A,2014_Mrz_03_1731,P15,
stim_fb/ques.jpg,stim_fb/negf.jpg,stim_fb/posf.jpg,stim_03/e.jpg,stim_03/f.jpg,2,3,j,3,42,222,52,j,1,1.08303828994,03,02,60.0213544447,PLT_learning_3,A,2014_Mrz_03_1731,P15,
stim_fb/ques.jpg,stim_fb/posf.jpg,stim_fb/negf.jpg,stim_03/e.jpg,stim_03/f.jpg,2,3,j,3,43,223,59,j,1,0.749798257155,03,02,60.0213544447,PLT_learning_3,A,2014_Mrz_03_1731,P15,
stim_fb/ques.jpg,stim_fb/negf.jpg,stim_fb/posf.jpg,stim_03/c.jpg,stim_03/d.jpg,2,2,j,3,44,224,34,j,1,0.799793523358,03,02,60.0213544447,PLT_learning_3,A,2014_Mrz_03_1731,P15,
stim_fb/ques.jpg,stim_fb/posf.jpg,stim_fb/negf.jpg,stim_03/a.jpg,stim_03/b.jpg,2,1,j,3,45,225,19,j,1,0.749800199997,03,02,60.0213544447,PLT_learning_3,A,2014_Mrz_03_1731,P15,
stim_fb/ques.jpg,stim_fb/negf.jpg,stim_fb/posf.jpg,stim_03/a.jpg,stim_03/b.jpg,2,1,j,3,46,226,15,j,1,0.533228363698,03,02,60.0213544447,PLT_learning_3,A,2014_Mrz_03_1731,P15,
stim_fb/ques.jpg,stim_fb/posf.jpg,stim_fb/negf.jpg,stim_03/d.jpg,stim_03/c.jpg,1,2,f,3,47,227,29,f,1,0.816291288036,03,02,60.0213544447,PLT_learning_3,A,2014_Mrz_03_1731,P15,
stim_fb/ques.jpg,stim_fb/posf.jpg,stim_fb/negf.jpg,stim_03/f.jpg,stim_03/e.jpg,1,3,f,3,48,228,46,f,1,1.01637418666,03,02,60.0213544447,PLT_learning_3,A,2014_Mrz_03_1731,P15,
stim_fb/ques.jpg,stim_fb/negf.jpg,stim_fb/posf.jpg,stim_03/c.jpg,stim_03/d.jpg,2,2,j,3,49,229,33,j,1,1.23297605281,03,02,60.0213544447,PLT_learning_3,A,2014_Mrz_03_1731,P15,
stim_fb/ques.jpg,stim_fb/posf.jpg,stim_fb/negf.jpg,stim_03/b.jpg,stim_03/a.jpg,1,1,f,3,50,230,8,f,1,0.833074686658,03,02,60.0213544447,PLT_learning_3,A,2014_Mrz_03_1731,P15,
stim_fb/ques.jpg,stim_fb/posf.jpg,stim_fb/negf.jpg,stim_03/e.jpg,stim_03/f.jpg,2,3,j,3,51,231,57,j,1,1.18304696055,03,02,60.0213544447,PLT_learning_3,A,2014_Mrz_03_1731,P15,
stim_fb/ques.jpg,stim_fb/negf.jpg,stim_fb/posf.jpg,stim_03/a.jpg,stim_03/b.jpg,2,1,j,3,52,232,16,j,1,1.29964548236,03,02,60.0213544447,PLT_learning_3,A,2014_Mrz_03_1731,P15,
stim_fb/ques.jpg,stim_fb/posf.jpg,stim_fb/negf.jpg,stim_03/f.jpg,stim_03/e.jpg,1,3,f,3,53,233,48,f,1,1.3162389576,03,02,60.0213544447,PLT_learning_3,A,2014_Mrz_03_1731,P15,
stim_fb/ques.jpg,stim_fb/posf.jpg,stim_fb/negf.jpg,stim_03/c.jpg,stim_03/d.jpg,2,2,j,3,54,234,39,j,1,1.38295404997,03,02,60.0213544447,PLT_learning_3,A,2014_Mrz_03_1731,P15,
stim_fb/ques.jpg,stim_fb/negf.jpg,stim_fb/posf.jpg,stim_03/e.jpg,stim_03/f.jpg,2,3,j,3,55,235,53,j,1,1.13297565883,03,02,60.0213544447,PLT_learning_3,A,2014_Mrz_03_1731,P15,
stim_fb/ques.jpg,stim_fb/negf.jpg,stim_fb/posf.jpg,stim_03/f.jpg,stim_03/e.jpg,1,3,f,3,56,236,40,j,0,1.38293013436,03,02,60.0213544447,PLT_learning_3,A,2014_Mrz_03_1731,P15,
stim_fb/ques.jpg,stim_fb/negf.jpg,stim_fb/posf.jpg,stim_03/d.jpg,stim_03/c.jpg,1,2,f,3,57,237,25,None,0,,03,02,60.0213544447,PLT_learning_3,A,2014_Mrz_03_1731,P15,
stim_fb/ques.jpg,stim_fb/negf.jpg,stim_fb/posf.jpg,stim_03/b.jpg,stim_03/a.jpg,1,1,f,3,58,238,1,f,1,0.799785866271,03,02,60.0213544447,PLT_learning_3,A,2014_Mrz_03_1731,P15,
stim_fb/ques.jpg,stim_fb/negf.jpg,stim_fb/posf.jpg,stim_03/e.jpg,stim_03/f.jpg,2,3,j,3,59,239,51,j,1,0.999740320751,03,02,60.0213544447,PLT_learning_3,A,2014_Mrz_03_1731,P15,
stim_fb/ques.jpg,stim_fb/negf.jpg,stim_fb/posf.jpg,stim_03/c.jpg,stim_03/d.jpg,2,2,j,4,0,240,34,j,1,0.983055727402,03,02,60.0213544447,PLT_learning_3,A,2014_Mrz_03_1731,P15,
stim_fb/ques.jpg,stim_fb/negf.jpg,stim_fb/posf.jpg,stim_03/d.jpg,stim_03/c.jpg,1,2,f,4,1,241,20,f,1,0.866432646371,03,02,60.0213544447,PLT_learning_3,A,2014_Mrz_03_1731,P15,
stim_fb/ques.jpg,stim_fb/negf.jpg,stim_fb/posf.jpg,stim_03/b.jpg,stim_03/a.jpg,1,1,f,4,2,242,4,f,1,1.11630297216,03,02,60.0213544447,PLT_learning_3,A,2014_Mrz_03_1731,P15,
stim_fb/ques.jpg,stim_fb/negf.jpg,stim_fb/posf.jpg,stim_03/a.jpg,stim_03/b.jpg,2,1,j,4,3,243,12,j,1,0.86642389155,03,02,60.0213544447,PLT_learning_3,A,2014_Mrz_03_1731,P15,
stim_fb/ques.jpg,stim_fb/negf.jpg,stim_fb/posf.jpg,stim_03/d.jpg,stim_03/c.jpg,1,2,f,4,4,244,24,f,1,0.799780100902,03,02,60.0213544447,PLT_learning_3,A,2014_Mrz_03_1731,P15,
stim_fb/ques.jpg,stim_fb/negf.jpg,stim_fb/posf.jpg,stim_03/c.jpg,stim_03/d.jpg,2,2,j,4,5,245,33,f,0,0.883134114782,03,02,60.0213544447,PLT_learning_3,A,2014_Mrz_03_1731,P15,
stim_fb/ques.jpg,stim_fb/negf.jpg,stim_fb/posf.jpg,stim_03/f.jpg,stim_03/e.jpg,1,3,f,4,6,246,45,f,1,0.866443804183,03,02,60.0213544447,PLT_learning_3,A,2014_Mrz_03_1731,P15,
stim_fb/ques.jpg,stim_fb/posf.jpg,stim_fb/negf.jpg,stim_03/c.jpg,stim_03/d.jpg,2,2,j,4,7,247,38,j,1,0.683121471267,03,02,60.0213544447,PLT_learning_3,A,2014_Mrz_03_1731,P15,
stim_fb/ques.jpg,stim_fb/negf.jpg,stim_fb/posf.jpg,stim_03/a.jpg,stim_03/b.jpg,2,1,j,4,8,248,10,j,1,0.933046112434,03,02,60.0213544447,PLT_learning_3,A,2014_Mrz_03_1731,P15,
stim_fb/ques.jpg,stim_fb/negf.jpg,stim_fb/posf.jpg,stim_03/c.jpg,stim_03/d.jpg,2,2,j,4,9,249,31,j,1,0.816438300464,03,02,60.0213544447,PLT_learning_3,A,2014_Mrz_03_1731,P15,
stim_fb/ques.jpg,stim_fb/negf.jpg,stim_fb/posf.jpg,stim_03/d.jpg,stim_03/c.jpg,1,2,f,4,10,250,26,f,1,0.583244562071,03,02,60.0213544447,PLT_learning_3,A,2014_Mrz_03_1731,P15,
stim_fb/ques.jpg,stim_fb/negf.jpg,stim_fb/posf.jpg,stim_03/e.jpg,stim_03/f.jpg,2,3,j,4,11,251,53,j,1,0.849804326284,03,02,60.0213544447,PLT_learning_3,A,2014_Mrz_03_1731,P15,
stim_fb/ques.jpg,stim_fb/posf.jpg,stim_fb/negf.jpg,stim_03/e.jpg,stim_03/f.jpg,2,3,j,4,12,252,57,j,1,0.733148286103,03,02,60.0213544447,PLT_learning_3,A,2014_Mrz_03_1731,P15,
stim_fb/ques.jpg,stim_fb/posf.jpg,stim_fb/negf.jpg,stim_03/d.jpg,stim_03/c.jpg,1,2,f,4,13,253,27,f,1,1.13302318629,03,02,60.0213544447,PLT_learning_3,A,2014_Mrz_03_1731,P15,
stim_fb/ques.jpg,stim_fb/negf.jpg,stim_fb/posf.jpg,stim_03/a.jpg,stim_03/b.jpg,2,1,j,4,14,254,13,j,1,0.583208396929,03,02,60.0213544447,PLT_learning_3,A,2014_Mrz_03_1731,P15,
stim_fb/ques.jpg,stim_fb/posf.jpg,stim_fb/negf.jpg,stim_03/f.jpg,stim_03/e.jpg,1,3,f,4,15,255,47,f,1,0.766469782935,03,02,60.0213544447,PLT_learning_3,A,2014_Mrz_03_1731,P15,
stim_fb/ques.jpg,stim_fb/negf.jpg,stim_fb/posf.jpg,stim_03/f.jpg,stim_03/e.jpg,1,3,f,4,16,256,43,j,0,0.666541773369,03,02,60.0213544447,PLT_learning_3,A,2014_Mrz_03_1731,P15,
stim_fb/ques.jpg,stim_fb/posf.jpg,stim_fb/negf.jpg,stim_03/c.jpg,stim_03/d.jpg,2,2,j,4,17,257,39,j,1,0.766466399502,03,02,60.0213544447,PLT_learning_3,A,2014_Mrz_03_1731,P15,
stim_fb/ques.jpg,stim_fb/posf.jpg,stim_fb/negf.jpg,stim_03/b.jpg,stim_03/a.jpg,1,1,f,4,18,258,8,f,1,0.783127296787,03,02,60.0213544447,PLT_learning_3,A,2014_Mrz_03_1731,P15,
stim_fb/ques.jpg,stim_fb/posf.jpg,stim_fb/negf.jpg,stim_03/c.jpg,stim_03/d.jpg,2,2,j,4,19,259,37,j,1,0.549842629754,03,02,60.0213544447,PLT_learning_3,A,2014_Mrz_03_1731,P15,
stim_fb/ques.jpg,stim_fb/posf.jpg,stim_fb/negf.jpg,stim_03/a.jpg,stim_03/b.jpg,2,1,j,4,20,260,19,j,1,0.616495623342,03,02,60.0213544447,PLT_learning_3,A,2014_Mrz_03_1731,P15,
stim_fb/ques.jpg,stim_fb/posf.jpg,stim_fb/negf.jpg,stim_03/f.jpg,stim_03/e.jpg,1,3,f,4,21,261,48,j,0,0.983053285314,03,02,60.0213544447,PLT_learning_3,A,2014_Mrz_03_1731,P15,
stim_fb/ques.jpg,stim_fb/negf.jpg,stim_fb/posf.jpg,stim_03/f.jpg,stim_03/e.jpg,1,3,f,4,22,262,41,j,0,1.06637216562,03,02,60.0213544447,PLT_learning_3,A,2014_Mrz_03_1731,P15,
stim_fb/ques.jpg,stim_fb/negf.jpg,stim_fb/posf.jpg,stim_03/b.jpg,stim_03/a.jpg,1,1,f,4,23,263,6,f,1,0.966407476637,03,02,60.0213544447,PLT_learning_3,A,2014_Mrz_03_1731,P15,
stim_fb/ques.jpg,stim_fb/negf.jpg,stim_fb/posf.jpg,stim_03/c.jpg,stim_03/d.jpg,2,2,j,4,24,264,35,j,1,1.0496869407,03,02,60.0213544447,PLT_learning_3,A,2014_Mrz_03_1731,P15,
stim_fb/ques.jpg,stim_fb/negf.jpg,stim_fb/posf.jpg,stim_03/b.jpg,stim_03/a.jpg,1,1,f,4,25,265,2,f,1,0.933086692581,03,02,60.0213544447,PLT_learning_3,A,2014_Mrz_03_1731,P15,
stim_fb/ques.jpg,stim_fb/negf.jpg,stim_fb/posf.jpg,stim_03/e.jpg,stim_03/f.jpg,2,3,j,4,26,266,51,j,1,0.849819336696,03,02,60.0213544447,PLT_learning_3,A,2014_Mrz_03_1731,P15,
stim_fb/ques.jpg,stim_fb/posf.jpg,stim_fb/negf.jpg,stim_03/e.jpg,stim_03/f.jpg,2,3,j,4,27,267,59,j,1,1.08303797415,03,02,60.0213544447,PLT_learning_3,A,2014_Mrz_03_1731,P15,
stim_fb/ques.jpg,stim_fb/negf.jpg,stim_fb/posf.jpg,stim_03/d.jpg,stim_03/c.jpg,1,2,f,4,28,268,25,j,0,0.749807899188,03,02,60.0213544447,PLT_learning_3,A,2014_Mrz_03_1731,P15,
stim_fb/ques.jpg,stim_fb/posf.jpg,stim_fb/negf.jpg,stim_03/e.jpg,stim_03/f.jpg,2,3,j,4,29,269,58,j,1,0.766460540899,03,02,60.0213544447,PLT_learning_3,A,2014_Mrz_03_1731,P15,
stim_fb/ques.jpg,stim_fb/negf.jpg,stim_fb/posf.jpg,stim_03/b.jpg,stim_03/a.jpg,1,1,f,4,30,270,5,f,1,0.816442384645,03,02,60.0213544447,PLT_learning_3,A,2014_Mrz_03_1731,P15,
stim_fb/ques.jpg,stim_fb/negf.jpg,stim_fb/posf.jpg,stim_03/a.jpg,stim_03/b.jpg,2,1,j,4,31,271,16,j,1,0.583209515717,03,02,60.0213544447,PLT_learning_3,A,2014_Mrz_03_1731,P15,
stim_fb/ques.jpg,stim_fb/negf.jpg,stim_fb/posf.jpg,stim_03/d.jpg,stim_03/c.jpg,1,2,f,4,32,272,23,f,1,0.883090259473,03,02,60.0213544447,PLT_learning_3,A,2014_Mrz_03_1731,P15,
stim_fb/ques.jpg,stim_fb/negf.jpg,stim_fb/posf.jpg,stim_03/e.jpg,stim_03/f.jpg,2,3,j,4,33,273,54,j,1,0.58317315509,03,02,60.0213544447,PLT_learning_3,A,2014_Mrz_03_1731,P15,
stim_fb/ques.jpg,stim_fb/posf.jpg,stim_fb/negf.jpg,stim_03/d.jpg,stim_03/c.jpg,1,2,f,4,34,274,28,f,1,0.666503448845,03,02,60.0213544447,PLT_learning_3,A,2014_Mrz_03_1731,P15,
stim_fb/ques.jpg,stim_fb/negf.jpg,stim_fb/posf.jpg,stim_03/a.jpg,stim_03/b.jpg,2,1,j,4,35,275,15,j,1,0.716457569491,03,02,60.0213544447,PLT_learning_3,A,2014_Mrz_03_1731,P15,
stim_fb/ques.jpg,stim_fb/negf.jpg,stim_fb/posf.jpg,stim_03/f.jpg,stim_03/e.jpg,1,3,f,4,36,276,44,f,1,0.866440462853,03,02,60.0213544447,PLT_learning_3,A,2014_Mrz_03_1731,P15,
stim_fb/ques.jpg,stim_fb/posf.jpg,stim_fb/negf.jpg,stim_03/f.jpg,stim_03/e.jpg,1,3,f,4,37,277,46,f,1,0.666500065412,03,02,60.0213544447,PLT_learning_3,A,2014_Mrz_03_1731,P15,
stim_fb/ques.jpg,stim_fb/negf.jpg,stim_fb/posf.jpg,stim_03/a.jpg,stim_03/b.jpg,2,1,j,4,38,278,11,j,1,0.633183431702,03,02,60.0213544447,PLT_learning_3,A,2014_Mrz_03_1731,P15,
stim_fb/ques.jpg,stim_fb/negf.jpg,stim_fb/posf.jpg,stim_03/b.jpg,stim_03/a.jpg,1,1,f,4,39,279,0,f,1,0.766473797943,03,02,60.0213544447,PLT_learning_3,A,2014_Mrz_03_1731,P15,
stim_fb/ques.jpg,stim_fb/negf.jpg,stim_fb/posf.jpg,stim_03/a.jpg,stim_03/b.jpg,2,1,j,4,40,280,17,j,1,0.549843519973,03,02,60.0213544447,PLT_learning_3,A,2014_Mrz_03_1731,P15,
stim_fb/ques.jpg,stim_fb/negf.jpg,stim_fb/posf.jpg,stim_03/c.jpg,stim_03/d.jpg,2,2,j,4,41,281,30,j,1,0.566490053459,03,02,60.0213544447,PLT_learning_3,A,2014_Mrz_03_1731,P15,
stim_fb/ques.jpg,stim_fb/posf.jpg,stim_fb/negf.jpg,stim_03/b.jpg,stim_03/a.jpg,1,1,f,4,42,282,9,f,1,0.666482330207,03,02,60.0213544447,PLT_learning_3,A,2014_Mrz_03_1731,P15,
stim_fb/ques.jpg,stim_fb/negf.jpg,stim_fb/posf.jpg,stim_03/b.jpg,stim_03/a.jpg,1,1,f,4,43,283,1,f,1,0.749760155186,03,02,60.0213544447,PLT_learning_3,A,2014_Mrz_03_1731,P15,
stim_fb/ques.jpg,stim_fb/negf.jpg,stim_fb/posf.jpg,stim_03/d.jpg,stim_03/c.jpg,1,2,f,4,44,284,21,f,1,0.699817823926,03,02,60.0213544447,PLT_learning_3,A,2014_Mrz_03_1731,P15,
stim_fb/ques.jpg,stim_fb/negf.jpg,stim_fb/posf.jpg,stim_03/e.jpg,stim_03/f.jpg,2,3,j,4,45,285,55,j,1,0.616501481943,03,02,60.0213544447,PLT_learning_3,A,2014_Mrz_03_1731,P15,
stim_fb/ques.jpg,stim_fb/negf.jpg,stim_fb/posf.jpg,stim_03/f.jpg,stim_03/e.jpg,1,3,f,4,46,286,42,f,1,0.983036082434,03,02,60.0213544447,PLT_learning_3,A,2014_Mrz_03_1731,P15,
stim_fb/ques.jpg,stim_fb/negf.jpg,stim_fb/posf.jpg,stim_03/f.jpg,stim_03/e.jpg,1,3,f,4,47,287,40,f,1,0.899753637943,03,02,60.0213544447,PLT_learning_3,A,2014_Mrz_03_1731,P15,
stim_fb/ques.jpg,stim_fb/posf.jpg,stim_fb/negf.jpg,stim_03/d.jpg,stim_03/c.jpg,1,2,f,4,48,288,29,f,1,0.683154926654,03,02,60.0213544447,PLT_learning_3,A,2014_Mrz_03_1731,P15,
stim_fb/ques.jpg,stim_fb/negf.jpg,stim_fb/posf.jpg,stim_03/c.jpg,stim_03/d.jpg,2,2,j,4,49,289,36,j,1,0.749810521726,03,02,60.0213544447,PLT_learning_3,A,2014_Mrz_03_1731,P15,
stim_fb/ques.jpg,stim_fb/negf.jpg,stim_fb/posf.jpg,stim_03/b.jpg,stim_03/a.jpg,1,1,f,4,50,290,3,f,1,1.11633448771,03,02,60.0213544447,PLT_learning_3,A,2014_Mrz_03_1731,P15,
stim_fb/ques.jpg,stim_fb/negf.jpg,stim_fb/posf.jpg,stim_03/c.jpg,stim_03/d.jpg,2,2,j,4,51,291,32,j,1,0.666574028766,03,02,60.0213544447,PLT_learning_3,A,2014_Mrz_03_1731,P15,
stim_fb/ques.jpg,stim_fb/posf.jpg,stim_fb/negf.jpg,stim_03/a.jpg,stim_03/b.jpg,2,1,j,4,52,292,18,j,1,0.799756359727,03,02,60.0213544447,PLT_learning_3,A,2014_Mrz_03_1731,P15,
stim_fb/ques.jpg,stim_fb/negf.jpg,stim_fb/posf.jpg,stim_03/e.jpg,stim_03/f.jpg,2,3,j,4,53,293,52,j,1,0.76648512718,03,02,60.0213544447,PLT_learning_3,A,2014_Mrz_03_1731,P15,
stim_fb/ques.jpg,stim_fb/negf.jpg,stim_fb/posf.jpg,stim_03/a.jpg,stim_03/b.jpg,2,1,j,4,54,294,14,j,1,0.599858118361,03,02,60.0213544447,PLT_learning_3,A,2014_Mrz_03_1731,P15,
stim_fb/ques.jpg,stim_fb/posf.jpg,stim_fb/negf.jpg,stim_03/f.jpg,stim_03/e.jpg,1,3,f,4,55,295,49,f,1,0.716500116541,03,02,60.0213544447,PLT_learning_3,A,2014_Mrz_03_1731,P15,
stim_fb/ques.jpg,stim_fb/negf.jpg,stim_fb/posf.jpg,stim_03/e.jpg,stim_03/f.jpg,2,3,j,4,56,296,50,j,1,0.733139792934,03,02,60.0213544447,PLT_learning_3,A,2014_Mrz_03_1731,P15,
stim_fb/ques.jpg,stim_fb/negf.jpg,stim_fb/posf.jpg,stim_03/b.jpg,stim_03/a.jpg,1,1,f,4,57,297,7,f,1,1.16629625341,03,02,60.0213544447,PLT_learning_3,A,2014_Mrz_03_1731,P15,
stim_fb/ques.jpg,stim_fb/posf.jpg,stim_fb/negf.jpg,stim_03/e.jpg,stim_03/f.jpg,2,3,j,4,58,298,56,j,1,0.716450583077,03,02,60.0213544447,PLT_learning_3,A,2014_Mrz_03_1731,P15,
stim_fb/ques.jpg,stim_fb/negf.jpg,stim_fb/posf.jpg,stim_03/d.jpg,stim_03/c.jpg,1,2,f,4,59,299,22,f,1,1.14968354524,03,02,60.0213544447,PLT_learning_3,A,2014_Mrz_03_1731,P15,
stim_fb/ques.jpg,stim_fb/negf.jpg,stim_fb/posf.jpg,stim_03/c.jpg,stim_03/d.jpg,2,2,j,5,0,300,30,j,1,0.716440826762,03,02,60.0213544447,PLT_learning_3,A,2014_Mrz_03_1731,P15,
stim_fb/ques.jpg,stim_fb/negf.jpg,stim_fb/posf.jpg,stim_03/a.jpg,stim_03/b.jpg,2,1,j,5,1,301,14,j,1,0.683105754091,03,02,60.0213544447,PLT_learning_3,A,2014_Mrz_03_1731,P15,
stim_fb/ques.jpg,stim_fb/negf.jpg,stim_fb/posf.jpg,stim_03/f.jpg,stim_03/e.jpg,1,3,f,5,2,302,40,f,1,0.716463163435,03,02,60.0213544447,PLT_learning_3,A,2014_Mrz_03_1731,P15,
stim_fb/ques.jpg,stim_fb/negf.jpg,stim_fb/posf.jpg,stim_03/a.jpg,stim_03/b.jpg,2,1,j,5,3,303,16,j,1,0.649856271757,03,02,60.0213544447,PLT_learning_3,A,2014_Mrz_03_1731,P15,
stim_fb/ques.jpg,stim_fb/negf.jpg,stim_fb/posf.jpg,stim_03/e.jpg,stim_03/f.jpg,2,3,j,5,4,304,52,j,1,0.833396533861,03,02,60.0213544447,PLT_learning_3,A,2014_Mrz_03_1731,P15,
stim_fb/ques.jpg,stim_fb/negf.jpg,stim_fb/posf.jpg,stim_03/d.jpg,stim_03/c.jpg,1,2,f,5,5,305,20,f,1,0.73320470673,03,02,60.0213544447,PLT_learning_3,A,2014_Mrz_03_1731,P15,
stim_fb/ques.jpg,stim_fb/negf.jpg,stim_fb/posf.jpg,stim_03/c.jpg,stim_03/d.jpg,2,2,j,5,6,306,32,j,1,0.583188709859,03,02,60.0213544447,PLT_learning_3,A,2014_Mrz_03_1731,P15,
stim_fb/ques.jpg,stim_fb/negf.jpg,stim_fb/posf.jpg,stim_03/c.jpg,stim_03/d.jpg,2,2,j,5,7,307,35,j,1,0.549893011332,03,02,60.0213544447,PLT_learning_3,A,2014_Mrz_03_1731,P15,
stim_fb/ques.jpg,stim_fb/negf.jpg,stim_fb/posf.jpg,stim_03/e.jpg,stim_03/f.jpg,2,3,j,5,8,308,54,j,1,0.799795348908,03,02,60.0213544447,PLT_learning_3,A,2014_Mrz_03_1731,P15,
stim_fb/ques.jpg,stim_fb/negf.jpg,stim_fb/posf.jpg,stim_03/f.jpg,stim_03/e.jpg,1,3,f,5,9,309,42,f,1,0.983058852189,03,02,60.0213544447,PLT_learning_3,A,2014_Mrz_03_1731,P15,
stim_fb/ques.jpg,stim_fb/posf.jpg,stim_fb/negf.jpg,stim_03/b.jpg,stim_03/a.jpg,1,1,f,5,10,310,8,f,1,0.916497211299,03,02,60.0213544447,PLT_learning_3,A,2014_Mrz_03_1731,P15,
stim_fb/ques.jpg,stim_fb/negf.jpg,stim_fb/posf.jpg,stim_03/e.jpg,stim_03/f.jpg,2,3,j,5,11,311,53,j,1,0.949741069615,03,02,60.0213544447,PLT_learning_3,A,2014_Mrz_03_1731,P15,
stim_fb/ques.jpg,stim_fb/posf.jpg,stim_fb/negf.jpg,stim_03/e.jpg,stim_03/f.jpg,2,3,j,5,12,312,57,j,1,0.733161338636,03,02,60.0213544447,PLT_learning_3,A,2014_Mrz_03_1731,P15,
stim_fb/ques.jpg,stim_fb/negf.jpg,stim_fb/posf.jpg,stim_03/b.jpg,stim_03/a.jpg,1,1,f,5,13,313,6,f,1,0.649830025339,03,02,60.0213544447,PLT_learning_3,A,2014_Mrz_03_1731,P15,
stim_fb/ques.jpg,stim_fb/posf.jpg,stim_fb/negf.jpg,stim_03/d.jpg,stim_03/c.jpg,1,2,f,5,14,314,29,f,1,0.866367386712,03,02,60.0213544447,PLT_learning_3,A,2014_Mrz_03_1731,P15,
stim_fb/ques.jpg,stim_fb/posf.jpg,stim_fb/negf.jpg,stim_03/f.jpg,stim_03/e.jpg,1,3,f,5,15,315,49,f,1,1.16635842738,03,02,60.0213544447,PLT_learning_3,A,2014_Mrz_03_1731,P15,
stim_fb/ques.jpg,stim_fb/negf.jpg,stim_fb/posf.jpg,stim_03/a.jpg,stim_03/b.jpg,2,1,j,5,16,316,11,j,1,1.09969828197,03,02,60.0213544447,PLT_learning_3,A,2014_Mrz_03_1731,P15,
stim_fb/ques.jpg,stim_fb/negf.jpg,stim_fb/posf.jpg,stim_03/e.jpg,stim_03/f.jpg,2,3,j,5,17,317,51,j,1,0.600055178533,03,02,60.0213544447,PLT_learning_3,A,2014_Mrz_03_1731,P15,
stim_fb/ques.jpg,stim_fb/negf.jpg,stim_fb/posf.jpg,stim_03/d.jpg,stim_03/c.jpg,1,2,f,5,18,318,26,f,1,0.649798693243,03,02,60.0213544447,PLT_learning_3,A,2014_Mrz_03_1731,P15,
stim_fb/ques.jpg,stim_fb/negf.jpg,stim_fb/posf.jpg,stim_03/d.jpg,stim_03/c.jpg,1,2,f,5,19,319,22,f,1,0.783101919535,03,02,60.0213544447,PLT_learning_3,A,2014_Mrz_03_1731,P15,
stim_fb/ques.jpg,stim_fb/negf.jpg,stim_fb/posf.jpg,stim_03/a.jpg,stim_03/b.jpg,2,1,j,5,20,320,17,j,1,0.833161365703,03,02,60.0213544447,PLT_learning_3,A,2014_Mrz_03_1731,P15,
stim_fb/ques.jpg,stim_fb/negf.jpg,stim_fb/posf.jpg,stim_03/f.jpg,stim_03/e.jpg,1,3,f,5,21,321,45,f,1,0.899769541582,03,02,60.0213544447,PLT_learning_3,A,2014_Mrz_03_1731,P15,
stim_fb/ques.jpg,stim_fb/posf.jpg,stim_fb/negf.jpg,stim_03/b.jpg,stim_03/a.jpg,1,1,f,5,22,322,9,f,1,0.76648703393,03,02,60.0213544447,PLT_learning_3,A,2014_Mrz_03_1731,P15,
stim_fb/ques.jpg,stim_fb/posf.jpg,stim_fb/negf.jpg,stim_03/c.jpg,stim_03/d.jpg,2,2,j,5,23,323,38,j,1,0.833091194803,03,02,60.0213544447,PLT_learning_3,A,2014_Mrz_03_1731,P15,
stim_fb/ques.jpg,stim_fb/negf.jpg,stim_fb/posf.jpg,stim_03/a.jpg,stim_03/b.jpg,2,1,j,5,24,324,13,j,1,0.983068680687,03,02,60.0213544447,PLT_learning_3,A,2014_Mrz_03_1731,P15,
stim_fb/ques.jpg,stim_fb/negf.jpg,stim_fb/posf.jpg,stim_03/d.jpg,stim_03/c.jpg,1,2,f,5,25,325,23,f,1,0.649839916994,03,02,60.0213544447,PLT_learning_3,A,2014_Mrz_03_1731,P15,
stim_fb/ques.jpg,stim_fb/posf.jpg,stim_fb/negf.jpg,stim_03/f.jpg,stim_03/e.jpg,1,3,f,5,26,326,47,f,1,0.932890703078,03,02,60.0213544447,PLT_learning_3,A,2014_Mrz_03_1731,P15,
stim_fb/ques.jpg,stim_fb/negf.jpg,stim_fb/posf.jpg,stim_03/a.jpg,stim_03/b.jpg,2,1,j,5,27,327,12,j,1,0.849775863338,03,02,60.0213544447,PLT_learning_3,A,2014_Mrz_03_1731,P15,
stim_fb/ques.jpg,stim_fb/negf.jpg,stim_fb/posf.jpg,stim_03/d.jpg,stim_03/c.jpg,1,2,f,5,28,328,21,f,1,0.583196105292,03,02,60.0213544447,PLT_learning_3,A,2014_Mrz_03_1731,P15,
stim_fb/ques.jpg,stim_fb/negf.jpg,stim_fb/posf.jpg,stim_03/b.jpg,stim_03/a.jpg,1,1,f,5,29,329,4,f,1,0.933076488145,03,02,60.0213544447,PLT_learning_3,A,2014_Mrz_03_1731,P15,
stim_fb/ques.jpg,stim_fb/negf.jpg,stim_fb/posf.jpg,stim_03/b.jpg,stim_03/a.jpg,1,1,f,5,30,330,5,f,1,0.983069868647,03,02,60.0213544447,PLT_learning_3,A,2014_Mrz_03_1731,P15,
stim_fb/ques.jpg,stim_fb/posf.jpg,stim_fb/negf.jpg,stim_03/a.jpg,stim_03/b.jpg,2,1,j,5,31,331,18,j,1,0.766502751107,03,02,60.0213544447,PLT_learning_3,A,2014_Mrz_03_1731,P15,
stim_fb/ques.jpg,stim_fb/negf.jpg,stim_fb/posf.jpg,stim_03/e.jpg,stim_03/f.jpg,2,3,j,5,32,332,50,j,1,0.716486390327,03,02,60.0213544447,PLT_learning_3,A,2014_Mrz_03_1731,P15,
stim_fb/ques.jpg,stim_fb/posf.jpg,stim_fb/negf.jpg,stim_03/c.jpg,stim_03/d.jpg,2,2,j,5,33,333,37,j,1,0.583195476725,03,02,60.0213544447,PLT_learning_3,A,2014_Mrz_03_1731,P15,
stim_fb/ques.jpg,stim_fb/posf.jpg,stim_fb/negf.jpg,stim_03/d.jpg,stim_03/c.jpg,1,2,f,5,34,334,27,f,1,0.79977409493,03,02,60.0213544447,PLT_learning_3,A,2014_Mrz_03_1731,P15,
stim_fb/ques.jpg,stim_fb/negf.jpg,stim_fb/posf.jpg,stim_03/a.jpg,stim_03/b.jpg,2,1,j,5,35,335,10,j,1,0.566370803226,03,02,60.0213544447,PLT_learning_3,A,2014_Mrz_03_1731,P15,
stim_fb/ques.jpg,stim_fb/negf.jpg,stim_fb/posf.jpg,stim_03/c.jpg,stim_03/d.jpg,2,2,j,5,36,336,33,j,1,0.533214679588,03,02,60.0213544447,PLT_learning_3,A,2014_Mrz_03_1731,P15,
stim_fb/ques.jpg,stim_fb/negf.jpg,stim_fb/posf.jpg,stim_03/f.jpg,stim_03/e.jpg,1,3,f,5,37,337,41,f,1,0.933063877714,03,02,60.0213544447,PLT_learning_3,A,2014_Mrz_03_1731,P15,
stim_fb/ques.jpg,stim_fb/negf.jpg,stim_fb/posf.jpg,stim_03/c.jpg,stim_03/d.jpg,2,2,j,5,38,338,34,j,1,0.483246778596,03,02,60.0213544447,PLT_learning_3,A,2014_Mrz_03_1731,P15,
stim_fb/ques.jpg,stim_fb/posf.jpg,stim_fb/negf.jpg,stim_03/c.jpg,stim_03/d.jpg,2,2,j,5,39,339,39,j,1,0.549906244314,03,02,60.0213544447,PLT_learning_3,A,2014_Mrz_03_1731,P15,
stim_fb/ques.jpg,stim_fb/posf.jpg,stim_fb/negf.jpg,stim_03/e.jpg,stim_03/f.jpg,2,3,j,5,40,340,59,j,1,0.683154111623,03,02,60.0213544447,PLT_learning_3,A,2014_Mrz_03_1731,P15,
stim_fb/ques.jpg,stim_fb/negf.jpg,stim_fb/posf.jpg,stim_03/a.jpg,stim_03/b.jpg,2,1,j,5,41,341,15,j,1,0.533207557837,03,02,60.0213544447,PLT_learning_3,A,2014_Mrz_03_1731,P15,
stim_fb/ques.jpg,stim_fb/negf.jpg,stim_fb/posf.jpg,stim_03/b.jpg,stim_03/a.jpg,1,1,f,5,42,342,2,f,1,0.66651884422,03,02,60.0213544447,PLT_learning_3,A,2014_Mrz_03_1731,P15,
stim_fb/ques.jpg,stim_fb/negf.jpg,stim_fb/posf.jpg,stim_03/b.jpg,stim_03/a.jpg,1,1,f,5,43,343,3,f,1,0.733137062129,03,02,60.0213544447,PLT_learning_3,A,2014_Mrz_03_1731,P15,
stim_fb/ques.jpg,stim_fb/posf.jpg,stim_fb/negf.jpg,stim_03/a.jpg,stim_03/b.jpg,2,1,j,5,44,344,19,j,1,0.499828747152,03,02,60.0213544447,PLT_learning_3,A,2014_Mrz_03_1731,P15,
stim_fb/ques.jpg,stim_fb/negf.jpg,stim_fb/posf.jpg,stim_03/f.jpg,stim_03/e.jpg,1,3,f,5,45,345,43,f,1,0.733138950834,03,02,60.0213544447,PLT_learning_3,A,2014_Mrz_03_1731,P15,
stim_fb/ques.jpg,stim_fb/posf.jpg,stim_fb/negf.jpg,stim_03/f.jpg,stim_03/e.jpg,1,3,f,5,46,346,48,f,1,1.04970479921,03,02,60.0213544447,PLT_learning_3,A,2014_Mrz_03_1731,P15,
stim_fb/ques.jpg,stim_fb/negf.jpg,stim_fb/posf.jpg,stim_03/d.jpg,stim_03/c.jpg,1,2,f,5,47,347,24,f,1,0.866395705296,03,02,60.0213544447,PLT_learning_3,A,2014_Mrz_03_1731,P15,
stim_fb/ques.jpg,stim_fb/negf.jpg,stim_fb/posf.jpg,stim_03/d.jpg,stim_03/c.jpg,1,2,f,5,48,348,25,f,1,0.749810897663,03,02,60.0213544447,PLT_learning_3,A,2014_Mrz_03_1731,P15,
stim_fb/ques.jpg,stim_fb/negf.jpg,stim_fb/posf.jpg,stim_03/b.jpg,stim_03/a.jpg,1,1,f,5,49,349,7,f,1,1.04971359313,03,02,60.0213544447,PLT_learning_3,A,2014_Mrz_03_1731,P15,
stim_fb/ques.jpg,stim_fb/posf.jpg,stim_fb/negf.jpg,stim_03/e.jpg,stim_03/f.jpg,2,3,j,5,50,350,56,j,1,0.849771448335,03,02,60.0213544447,PLT_learning_3,A,2014_Mrz_03_1731,P15,
stim_fb/ques.jpg,stim_fb/posf.jpg,stim_fb/negf.jpg,stim_03/f.jpg,stim_03/e.jpg,1,3,f,5,51,351,46,f,1,1.4828669619,03,02,60.0213544447,PLT_learning_3,A,2014_Mrz_03_1731,P15,
stim_fb/ques.jpg,stim_fb/posf.jpg,stim_fb/negf.jpg,stim_03/e.jpg,stim_03/f.jpg,2,3,j,5,52,352,58,j,1,0.766485479056,03,02,60.0213544447,PLT_learning_3,A,2014_Mrz_03_1731,P15,
stim_fb/ques.jpg,stim_fb/negf.jpg,stim_fb/posf.jpg,stim_03/b.jpg,stim_03/a.jpg,1,1,f,5,53,353,0,j,0,0.766480661048,03,02,60.0213544447,PLT_learning_3,A,2014_Mrz_03_1731,P15,
stim_fb/ques.jpg,stim_fb/negf.jpg,stim_fb/posf.jpg,stim_03/c.jpg,stim_03/d.jpg,2,2,j,5,54,354,36,j,1,0.716479394892,03,02,60.0213544447,PLT_learning_3,A,2014_Mrz_03_1731,P15,
stim_fb/ques.jpg,stim_fb/negf.jpg,stim_fb/posf.jpg,stim_03/b.jpg,stim_03/a.jpg,1,1,f,5,55,355,1,f,1,0.66649609251,03,02,60.0213544447,PLT_learning_3,A,2014_Mrz_03_1731,P15,
stim_fb/ques.jpg,stim_fb/negf.jpg,stim_fb/posf.jpg,stim_03/f.jpg,stim_03/e.jpg,1,3,f,5,56,356,44,f,1,1.08301632018,03,02,60.0213544447,PLT_learning_3,A,2014_Mrz_03_1731,P15,
stim_fb/ques.jpg,stim_fb/negf.jpg,stim_fb/posf.jpg,stim_03/c.jpg,stim_03/d.jpg,2,2,j,5,57,357,31,j,1,0.69982259983,03,02,60.0213544447,PLT_learning_3,A,2014_Mrz_03_1731,P15,
stim_fb/ques.jpg,stim_fb/negf.jpg,stim_fb/posf.jpg,stim_03/e.jpg,stim_03/f.jpg,2,3,j,5,58,358,55,j,1,0.833154060496,03,02,60.0213544447,PLT_learning_3,A,2014_Mrz_03_1731,P15,
stim_fb/ques.jpg,stim_fb/posf.jpg,stim_fb/negf.jpg,stim_03/d.jpg,stim_03/c.jpg,1,2,f,5,59,359,28,f,1,0.966442947045,03,02,60.0213544447,PLT_learning_3,A,2014_Mrz_03_1731,P15,
