Fb3,Fb2,Fb1,Symbol2,Symbol1,PosCond,Pair,Correct,trials.thisRepN,trials.thisTrialN,trials.thisN,trials.thisIndex,Response.keys,Response.corr,Response.rt,Version,Session Number,frameRate,expName,StimCondition,date,Participant,
stim_fb/ques.jpg,stim_fb/posf.jpg,stim_fb/negf.jpg,stim_02/e.jpg,stim_02/f.jpg,2,3,j,0,0,0,57,f,0,0.866453924406,02,03,60.0183956352,PLT_learning_02,A,2014_Mrz_10_1604,P16,
stim_fb/ques.jpg,stim_fb/negf.jpg,stim_fb/posf.jpg,stim_02/e.jpg,stim_02/f.jpg,2,3,j,0,1,1,50,f,0,0.666514239743,02,03,60.0183956352,PLT_learning_02,A,2014_Mrz_10_1604,P16,
stim_fb/ques.jpg,stim_fb/negf.jpg,stim_fb/posf.jpg,stim_02/f.jpg,stim_02/e.jpg,1,3,f,0,2,2,41,j,0,0.983022786295,02,03,60.0183956352,PLT_learning_02,A,2014_Mrz_10_1604,P16,
stim_fb/ques.jpg,stim_fb/negf.jpg,stim_fb/posf.jpg,stim_02/b.jpg,stim_02/a.jpg,1,1,f,0,3,3,4,f,1,0.983072710732,02,03,60.0183956352,PLT_learning_02,A,2014_Mrz_10_1604,P16,
stim_fb/ques.jpg,stim_fb/negf.jpg,stim_fb/posf.jpg,stim_02/f.jpg,stim_02/e.jpg,1,3,f,0,4,4,45,f,1,1.06636061984,02,03,60.0183956352,PLT_learning_02,A,2014_Mrz_10_1604,P16,
stim_fb/ques.jpg,stim_fb/posf.jpg,stim_fb/negf.jpg,stim_02/f.jpg,stim_02/e.jpg,1,3,f,0,5,5,47,f,1,1.06639680905,02,03,60.0183956352,PLT_learning_02,A,2014_Mrz_10_1604,P16,
stim_fb/ques.jpg,stim_fb/negf.jpg,stim_fb/posf.jpg,stim_02/a.jpg,stim_02/b.jpg,2,1,j,0,6,6,14,j,1,0.966314166059,02,03,60.0183956352,PLT_learning_02,A,2014_Mrz_10_1604,P16,
stim_fb/ques.jpg,stim_fb/posf.jpg,stim_fb/negf.jpg,stim_02/e.jpg,stim_02/f.jpg,2,3,j,0,7,7,56,j,1,1.21624099969,02,03,60.0183956352,PLT_learning_02,A,2014_Mrz_10_1604,P16,
stim_fb/ques.jpg,stim_fb/negf.jpg,stim_fb/posf.jpg,stim_02/d.jpg,stim_02/c.jpg,1,2,f,0,8,8,21,j,0,1.099695888,02,03,60.0183956352,PLT_learning_02,A,2014_Mrz_10_1604,P16,
stim_fb/ques.jpg,stim_fb/negf.jpg,stim_fb/posf.jpg,stim_02/a.jpg,stim_02/b.jpg,2,1,j,0,9,9,11,f,0,0.983067483703,02,03,60.0183956352,PLT_learning_02,A,2014_Mrz_10_1604,P16,
stim_fb/ques.jpg,stim_fb/negf.jpg,stim_fb/posf.jpg,stim_02/e.jpg,stim_02/f.jpg,2,3,j,0,10,10,53,f,0,1.03304161623,02,03,60.0183956352,PLT_learning_02,A,2014_Mrz_10_1604,P16,
stim_fb/ques.jpg,stim_fb/negf.jpg,stim_fb/posf.jpg,stim_02/b.jpg,stim_02/a.jpg,1,1,f,0,11,11,5,f,1,1.01642554567,02,03,60.0183956352,PLT_learning_02,A,2014_Mrz_10_1604,P16,
stim_fb/ques.jpg,stim_fb/negf.jpg,stim_fb/posf.jpg,stim_02/b.jpg,stim_02/a.jpg,1,1,f,0,12,12,7,f,1,0.799719719401,02,03,60.0183956352,PLT_learning_02,A,2014_Mrz_10_1604,P16,
stim_fb/ques.jpg,stim_fb/negf.jpg,stim_fb/posf.jpg,stim_02/c.jpg,stim_02/d.jpg,2,2,j,0,13,13,36,j,1,1.24964262524,02,03,60.0183956352,PLT_learning_02,A,2014_Mrz_10_1604,P16,
stim_fb/ques.jpg,stim_fb/negf.jpg,stim_fb/posf.jpg,stim_02/f.jpg,stim_02/e.jpg,1,3,f,0,14,14,42,j,0,0.86644695303,02,03,60.0183956352,PLT_learning_02,A,2014_Mrz_10_1604,P16,
stim_fb/ques.jpg,stim_fb/negf.jpg,stim_fb/posf.jpg,stim_02/d.jpg,stim_02/c.jpg,1,2,f,0,15,15,25,j,0,1.18301948707,02,03,60.0183956352,PLT_learning_02,A,2014_Mrz_10_1604,P16,
stim_fb/ques.jpg,stim_fb/posf.jpg,stim_fb/negf.jpg,stim_02/c.jpg,stim_02/d.jpg,2,2,j,0,16,16,37,j,1,0.933080187368,02,03,60.0183956352,PLT_learning_02,A,2014_Mrz_10_1604,P16,
stim_fb/ques.jpg,stim_fb/negf.jpg,stim_fb/posf.jpg,stim_02/c.jpg,stim_02/d.jpg,2,2,j,0,17,17,35,j,1,1.09970043534,02,03,60.0183956352,PLT_learning_02,A,2014_Mrz_10_1604,P16,
stim_fb/ques.jpg,stim_fb/posf.jpg,stim_fb/negf.jpg,stim_02/c.jpg,stim_02/d.jpg,2,2,j,0,18,18,38,f,0,0.899716868294,02,03,60.0183956352,PLT_learning_02,A,2014_Mrz_10_1604,P16,
stim_fb/ques.jpg,stim_fb/posf.jpg,stim_fb/negf.jpg,stim_02/d.jpg,stim_02/c.jpg,1,2,f,0,19,19,27,j,0,0.983062136374,02,03,60.0183956352,PLT_learning_02,A,2014_Mrz_10_1604,P16,
stim_fb/ques.jpg,stim_fb/posf.jpg,stim_fb/negf.jpg,stim_02/f.jpg,stim_02/e.jpg,1,3,f,0,20,20,46,f,1,0.916395978978,02,03,60.0183956352,PLT_learning_02,A,2014_Mrz_10_1604,P16,
stim_fb/ques.jpg,stim_fb/negf.jpg,stim_fb/posf.jpg,stim_02/d.jpg,stim_02/c.jpg,1,2,f,0,21,21,26,j,0,0.366592272239,02,03,60.0183956352,PLT_learning_02,A,2014_Mrz_10_1604,P16,
stim_fb/ques.jpg,stim_fb/negf.jpg,stim_fb/posf.jpg,stim_02/e.jpg,stim_02/f.jpg,2,3,j,0,22,22,51,f,0,1.06636732957,02,03,60.0183956352,PLT_learning_02,A,2014_Mrz_10_1604,P16,
stim_fb/ques.jpg,stim_fb/negf.jpg,stim_fb/posf.jpg,stim_02/f.jpg,stim_02/e.jpg,1,3,f,0,23,23,43,f,1,0.6331626078,02,03,60.0183956352,PLT_learning_02,A,2014_Mrz_10_1604,P16,
stim_fb/ques.jpg,stim_fb/negf.jpg,stim_fb/posf.jpg,stim_02/c.jpg,stim_02/d.jpg,2,2,j,0,24,24,31,f,0,0.816430077969,02,03,60.0183956352,PLT_learning_02,A,2014_Mrz_10_1604,P16,
stim_fb/ques.jpg,stim_fb/negf.jpg,stim_fb/posf.jpg,stim_02/e.jpg,stim_02/f.jpg,2,3,j,0,25,25,54,j,1,1.54957833701,02,03,60.0183956352,PLT_learning_02,A,2014_Mrz_10_1604,P16,
stim_fb/ques.jpg,stim_fb/negf.jpg,stim_fb/posf.jpg,stim_02/a.jpg,stim_02/b.jpg,2,1,j,0,26,26,13,j,1,1.24963341629,02,03,60.0183956352,PLT_learning_02,A,2014_Mrz_10_1604,P16,
stim_fb/ques.jpg,stim_fb/posf.jpg,stim_fb/negf.jpg,stim_02/c.jpg,stim_02/d.jpg,2,2,j,0,27,27,39,j,1,1.01629288802,02,03,60.0183956352,PLT_learning_02,A,2014_Mrz_10_1604,P16,
stim_fb/ques.jpg,stim_fb/posf.jpg,stim_fb/negf.jpg,stim_02/b.jpg,stim_02/a.jpg,1,1,f,0,28,28,8,f,1,0.933136529801,02,03,60.0183956352,PLT_learning_02,A,2014_Mrz_10_1604,P16,
stim_fb/ques.jpg,stim_fb/posf.jpg,stim_fb/negf.jpg,stim_02/f.jpg,stim_02/e.jpg,1,3,f,0,29,29,49,f,1,0.633148370312,02,03,60.0183956352,PLT_learning_02,A,2014_Mrz_10_1604,P16,
stim_fb/ques.jpg,stim_fb/posf.jpg,stim_fb/negf.jpg,stim_02/a.jpg,stim_02/b.jpg,2,1,j,0,30,30,19,j,1,0.866427058443,02,03,60.0183956352,PLT_learning_02,A,2014_Mrz_10_1604,P16,
stim_fb/ques.jpg,stim_fb/negf.jpg,stim_fb/posf.jpg,stim_02/e.jpg,stim_02/f.jpg,2,3,j,0,31,31,52,j,1,0.883086734687,02,03,60.0183956352,PLT_learning_02,A,2014_Mrz_10_1604,P16,
stim_fb/ques.jpg,stim_fb/negf.jpg,stim_fb/posf.jpg,stim_02/f.jpg,stim_02/e.jpg,1,3,f,0,32,32,44,f,1,0.699803360877,02,03,60.0183956352,PLT_learning_02,A,2014_Mrz_10_1604,P16,
stim_fb/ques.jpg,stim_fb/posf.jpg,stim_fb/negf.jpg,stim_02/b.jpg,stim_02/a.jpg,1,1,f,0,33,33,9,f,1,0.833054626657,02,03,60.0183956352,PLT_learning_02,A,2014_Mrz_10_1604,P16,
stim_fb/ques.jpg,stim_fb/negf.jpg,stim_fb/posf.jpg,stim_02/c.jpg,stim_02/d.jpg,2,2,j,0,34,34,34,j,1,0.849766362659,02,03,60.0183956352,PLT_learning_02,A,2014_Mrz_10_1604,P16,
stim_fb/ques.jpg,stim_fb/negf.jpg,stim_fb/posf.jpg,stim_02/d.jpg,stim_02/c.jpg,1,2,f,0,35,35,22,f,1,0.783126875737,02,03,60.0183956352,PLT_learning_02,A,2014_Mrz_10_1604,P16,
stim_fb/ques.jpg,stim_fb/posf.jpg,stim_fb/negf.jpg,stim_02/d.jpg,stim_02/c.jpg,1,2,f,0,36,36,28,f,1,0.583206276645,02,03,60.0183956352,PLT_learning_02,A,2014_Mrz_10_1604,P16,
stim_fb/ques.jpg,stim_fb/posf.jpg,stim_fb/negf.jpg,stim_02/d.jpg,stim_02/c.jpg,1,2,f,0,37,37,29,j,0,0.549895552665,02,03,60.0183956352,PLT_learning_02,A,2014_Mrz_10_1604,P16,
stim_fb/ques.jpg,stim_fb/negf.jpg,stim_fb/posf.jpg,stim_02/e.jpg,stim_02/f.jpg,2,3,j,0,38,38,55,j,1,1.06633591026,02,03,60.0183956352,PLT_learning_02,A,2014_Mrz_10_1604,P16,
stim_fb/ques.jpg,stim_fb/negf.jpg,stim_fb/posf.jpg,stim_02/d.jpg,stim_02/c.jpg,1,2,f,0,39,39,24,f,1,1.29960987662,02,03,60.0183956352,PLT_learning_02,A,2014_Mrz_10_1604,P16,
stim_fb/ques.jpg,stim_fb/negf.jpg,stim_fb/posf.jpg,stim_02/d.jpg,stim_02/c.jpg,1,2,f,0,40,40,23,f,1,0.849729719325,02,03,60.0183956352,PLT_learning_02,A,2014_Mrz_10_1604,P16,
stim_fb/ques.jpg,stim_fb/negf.jpg,stim_fb/posf.jpg,stim_02/b.jpg,stim_02/a.jpg,1,1,f,0,41,41,2,f,1,0.999749968797,02,03,60.0183956352,PLT_learning_02,A,2014_Mrz_10_1604,P16,
stim_fb/ques.jpg,stim_fb/negf.jpg,stim_fb/posf.jpg,stim_02/c.jpg,stim_02/d.jpg,2,2,j,0,42,42,30,j,1,1.03300803152,02,03,60.0183956352,PLT_learning_02,A,2014_Mrz_10_1604,P16,
stim_fb/ques.jpg,stim_fb/negf.jpg,stim_fb/posf.jpg,stim_02/f.jpg,stim_02/e.jpg,1,3,f,0,43,43,40,f,1,0.816446934986,02,03,60.0183956352,PLT_learning_02,A,2014_Mrz_10_1604,P16,
stim_fb/ques.jpg,stim_fb/negf.jpg,stim_fb/posf.jpg,stim_02/b.jpg,stim_02/a.jpg,1,1,f,0,44,44,1,f,1,0.883081288111,02,03,60.0183956352,PLT_learning_02,A,2014_Mrz_10_1604,P16,
stim_fb/ques.jpg,stim_fb/negf.jpg,stim_fb/posf.jpg,stim_02/a.jpg,stim_02/b.jpg,2,1,j,0,45,45,12,j,1,0.766451346983,02,03,60.0183956352,PLT_learning_02,A,2014_Mrz_10_1604,P16,
stim_fb/ques.jpg,stim_fb/negf.jpg,stim_fb/posf.jpg,stim_02/b.jpg,stim_02/a.jpg,1,1,f,0,46,46,3,f,1,0.833062319832,02,03,60.0183956352,PLT_learning_02,A,2014_Mrz_10_1604,P16,
stim_fb/ques.jpg,stim_fb/posf.jpg,stim_fb/negf.jpg,stim_02/e.jpg,stim_02/f.jpg,2,3,j,0,47,47,59,j,1,0.833094485004,02,03,60.0183956352,PLT_learning_02,A,2014_Mrz_10_1604,P16,
stim_fb/ques.jpg,stim_fb/posf.jpg,stim_fb/negf.jpg,stim_02/f.jpg,stim_02/e.jpg,1,3,f,0,48,48,48,j,0,0.69978132796,02,03,60.0183956352,PLT_learning_02,A,2014_Mrz_10_1604,P16,
stim_fb/ques.jpg,stim_fb/negf.jpg,stim_fb/posf.jpg,stim_02/a.jpg,stim_02/b.jpg,2,1,j,0,49,49,10,j,1,0.899712435245,02,03,60.0183956352,PLT_learning_02,A,2014_Mrz_10_1604,P16,
stim_fb/ques.jpg,stim_fb/negf.jpg,stim_fb/posf.jpg,stim_02/b.jpg,stim_02/a.jpg,1,1,f,0,50,50,6,f,1,0.649827035887,02,03,60.0183956352,PLT_learning_02,A,2014_Mrz_10_1604,P16,
stim_fb/ques.jpg,stim_fb/negf.jpg,stim_fb/posf.jpg,stim_02/b.jpg,stim_02/a.jpg,1,1,f,0,51,51,0,f,1,0.649824094556,02,03,60.0183956352,PLT_learning_02,A,2014_Mrz_10_1604,P16,
stim_fb/ques.jpg,stim_fb/negf.jpg,stim_fb/posf.jpg,stim_02/a.jpg,stim_02/b.jpg,2,1,j,0,52,52,16,j,1,0.599823784783,02,03,60.0183956352,PLT_learning_02,A,2014_Mrz_10_1604,P16,
stim_fb/ques.jpg,stim_fb/negf.jpg,stim_fb/posf.jpg,stim_02/a.jpg,stim_02/b.jpg,2,1,j,0,53,53,17,j,1,0.699884957256,02,03,60.0183956352,PLT_learning_02,A,2014_Mrz_10_1604,P16,
stim_fb/ques.jpg,stim_fb/negf.jpg,stim_fb/posf.jpg,stim_02/d.jpg,stim_02/c.jpg,1,2,f,0,54,54,20,j,0,1.23289118428,02,03,60.0183956352,PLT_learning_02,A,2014_Mrz_10_1604,P16,
stim_fb/ques.jpg,stim_fb/negf.jpg,stim_fb/posf.jpg,stim_02/c.jpg,stim_02/d.jpg,2,2,j,0,55,55,33,j,1,0.666480895633,02,03,60.0183956352,PLT_learning_02,A,2014_Mrz_10_1604,P16,
stim_fb/ques.jpg,stim_fb/posf.jpg,stim_fb/negf.jpg,stim_02/a.jpg,stim_02/b.jpg,2,1,j,0,56,56,18,j,1,0.999674715228,02,03,60.0183956352,PLT_learning_02,A,2014_Mrz_10_1604,P16,
stim_fb/ques.jpg,stim_fb/negf.jpg,stim_fb/posf.jpg,stim_02/a.jpg,stim_02/b.jpg,2,1,j,0,57,57,15,f,0,0.799769535568,02,03,60.0183956352,PLT_learning_02,A,2014_Mrz_10_1604,P16,
stim_fb/ques.jpg,stim_fb/negf.jpg,stim_fb/posf.jpg,stim_02/c.jpg,stim_02/d.jpg,2,2,j,0,58,58,32,j,1,1.03304078616,02,03,60.0183956352,PLT_learning_02,A,2014_Mrz_10_1604,P16,
stim_fb/ques.jpg,stim_fb/posf.jpg,stim_fb/negf.jpg,stim_02/e.jpg,stim_02/f.jpg,2,3,j,0,59,59,58,j,1,0.566504642822,02,03,60.0183956352,PLT_learning_02,A,2014_Mrz_10_1604,P16,
stim_fb/ques.jpg,stim_fb/negf.jpg,stim_fb/posf.jpg,stim_02/a.jpg,stim_02/b.jpg,2,1,j,1,0,60,11,j,1,0.683168439335,02,03,60.0183956352,PLT_learning_02,A,2014_Mrz_10_1604,P16,
stim_fb/ques.jpg,stim_fb/negf.jpg,stim_fb/posf.jpg,stim_02/d.jpg,stim_02/c.jpg,1,2,f,1,1,61,25,f,1,1.26630048797,02,03,60.0183956352,PLT_learning_02,A,2014_Mrz_10_1604,P16,
stim_fb/ques.jpg,stim_fb/negf.jpg,stim_fb/posf.jpg,stim_02/c.jpg,stim_02/d.jpg,2,2,j,1,2,62,35,j,1,0.733120054736,02,03,60.0183956352,PLT_learning_02,A,2014_Mrz_10_1604,P16,
stim_fb/ques.jpg,stim_fb/negf.jpg,stim_fb/posf.jpg,stim_02/a.jpg,stim_02/b.jpg,2,1,j,1,3,63,15,j,1,0.783134725303,02,03,60.0183956352,PLT_learning_02,A,2014_Mrz_10_1604,P16,
stim_fb/ques.jpg,stim_fb/negf.jpg,stim_fb/posf.jpg,stim_02/e.jpg,stim_02/f.jpg,2,3,j,1,4,64,54,j,1,0.783100827814,02,03,60.0183956352,PLT_learning_02,A,2014_Mrz_10_1604,P16,
stim_fb/ques.jpg,stim_fb/negf.jpg,stim_fb/posf.jpg,stim_02/a.jpg,stim_02/b.jpg,2,1,j,1,5,65,12,j,1,0.783148586853,02,03,60.0183956352,PLT_learning_02,A,2014_Mrz_10_1604,P16,
stim_fb/ques.jpg,stim_fb/negf.jpg,stim_fb/posf.jpg,stim_02/a.jpg,stim_02/b.jpg,2,1,j,1,6,66,10,j,1,0.499886268524,02,03,60.0183956352,PLT_learning_02,A,2014_Mrz_10_1604,P16,
stim_fb/ques.jpg,stim_fb/negf.jpg,stim_fb/posf.jpg,stim_02/d.jpg,stim_02/c.jpg,1,2,f,1,7,67,23,f,1,1.2663063977,02,03,60.0183956352,PLT_learning_02,A,2014_Mrz_10_1604,P16,
stim_fb/ques.jpg,stim_fb/negf.jpg,stim_fb/posf.jpg,stim_02/b.jpg,stim_02/a.jpg,1,1,f,1,8,68,2,f,1,0.616526185518,02,03,60.0183956352,PLT_learning_02,A,2014_Mrz_10_1604,P16,
stim_fb/ques.jpg,stim_fb/negf.jpg,stim_fb/posf.jpg,stim_02/b.jpg,stim_02/a.jpg,1,1,f,1,9,69,3,f,1,0.649843441779,02,03,60.0183956352,PLT_learning_02,A,2014_Mrz_10_1604,P16,
stim_fb/ques.jpg,stim_fb/negf.jpg,stim_fb/posf.jpg,stim_02/c.jpg,stim_02/d.jpg,2,2,j,1,10,70,33,j,1,0.799776010706,02,03,60.0183956352,PLT_learning_02,A,2014_Mrz_10_1604,P16,
stim_fb/ques.jpg,stim_fb/negf.jpg,stim_fb/posf.jpg,stim_02/c.jpg,stim_02/d.jpg,2,2,j,1,11,71,36,j,1,0.649810160826,02,03,60.0183956352,PLT_learning_02,A,2014_Mrz_10_1604,P16,
stim_fb/ques.jpg,stim_fb/negf.jpg,stim_fb/posf.jpg,stim_02/d.jpg,stim_02/c.jpg,1,2,f,1,12,72,22,f,1,0.933131624573,02,03,60.0183956352,PLT_learning_02,A,2014_Mrz_10_1604,P16,
stim_fb/ques.jpg,stim_fb/negf.jpg,stim_fb/posf.jpg,stim_02/b.jpg,stim_02/a.jpg,1,1,f,1,13,73,0,f,1,0.699876055068,02,03,60.0183956352,PLT_learning_02,A,2014_Mrz_10_1604,P16,
stim_fb/ques.jpg,stim_fb/negf.jpg,stim_fb/posf.jpg,stim_02/a.jpg,stim_02/b.jpg,2,1,j,1,14,74,16,j,1,0.566485464019,02,03,60.0183956352,PLT_learning_02,A,2014_Mrz_10_1604,P16,
stim_fb/ques.jpg,stim_fb/negf.jpg,stim_fb/posf.jpg,stim_02/e.jpg,stim_02/f.jpg,2,3,j,1,15,75,52,j,1,0.816429756167,02,03,60.0183956352,PLT_learning_02,A,2014_Mrz_10_1604,P16,
stim_fb/ques.jpg,stim_fb/negf.jpg,stim_fb/posf.jpg,stim_02/c.jpg,stim_02/d.jpg,2,2,j,1,16,76,30,f,0,0.633179660304,02,03,60.0183956352,PLT_learning_02,A,2014_Mrz_10_1604,P16,
stim_fb/ques.jpg,stim_fb/posf.jpg,stim_fb/negf.jpg,stim_02/f.jpg,stim_02/e.jpg,1,3,f,1,17,77,48,f,1,0.71647107315,02,03,60.0183956352,PLT_learning_02,A,2014_Mrz_10_1604,P16,
stim_fb/ques.jpg,stim_fb/negf.jpg,stim_fb/posf.jpg,stim_02/a.jpg,stim_02/b.jpg,2,1,j,1,18,78,14,j,1,0.699859970978,02,03,60.0183956352,PLT_learning_02,A,2014_Mrz_10_1604,P16,
stim_fb/ques.jpg,stim_fb/negf.jpg,stim_fb/posf.jpg,stim_02/c.jpg,stim_02/d.jpg,2,2,j,1,19,79,31,j,1,0.949668131819,02,03,60.0183956352,PLT_learning_02,A,2014_Mrz_10_1604,P16,
stim_fb/ques.jpg,stim_fb/posf.jpg,stim_fb/negf.jpg,stim_02/c.jpg,stim_02/d.jpg,2,2,j,1,20,80,37,j,1,0.816461978481,02,03,60.0183956352,PLT_learning_02,A,2014_Mrz_10_1604,P16,
stim_fb/ques.jpg,stim_fb/posf.jpg,stim_fb/negf.jpg,stim_02/f.jpg,stim_02/e.jpg,1,3,f,1,21,81,46,f,1,0.649824765227,02,03,60.0183956352,PLT_learning_02,A,2014_Mrz_10_1604,P16,
stim_fb/ques.jpg,stim_fb/negf.jpg,stim_fb/posf.jpg,stim_02/f.jpg,stim_02/e.jpg,1,3,f,1,22,82,45,j,0,1.28296386042,02,03,60.0183956352,PLT_learning_02,A,2014_Mrz_10_1604,P16,
stim_fb/ques.jpg,stim_fb/negf.jpg,stim_fb/posf.jpg,stim_02/d.jpg,stim_02/c.jpg,1,2,f,1,23,83,21,f,1,0.966368460387,02,03,60.0183956352,PLT_learning_02,A,2014_Mrz_10_1604,P16,
stim_fb/ques.jpg,stim_fb/posf.jpg,stim_fb/negf.jpg,stim_02/e.jpg,stim_02/f.jpg,2,3,j,1,24,84,59,j,1,0.683151726678,02,03,60.0183956352,PLT_learning_02,A,2014_Mrz_10_1604,P16,
stim_fb/ques.jpg,stim_fb/posf.jpg,stim_fb/negf.jpg,stim_02/a.jpg,stim_02/b.jpg,2,1,j,1,25,85,18,j,1,0.616525740408,02,03,60.0183956352,PLT_learning_02,A,2014_Mrz_10_1604,P16,
stim_fb/ques.jpg,stim_fb/negf.jpg,stim_fb/posf.jpg,stim_02/e.jpg,stim_02/f.jpg,2,3,j,1,26,86,50,f,0,0.633163464937,02,03,60.0183956352,PLT_learning_02,A,2014_Mrz_10_1604,P16,
stim_fb/ques.jpg,stim_fb/negf.jpg,stim_fb/posf.jpg,stim_02/f.jpg,stim_02/e.jpg,1,3,f,1,27,87,44,f,1,0.799778491891,02,03,60.0183956352,PLT_learning_02,A,2014_Mrz_10_1604,P16,
stim_fb/ques.jpg,stim_fb/negf.jpg,stim_fb/posf.jpg,stim_02/f.jpg,stim_02/e.jpg,1,3,f,1,28,88,41,f,1,1.28297410997,02,03,60.0183956352,PLT_learning_02,A,2014_Mrz_10_1604,P16,
stim_fb/ques.jpg,stim_fb/negf.jpg,stim_fb/posf.jpg,stim_02/f.jpg,stim_02/e.jpg,1,3,f,1,29,89,42,f,1,0.533205115751,02,03,60.0183956352,PLT_learning_02,A,2014_Mrz_10_1604,P16,
stim_fb/ques.jpg,stim_fb/posf.jpg,stim_fb/negf.jpg,stim_02/b.jpg,stim_02/a.jpg,1,1,f,1,30,90,9,f,1,0.866445112442,02,03,60.0183956352,PLT_learning_02,A,2014_Mrz_10_1604,P16,
stim_fb/ques.jpg,stim_fb/negf.jpg,stim_fb/posf.jpg,stim_02/f.jpg,stim_02/e.jpg,1,3,f,1,31,91,43,j,0,1.13302919527,02,03,60.0183956352,PLT_learning_02,A,2014_Mrz_10_1604,P16,
stim_fb/ques.jpg,stim_fb/posf.jpg,stim_fb/negf.jpg,stim_02/f.jpg,stim_02/e.jpg,1,3,f,1,32,92,47,j,0,0.483240465861,02,03,60.0183956352,PLT_learning_02,A,2014_Mrz_10_1604,P16,
stim_fb/ques.jpg,stim_fb/negf.jpg,stim_fb/posf.jpg,stim_02/e.jpg,stim_02/f.jpg,2,3,j,1,33,93,55,j,1,0.933065766423,02,03,60.0183956352,PLT_learning_02,A,2014_Mrz_10_1604,P16,
stim_fb/ques.jpg,stim_fb/negf.jpg,stim_fb/posf.jpg,stim_02/b.jpg,stim_02/a.jpg,1,1,f,1,34,94,7,f,1,0.833107997684,02,03,60.0183956352,PLT_learning_02,A,2014_Mrz_10_1604,P16,
stim_fb/ques.jpg,stim_fb/negf.jpg,stim_fb/posf.jpg,stim_02/c.jpg,stim_02/d.jpg,2,2,j,1,35,95,32,j,1,0.99972641108,02,03,60.0183956352,PLT_learning_02,A,2014_Mrz_10_1604,P16,
stim_fb/ques.jpg,stim_fb/posf.jpg,stim_fb/negf.jpg,stim_02/c.jpg,stim_02/d.jpg,2,2,j,1,36,96,39,j,1,0.599843700424,02,03,60.0183956352,PLT_learning_02,A,2014_Mrz_10_1604,P16,
stim_fb/ques.jpg,stim_fb/negf.jpg,stim_fb/posf.jpg,stim_02/b.jpg,stim_02/a.jpg,1,1,f,1,37,97,5,f,1,0.566504245832,02,03,60.0183956352,PLT_learning_02,A,2014_Mrz_10_1604,P16,
stim_fb/ques.jpg,stim_fb/negf.jpg,stim_fb/posf.jpg,stim_02/d.jpg,stim_02/c.jpg,1,2,f,1,38,98,24,f,1,0.733143934256,02,03,60.0183956352,PLT_learning_02,A,2014_Mrz_10_1604,P16,
stim_fb/ques.jpg,stim_fb/negf.jpg,stim_fb/posf.jpg,stim_02/e.jpg,stim_02/f.jpg,2,3,j,1,39,99,53,j,1,0.866468191969,02,03,60.0183956352,PLT_learning_02,A,2014_Mrz_10_1604,P16,
stim_fb/ques.jpg,stim_fb/negf.jpg,stim_fb/posf.jpg,stim_02/e.jpg,stim_02/f.jpg,2,3,j,1,40,100,51,j,1,0.849760907061,02,03,60.0183956352,PLT_learning_02,A,2014_Mrz_10_1604,P16,
stim_fb/ques.jpg,stim_fb/posf.jpg,stim_fb/negf.jpg,stim_02/e.jpg,stim_02/f.jpg,2,3,j,1,41,101,57,j,1,0.983052984564,02,03,60.0183956352,PLT_learning_02,A,2014_Mrz_10_1604,P16,
stim_fb/ques.jpg,stim_fb/negf.jpg,stim_fb/posf.jpg,stim_02/f.jpg,stim_02/e.jpg,1,3,f,1,42,102,40,j,0,0.549922036676,02,03,60.0183956352,PLT_learning_02,A,2014_Mrz_10_1604,P16,
stim_fb/ques.jpg,stim_fb/negf.jpg,stim_fb/posf.jpg,stim_02/b.jpg,stim_02/a.jpg,1,1,f,1,43,103,6,f,1,0.633169888948,02,03,60.0183956352,PLT_learning_02,A,2014_Mrz_10_1604,P16,
stim_fb/ques.jpg,stim_fb/negf.jpg,stim_fb/posf.jpg,stim_02/c.jpg,stim_02/d.jpg,2,2,j,1,44,104,34,j,1,0.783102136074,02,03,60.0183956352,PLT_learning_02,A,2014_Mrz_10_1604,P16,
stim_fb/ques.jpg,stim_fb/negf.jpg,stim_fb/posf.jpg,stim_02/a.jpg,stim_02/b.jpg,2,1,j,1,45,105,13,j,1,0.566530729844,02,03,60.0183956352,PLT_learning_02,A,2014_Mrz_10_1604,P16,
stim_fb/ques.jpg,stim_fb/negf.jpg,stim_fb/posf.jpg,stim_02/b.jpg,stim_02/a.jpg,1,1,f,1,46,106,1,f,1,0.699877137767,02,03,60.0183956352,PLT_learning_02,A,2014_Mrz_10_1604,P16,
stim_fb/ques.jpg,stim_fb/negf.jpg,stim_fb/posf.jpg,stim_02/d.jpg,stim_02/c.jpg,1,2,f,1,47,107,20,f,1,0.749787072278,02,03,60.0183956352,PLT_learning_02,A,2014_Mrz_10_1604,P16,
stim_fb/ques.jpg,stim_fb/posf.jpg,stim_fb/negf.jpg,stim_02/f.jpg,stim_02/e.jpg,1,3,f,1,48,108,49,f,1,0.899800705258,02,03,60.0183956352,PLT_learning_02,A,2014_Mrz_10_1604,P16,
stim_fb/ques.jpg,stim_fb/posf.jpg,stim_fb/negf.jpg,stim_02/a.jpg,stim_02/b.jpg,2,1,j,1,49,109,19,j,1,0.649834927557,02,03,60.0183956352,PLT_learning_02,A,2014_Mrz_10_1604,P16,
stim_fb/ques.jpg,stim_fb/negf.jpg,stim_fb/posf.jpg,stim_02/b.jpg,stim_02/a.jpg,1,1,f,1,50,110,4,f,1,0.699835757626,02,03,60.0183956352,PLT_learning_02,A,2014_Mrz_10_1604,P16,
stim_fb/ques.jpg,stim_fb/posf.jpg,stim_fb/negf.jpg,stim_02/c.jpg,stim_02/d.jpg,2,2,j,1,51,111,38,j,1,0.749807673626,02,03,60.0183956352,PLT_learning_02,A,2014_Mrz_10_1604,P16,
stim_fb/ques.jpg,stim_fb/negf.jpg,stim_fb/posf.jpg,stim_02/a.jpg,stim_02/b.jpg,2,1,j,1,52,112,17,j,1,0.76647527763,02,03,60.0183956352,PLT_learning_02,A,2014_Mrz_10_1604,P16,
stim_fb/ques.jpg,stim_fb/posf.jpg,stim_fb/negf.jpg,stim_02/d.jpg,stim_02/c.jpg,1,2,f,1,53,113,28,f,1,0.933066292735,02,03,60.0183956352,PLT_learning_02,A,2014_Mrz_10_1604,P16,
stim_fb/ques.jpg,stim_fb/posf.jpg,stim_fb/negf.jpg,stim_02/b.jpg,stim_02/a.jpg,1,1,f,1,54,114,8,f,1,0.916372261862,02,03,60.0183956352,PLT_learning_02,A,2014_Mrz_10_1604,P16,
stim_fb/ques.jpg,stim_fb/posf.jpg,stim_fb/negf.jpg,stim_02/e.jpg,stim_02/f.jpg,2,3,j,1,55,115,58,f,0,1.53289916016,02,03,60.0183956352,PLT_learning_02,A,2014_Mrz_10_1604,P16,
stim_fb/ques.jpg,stim_fb/posf.jpg,stim_fb/negf.jpg,stim_02/d.jpg,stim_02/c.jpg,1,2,f,1,56,116,29,j,0,0.716483340727,02,03,60.0183956352,PLT_learning_02,A,2014_Mrz_10_1604,P16,
stim_fb/ques.jpg,stim_fb/negf.jpg,stim_fb/posf.jpg,stim_02/d.jpg,stim_02/c.jpg,1,2,f,1,57,117,26,f,1,0.666501238336,02,03,60.0183956352,PLT_learning_02,A,2014_Mrz_10_1604,P16,
stim_fb/ques.jpg,stim_fb/posf.jpg,stim_fb/negf.jpg,stim_02/e.jpg,stim_02/f.jpg,2,3,j,1,58,118,56,j,1,0.599849525944,02,03,60.0183956352,PLT_learning_02,A,2014_Mrz_10_1604,P16,
stim_fb/ques.jpg,stim_fb/posf.jpg,stim_fb/negf.jpg,stim_02/d.jpg,stim_02/c.jpg,1,2,f,1,59,119,27,f,1,0.716491069992,02,03,60.0183956352,PLT_learning_02,A,2014_Mrz_10_1604,P16,
stim_fb/ques.jpg,stim_fb/negf.jpg,stim_fb/posf.jpg,stim_02/e.jpg,stim_02/f.jpg,2,3,j,2,0,120,55,j,1,0.866872498703,02,03,60.0183956352,PLT_learning_02,A,2014_Mrz_10_1604,P16,
stim_fb/ques.jpg,stim_fb/posf.jpg,stim_fb/negf.jpg,stim_02/e.jpg,stim_02/f.jpg,2,3,j,2,1,121,56,j,1,0.516585189584,02,03,60.0183956352,PLT_learning_02,A,2014_Mrz_10_1604,P16,
stim_fb/ques.jpg,stim_fb/negf.jpg,stim_fb/posf.jpg,stim_02/e.jpg,stim_02/f.jpg,2,3,j,2,2,122,54,j,1,0.716479855039,02,03,60.0183956352,PLT_learning_02,A,2014_Mrz_10_1604,P16,
stim_fb/ques.jpg,stim_fb/posf.jpg,stim_fb/negf.jpg,stim_02/b.jpg,stim_02/a.jpg,1,1,f,2,3,123,8,f,1,0.666496005293,02,03,60.0183956352,PLT_learning_02,A,2014_Mrz_10_1604,P16,
stim_fb/ques.jpg,stim_fb/negf.jpg,stim_fb/posf.jpg,stim_02/b.jpg,stim_02/a.jpg,1,1,f,2,4,124,4,f,1,0.816445410185,02,03,60.0183956352,PLT_learning_02,A,2014_Mrz_10_1604,P16,
stim_fb/ques.jpg,stim_fb/negf.jpg,stim_fb/posf.jpg,stim_02/c.jpg,stim_02/d.jpg,2,2,j,2,5,125,32,j,1,0.59987434681,02,03,60.0183956352,PLT_learning_02,A,2014_Mrz_10_1604,P16,
stim_fb/ques.jpg,stim_fb/negf.jpg,stim_fb/posf.jpg,stim_02/c.jpg,stim_02/d.jpg,2,2,j,2,6,126,34,j,1,0.84978345426,02,03,60.0183956352,PLT_learning_02,A,2014_Mrz_10_1604,P16,
stim_fb/ques.jpg,stim_fb/negf.jpg,stim_fb/posf.jpg,stim_02/f.jpg,stim_02/e.jpg,1,3,f,2,7,127,41,f,1,1.03304442824,02,03,60.0183956352,PLT_learning_02,A,2014_Mrz_10_1604,P16,
stim_fb/ques.jpg,stim_fb/negf.jpg,stim_fb/posf.jpg,stim_02/a.jpg,stim_02/b.jpg,2,1,j,2,8,128,13,j,1,0.9330741423,02,03,60.0183956352,PLT_learning_02,A,2014_Mrz_10_1604,P16,
stim_fb/ques.jpg,stim_fb/negf.jpg,stim_fb/posf.jpg,stim_02/c.jpg,stim_02/d.jpg,2,2,j,2,9,129,36,j,1,0.716480498643,02,03,60.0183956352,PLT_learning_02,A,2014_Mrz_10_1604,P16,
stim_fb/ques.jpg,stim_fb/negf.jpg,stim_fb/posf.jpg,stim_02/a.jpg,stim_02/b.jpg,2,1,j,2,10,130,12,j,1,0.599985648229,02,03,60.0183956352,PLT_learning_02,A,2014_Mrz_10_1604,P16,
stim_fb/ques.jpg,stim_fb/posf.jpg,stim_fb/negf.jpg,stim_02/c.jpg,stim_02/d.jpg,2,2,j,2,11,131,39,j,1,0.966376282885,02,03,60.0183956352,PLT_learning_02,A,2014_Mrz_10_1604,P16,
stim_fb/ques.jpg,stim_fb/negf.jpg,stim_fb/posf.jpg,stim_02/f.jpg,stim_02/e.jpg,1,3,f,2,12,132,42,f,1,0.883111877355,02,03,60.0183956352,PLT_learning_02,A,2014_Mrz_10_1604,P16,
stim_fb/ques.jpg,stim_fb/negf.jpg,stim_fb/posf.jpg,stim_02/a.jpg,stim_02/b.jpg,2,1,j,2,13,133,16,j,1,0.61652416448,02,03,60.0183956352,PLT_learning_02,A,2014_Mrz_10_1604,P16,
stim_fb/ques.jpg,stim_fb/posf.jpg,stim_fb/negf.jpg,stim_02/f.jpg,stim_02/e.jpg,1,3,f,2,14,134,48,f,1,1.23297768588,02,03,60.0183956352,PLT_learning_02,A,2014_Mrz_10_1604,P16,
stim_fb/ques.jpg,stim_fb/negf.jpg,stim_fb/posf.jpg,stim_02/c.jpg,stim_02/d.jpg,2,2,j,2,15,135,30,j,1,0.533191714348,02,03,60.0183956352,PLT_learning_02,A,2014_Mrz_10_1604,P16,
stim_fb/ques.jpg,stim_fb/negf.jpg,stim_fb/posf.jpg,stim_02/b.jpg,stim_02/a.jpg,1,1,f,2,16,136,7,j,0,0.483270303231,02,03,60.0183956352,PLT_learning_02,A,2014_Mrz_10_1604,P16,
stim_fb/ques.jpg,stim_fb/negf.jpg,stim_fb/posf.jpg,stim_02/b.jpg,stim_02/a.jpg,1,1,f,2,17,137,2,f,1,0.599823354712,02,03,60.0183956352,PLT_learning_02,A,2014_Mrz_10_1604,P16,
stim_fb/ques.jpg,stim_fb/posf.jpg,stim_fb/negf.jpg,stim_02/d.jpg,stim_02/c.jpg,1,2,f,2,18,138,27,f,1,0.783094668461,02,03,60.0183956352,PLT_learning_02,A,2014_Mrz_10_1604,P16,
stim_fb/ques.jpg,stim_fb/posf.jpg,stim_fb/negf.jpg,stim_02/d.jpg,stim_02/c.jpg,1,2,f,2,19,139,29,j,0,0.449921272772,02,03,60.0183956352,PLT_learning_02,A,2014_Mrz_10_1604,P16,
stim_fb/ques.jpg,stim_fb/negf.jpg,stim_fb/posf.jpg,stim_02/d.jpg,stim_02/c.jpg,1,2,f,2,20,140,24,f,1,0.883106496944,02,03,60.0183956352,PLT_learning_02,A,2014_Mrz_10_1604,P16,
stim_fb/ques.jpg,stim_fb/posf.jpg,stim_fb/negf.jpg,stim_02/c.jpg,stim_02/d.jpg,2,2,j,2,21,141,38,j,1,0.849783745987,02,03,60.0183956352,PLT_learning_02,A,2014_Mrz_10_1604,P16,
stim_fb/ques.jpg,stim_fb/negf.jpg,stim_fb/posf.jpg,stim_02/e.jpg,stim_02/f.jpg,2,3,j,2,22,142,52,f,0,1.18299364366,02,03,60.0183956352,PLT_learning_02,A,2014_Mrz_10_1604,P16,
stim_fb/ques.jpg,stim_fb/negf.jpg,stim_fb/posf.jpg,stim_02/a.jpg,stim_02/b.jpg,2,1,j,2,23,143,17,j,1,0.966381912917,02,03,60.0183956352,PLT_learning_02,A,2014_Mrz_10_1604,P16,
stim_fb/ques.jpg,stim_fb/negf.jpg,stim_fb/posf.jpg,stim_02/e.jpg,stim_02/f.jpg,2,3,j,2,24,144,51,j,1,0.499863904783,02,03,60.0183956352,PLT_learning_02,A,2014_Mrz_10_1604,P16,
stim_fb/ques.jpg,stim_fb/posf.jpg,stim_fb/negf.jpg,stim_02/b.jpg,stim_02/a.jpg,1,1,f,2,25,145,9,f,1,0.899747628965,02,03,60.0183956352,PLT_learning_02,A,2014_Mrz_10_1604,P16,
stim_fb/ques.jpg,stim_fb/negf.jpg,stim_fb/posf.jpg,stim_02/b.jpg,stim_02/a.jpg,1,1,f,2,26,146,5,f,1,1.46619080157,02,03,60.0183956352,PLT_learning_02,A,2014_Mrz_10_1604,P16,
stim_fb/ques.jpg,stim_fb/negf.jpg,stim_fb/posf.jpg,stim_02/f.jpg,stim_02/e.jpg,1,3,f,2,27,147,45,f,1,0.783126334388,02,03,60.0183956352,PLT_learning_02,A,2014_Mrz_10_1604,P16,
stim_fb/ques.jpg,stim_fb/posf.jpg,stim_fb/negf.jpg,stim_02/f.jpg,stim_02/e.jpg,1,3,f,2,28,148,46,f,1,0.933110839768,02,03,60.0183956352,PLT_learning_02,A,2014_Mrz_10_1604,P16,
stim_fb/ques.jpg,stim_fb/negf.jpg,stim_fb/posf.jpg,stim_02/e.jpg,stim_02/f.jpg,2,3,j,2,29,149,50,j,1,0.733134505756,02,03,60.0183956352,PLT_learning_02,A,2014_Mrz_10_1604,P16,
stim_fb/ques.jpg,stim_fb/posf.jpg,stim_fb/negf.jpg,stim_02/c.jpg,stim_02/d.jpg,2,2,j,2,30,150,37,j,1,0.583180676836,02,03,60.0183956352,PLT_learning_02,A,2014_Mrz_10_1604,P16,
stim_fb/ques.jpg,stim_fb/negf.jpg,stim_fb/posf.jpg,stim_02/b.jpg,stim_02/a.jpg,1,1,f,2,31,151,6,f,1,0.683194406058,02,03,60.0183956352,PLT_learning_02,A,2014_Mrz_10_1604,P16,
stim_fb/ques.jpg,stim_fb/posf.jpg,stim_fb/negf.jpg,stim_02/f.jpg,stim_02/e.jpg,1,3,f,2,32,152,49,f,1,0.766451449237,02,03,60.0183956352,PLT_learning_02,A,2014_Mrz_10_1604,P16,
stim_fb/ques.jpg,stim_fb/negf.jpg,stim_fb/posf.jpg,stim_02/a.jpg,stim_02/b.jpg,2,1,j,2,33,153,11,j,1,0.79979490079,02,03,60.0183956352,PLT_learning_02,A,2014_Mrz_10_1604,P16,
stim_fb/ques.jpg,stim_fb/negf.jpg,stim_fb/posf.jpg,stim_02/b.jpg,stim_02/a.jpg,1,1,f,2,34,154,0,f,1,0.499835402742,02,03,60.0183956352,PLT_learning_02,A,2014_Mrz_10_1604,P16,
stim_fb/ques.jpg,stim_fb/negf.jpg,stim_fb/posf.jpg,stim_02/a.jpg,stim_02/b.jpg,2,1,j,2,35,155,10,j,1,0.599803616514,02,03,60.0183956352,PLT_learning_02,A,2014_Mrz_10_1604,P16,
stim_fb/ques.jpg,stim_fb/posf.jpg,stim_fb/negf.jpg,stim_02/e.jpg,stim_02/f.jpg,2,3,j,2,36,156,59,j,1,0.699823902076,02,03,60.0183956352,PLT_learning_02,A,2014_Mrz_10_1604,P16,
stim_fb/ques.jpg,stim_fb/posf.jpg,stim_fb/negf.jpg,stim_02/d.jpg,stim_02/c.jpg,1,2,f,2,37,157,28,f,1,0.766474228013,02,03,60.0183956352,PLT_learning_02,A,2014_Mrz_10_1604,P16,
stim_fb/ques.jpg,stim_fb/posf.jpg,stim_fb/negf.jpg,stim_02/e.jpg,stim_02/f.jpg,2,3,j,2,38,158,58,j,1,0.566513024713,02,03,60.0183956352,PLT_learning_02,A,2014_Mrz_10_1604,P16,
stim_fb/ques.jpg,stim_fb/negf.jpg,stim_fb/posf.jpg,stim_02/d.jpg,stim_02/c.jpg,1,2,f,2,39,159,20,j,0,0.866353522154,02,03,60.0183956352,PLT_learning_02,A,2014_Mrz_10_1604,P16,
stim_fb/ques.jpg,stim_fb/posf.jpg,stim_fb/negf.jpg,stim_02/e.jpg,stim_02/f.jpg,2,3,j,2,40,160,57,j,1,1.33299250682,02,03,60.0183956352,PLT_learning_02,A,2014_Mrz_10_1604,P16,
stim_fb/ques.jpg,stim_fb/negf.jpg,stim_fb/posf.jpg,stim_02/f.jpg,stim_02/e.jpg,1,3,f,2,41,161,43,j,0,1.06635733867,02,03,60.0183956352,PLT_learning_02,A,2014_Mrz_10_1604,P16,
stim_fb/ques.jpg,stim_fb/negf.jpg,stim_fb/posf.jpg,stim_02/d.jpg,stim_02/c.jpg,1,2,f,2,42,162,26,f,1,1.36632621108,02,03,60.0183956352,PLT_learning_02,A,2014_Mrz_10_1604,P16,
stim_fb/ques.jpg,stim_fb/negf.jpg,stim_fb/posf.jpg,stim_02/f.jpg,stim_02/e.jpg,1,3,f,2,43,163,44,j,0,0.866440104962,02,03,60.0183956352,PLT_learning_02,A,2014_Mrz_10_1604,P16,
stim_fb/ques.jpg,stim_fb/negf.jpg,stim_fb/posf.jpg,stim_02/a.jpg,stim_02/b.jpg,2,1,j,2,44,164,15,j,1,0.799791147435,02,03,60.0183956352,PLT_learning_02,A,2014_Mrz_10_1604,P16,
stim_fb/ques.jpg,stim_fb/negf.jpg,stim_fb/posf.jpg,stim_02/d.jpg,stim_02/c.jpg,1,2,f,2,45,165,21,f,1,0.649788479785,02,03,60.0183956352,PLT_learning_02,A,2014_Mrz_10_1604,P16,
stim_fb/ques.jpg,stim_fb/negf.jpg,stim_fb/posf.jpg,stim_02/c.jpg,stim_02/d.jpg,2,2,j,2,46,166,33,j,1,0.716476068601,02,03,60.0183956352,PLT_learning_02,A,2014_Mrz_10_1604,P16,
stim_fb/ques.jpg,stim_fb/negf.jpg,stim_fb/posf.jpg,stim_02/c.jpg,stim_02/d.jpg,2,2,j,2,47,167,35,j,1,0.749794046662,02,03,60.0183956352,PLT_learning_02,A,2014_Mrz_10_1604,P16,
stim_fb/ques.jpg,stim_fb/posf.jpg,stim_fb/negf.jpg,stim_02/f.jpg,stim_02/e.jpg,1,3,f,2,48,168,47,j,0,0.433236604236,02,03,60.0183956352,PLT_learning_02,A,2014_Mrz_10_1604,P16,
stim_fb/ques.jpg,stim_fb/negf.jpg,stim_fb/posf.jpg,stim_02/f.jpg,stim_02/e.jpg,1,3,f,2,49,169,40,j,0,1.44962180736,02,03,60.0183956352,PLT_learning_02,A,2014_Mrz_10_1604,P16,
stim_fb/ques.jpg,stim_fb/negf.jpg,stim_fb/posf.jpg,stim_02/d.jpg,stim_02/c.jpg,1,2,f,2,50,170,23,f,1,0.916478706175,02,03,60.0183956352,PLT_learning_02,A,2014_Mrz_10_1604,P16,
stim_fb/ques.jpg,stim_fb/negf.jpg,stim_fb/posf.jpg,stim_02/d.jpg,stim_02/c.jpg,1,2,f,2,51,171,25,f,1,0.699801297735,02,03,60.0183956352,PLT_learning_02,A,2014_Mrz_10_1604,P16,
stim_fb/ques.jpg,stim_fb/posf.jpg,stim_fb/negf.jpg,stim_02/a.jpg,stim_02/b.jpg,2,1,j,2,52,172,18,j,1,0.78317436711,02,03,60.0183956352,PLT_learning_02,A,2014_Mrz_10_1604,P16,
stim_fb/ques.jpg,stim_fb/negf.jpg,stim_fb/posf.jpg,stim_02/b.jpg,stim_02/a.jpg,1,1,f,2,53,173,1,f,1,0.549858292795,02,03,60.0183956352,PLT_learning_02,A,2014_Mrz_10_1604,P16,
stim_fb/ques.jpg,stim_fb/negf.jpg,stim_fb/posf.jpg,stim_02/d.jpg,stim_02/c.jpg,1,2,f,2,54,174,22,f,1,0.933085176803,02,03,60.0183956352,PLT_learning_02,A,2014_Mrz_10_1604,P16,
stim_fb/ques.jpg,stim_fb/negf.jpg,stim_fb/posf.jpg,stim_02/b.jpg,stim_02/a.jpg,1,1,f,2,55,175,3,f,1,0.69981319539,02,03,60.0183956352,PLT_learning_02,A,2014_Mrz_10_1604,P16,
stim_fb/ques.jpg,stim_fb/negf.jpg,stim_fb/posf.jpg,stim_02/c.jpg,stim_02/d.jpg,2,2,j,2,56,176,31,j,1,1.44956962429,02,03,60.0183956352,PLT_learning_02,A,2014_Mrz_10_1604,P16,
stim_fb/ques.jpg,stim_fb/negf.jpg,stim_fb/posf.jpg,stim_02/e.jpg,stim_02/f.jpg,2,3,j,2,57,177,53,j,1,0.8831354862,02,03,60.0183956352,PLT_learning_02,A,2014_Mrz_10_1604,P16,
stim_fb/ques.jpg,stim_fb/posf.jpg,stim_fb/negf.jpg,stim_02/a.jpg,stim_02/b.jpg,2,1,j,2,58,178,19,j,1,0.59983122533,02,03,60.0183956352,PLT_learning_02,A,2014_Mrz_10_1604,P16,
stim_fb/ques.jpg,stim_fb/negf.jpg,stim_fb/posf.jpg,stim_02/a.jpg,stim_02/b.jpg,2,1,j,2,59,179,14,j,1,1.0996901106,02,03,60.0183956352,PLT_learning_02,A,2014_Mrz_10_1604,P16,
stim_fb/ques.jpg,stim_fb/negf.jpg,stim_fb/posf.jpg,stim_02/b.jpg,stim_02/a.jpg,1,1,f,3,0,180,4,f,1,0.91642577725,02,03,60.0183956352,PLT_learning_02,A,2014_Mrz_10_1604,P16,
stim_fb/ques.jpg,stim_fb/negf.jpg,stim_fb/posf.jpg,stim_02/b.jpg,stim_02/a.jpg,1,1,f,3,1,181,6,f,1,0.683130514808,02,03,60.0183956352,PLT_learning_02,A,2014_Mrz_10_1604,P16,
stim_fb/ques.jpg,stim_fb/posf.jpg,stim_fb/negf.jpg,stim_02/e.jpg,stim_02/f.jpg,2,3,j,3,2,182,56,j,1,0.933076015969,02,03,60.0183956352,PLT_learning_02,A,2014_Mrz_10_1604,P16,
stim_fb/ques.jpg,stim_fb/negf.jpg,stim_fb/posf.jpg,stim_02/b.jpg,stim_02/a.jpg,1,1,f,3,3,183,1,f,1,0.999717268292,02,03,60.0183956352,PLT_learning_02,A,2014_Mrz_10_1604,P16,
stim_fb/ques.jpg,stim_fb/negf.jpg,stim_fb/posf.jpg,stim_02/c.jpg,stim_02/d.jpg,2,2,j,3,4,184,33,j,1,0.749811977354,02,03,60.0183956352,PLT_learning_02,A,2014_Mrz_10_1604,P16,
stim_fb/ques.jpg,stim_fb/negf.jpg,stim_fb/posf.jpg,stim_02/d.jpg,stim_02/c.jpg,1,2,f,3,5,185,23,f,1,0.549876764836,02,03,60.0183956352,PLT_learning_02,A,2014_Mrz_10_1604,P16,
stim_fb/ques.jpg,stim_fb/posf.jpg,stim_fb/negf.jpg,stim_02/c.jpg,stim_02/d.jpg,2,2,j,3,6,186,37,j,1,0.566537863625,02,03,60.0183956352,PLT_learning_02,A,2014_Mrz_10_1604,P16,
stim_fb/ques.jpg,stim_fb/posf.jpg,stim_fb/negf.jpg,stim_02/f.jpg,stim_02/e.jpg,1,3,f,3,7,187,48,f,1,1.53284492297,02,03,60.0183956352,PLT_learning_02,A,2014_Mrz_10_1604,P16,
stim_fb/ques.jpg,stim_fb/negf.jpg,stim_fb/posf.jpg,stim_02/d.jpg,stim_02/c.jpg,1,2,f,3,8,188,21,j,0,1.03306317998,02,03,60.0183956352,PLT_learning_02,A,2014_Mrz_10_1604,P16,
stim_fb/ques.jpg,stim_fb/negf.jpg,stim_fb/posf.jpg,stim_02/a.jpg,stim_02/b.jpg,2,1,j,3,9,189,10,j,1,0.833117086338,02,03,60.0183956352,PLT_learning_02,A,2014_Mrz_10_1604,P16,
stim_fb/ques.jpg,stim_fb/negf.jpg,stim_fb/posf.jpg,stim_02/b.jpg,stim_02/a.jpg,1,1,f,3,10,190,7,f,1,0.799817411899,02,03,60.0183956352,PLT_learning_02,A,2014_Mrz_10_1604,P16,
stim_fb/ques.jpg,stim_fb/posf.jpg,stim_fb/negf.jpg,stim_02/b.jpg,stim_02/a.jpg,1,1,f,3,11,191,8,f,1,0.716487268517,02,03,60.0183956352,PLT_learning_02,A,2014_Mrz_10_1604,P16,
stim_fb/ques.jpg,stim_fb/negf.jpg,stim_fb/posf.jpg,stim_02/e.jpg,stim_02/f.jpg,2,3,j,3,12,192,55,j,1,1.29962273667,02,03,60.0183956352,PLT_learning_02,A,2014_Mrz_10_1604,P16,
stim_fb/ques.jpg,stim_fb/posf.jpg,stim_fb/negf.jpg,stim_02/a.jpg,stim_02/b.jpg,2,1,j,3,13,193,19,j,1,0.549888064,02,03,60.0183956352,PLT_learning_02,A,2014_Mrz_10_1604,P16,
stim_fb/ques.jpg,stim_fb/posf.jpg,stim_fb/negf.jpg,stim_02/d.jpg,stim_02/c.jpg,1,2,f,3,14,194,29,f,1,1.58285610183,02,03,60.0183956352,PLT_learning_02,A,2014_Mrz_10_1604,P16,
stim_fb/ques.jpg,stim_fb/negf.jpg,stim_fb/posf.jpg,stim_02/e.jpg,stim_02/f.jpg,2,3,j,3,15,195,51,j,1,0.966375109962,02,03,60.0183956352,PLT_learning_02,A,2014_Mrz_10_1604,P16,
stim_fb/ques.jpg,stim_fb/posf.jpg,stim_fb/negf.jpg,stim_02/c.jpg,stim_02/d.jpg,2,2,j,3,16,196,38,j,1,0.833089835414,02,03,60.0183956352,PLT_learning_02,A,2014_Mrz_10_1604,P16,
stim_fb/ques.jpg,stim_fb/negf.jpg,stim_fb/posf.jpg,stim_02/d.jpg,stim_02/c.jpg,1,2,f,3,17,197,20,j,0,0.91641953068,02,03,60.0183956352,PLT_learning_02,A,2014_Mrz_10_1604,P16,
stim_fb/ques.jpg,stim_fb/negf.jpg,stim_fb/posf.jpg,stim_02/a.jpg,stim_02/b.jpg,2,1,j,3,18,198,15,j,1,0.766479830979,02,03,60.0183956352,PLT_learning_02,A,2014_Mrz_10_1604,P16,
stim_fb/ques.jpg,stim_fb/negf.jpg,stim_fb/posf.jpg,stim_02/d.jpg,stim_02/c.jpg,1,2,f,3,19,199,22,f,1,1.38293226668,02,03,60.0183956352,PLT_learning_02,A,2014_Mrz_10_1604,P16,
stim_fb/ques.jpg,stim_fb/posf.jpg,stim_fb/negf.jpg,stim_02/f.jpg,stim_02/e.jpg,1,3,f,3,20,200,46,None,0,,02,03,60.0183956352,PLT_learning_02,A,2014_Mrz_10_1604,P16,
stim_fb/ques.jpg,stim_fb/negf.jpg,stim_fb/posf.jpg,stim_02/e.jpg,stim_02/f.jpg,2,3,j,3,21,201,54,j,1,0.833143627491,02,03,60.0183956352,PLT_learning_02,A,2014_Mrz_10_1604,P16,
stim_fb/ques.jpg,stim_fb/negf.jpg,stim_fb/posf.jpg,stim_02/e.jpg,stim_02/f.jpg,2,3,j,3,22,202,52,j,1,0.499882545244,02,03,60.0183956352,PLT_learning_02,A,2014_Mrz_10_1604,P16,
stim_fb/ques.jpg,stim_fb/negf.jpg,stim_fb/posf.jpg,stim_02/f.jpg,stim_02/e.jpg,1,3,f,3,23,203,42,f,1,0.983064274705,02,03,60.0183956352,PLT_learning_02,A,2014_Mrz_10_1604,P16,
stim_fb/ques.jpg,stim_fb/negf.jpg,stim_fb/posf.jpg,stim_02/c.jpg,stim_02/d.jpg,2,2,j,3,24,204,30,j,1,0.783121254728,02,03,60.0183956352,PLT_learning_02,A,2014_Mrz_10_1604,P16,
stim_fb/ques.jpg,stim_fb/negf.jpg,stim_fb/posf.jpg,stim_02/a.jpg,stim_02/b.jpg,2,1,j,3,25,205,14,j,1,0.599851718408,02,03,60.0183956352,PLT_learning_02,A,2014_Mrz_10_1604,P16,
stim_fb/ques.jpg,stim_fb/negf.jpg,stim_fb/posf.jpg,stim_02/f.jpg,stim_02/e.jpg,1,3,f,3,26,206,41,j,0,0.733188658732,02,03,60.0183956352,PLT_learning_02,A,2014_Mrz_10_1604,P16,
stim_fb/ques.jpg,stim_fb/negf.jpg,stim_fb/posf.jpg,stim_02/f.jpg,stim_02/e.jpg,1,3,f,3,27,207,43,j,0,1.43291977354,02,03,60.0183956352,PLT_learning_02,A,2014_Mrz_10_1604,P16,
stim_fb/ques.jpg,stim_fb/posf.jpg,stim_fb/negf.jpg,stim_02/f.jpg,stim_02/e.jpg,1,3,f,3,28,208,49,j,0,1.2163249359,02,03,60.0183956352,PLT_learning_02,A,2014_Mrz_10_1604,P16,
stim_fb/ques.jpg,stim_fb/negf.jpg,stim_fb/posf.jpg,stim_02/c.jpg,stim_02/d.jpg,2,2,j,3,29,209,36,j,1,0.649800094737,02,03,60.0183956352,PLT_learning_02,A,2014_Mrz_10_1604,P16,
stim_fb/ques.jpg,stim_fb/negf.jpg,stim_fb/posf.jpg,stim_02/b.jpg,stim_02/a.jpg,1,1,f,3,30,210,3,f,1,0.866485133194,02,03,60.0183956352,PLT_learning_02,A,2014_Mrz_10_1604,P16,
stim_fb/ques.jpg,stim_fb/negf.jpg,stim_fb/posf.jpg,stim_02/f.jpg,stim_02/e.jpg,1,3,f,3,31,211,44,f,1,0.999725394546,02,03,60.0183956352,PLT_learning_02,A,2014_Mrz_10_1604,P16,
stim_fb/ques.jpg,stim_fb/negf.jpg,stim_fb/posf.jpg,stim_02/f.jpg,stim_02/e.jpg,1,3,f,3,32,212,45,j,0,0.516547210923,02,03,60.0183956352,PLT_learning_02,A,2014_Mrz_10_1604,P16,
stim_fb/ques.jpg,stim_fb/negf.jpg,stim_fb/posf.jpg,stim_02/a.jpg,stim_02/b.jpg,2,1,j,3,33,213,11,j,1,0.699835312516,02,03,60.0183956352,PLT_learning_02,A,2014_Mrz_10_1604,P16,
stim_fb/ques.jpg,stim_fb/negf.jpg,stim_fb/posf.jpg,stim_02/c.jpg,stim_02/d.jpg,2,2,j,3,34,214,32,j,1,0.783104244329,02,03,60.0183956352,PLT_learning_02,A,2014_Mrz_10_1604,P16,
stim_fb/ques.jpg,stim_fb/negf.jpg,stim_fb/posf.jpg,stim_02/d.jpg,stim_02/c.jpg,1,2,f,3,35,215,25,f,1,0.716465713792,02,03,60.0183956352,PLT_learning_02,A,2014_Mrz_10_1604,P16,
stim_fb/ques.jpg,stim_fb/posf.jpg,stim_fb/negf.jpg,stim_02/d.jpg,stim_02/c.jpg,1,2,f,3,36,216,27,f,1,0.866440014736,02,03,60.0183956352,PLT_learning_02,A,2014_Mrz_10_1604,P16,
stim_fb/ques.jpg,stim_fb/posf.jpg,stim_fb/negf.jpg,stim_02/b.jpg,stim_02/a.jpg,1,1,f,3,37,217,9,f,1,0.816437172653,02,03,60.0183956352,PLT_learning_02,A,2014_Mrz_10_1604,P16,
stim_fb/ques.jpg,stim_fb/negf.jpg,stim_fb/posf.jpg,stim_02/a.jpg,stim_02/b.jpg,2,1,j,3,38,218,17,f,0,0.833095074473,02,03,60.0183956352,PLT_learning_02,A,2014_Mrz_10_1604,P16,
stim_fb/ques.jpg,stim_fb/negf.jpg,stim_fb/posf.jpg,stim_02/c.jpg,stim_02/d.jpg,2,2,j,3,39,219,31,j,1,0.599860647664,02,03,60.0183956352,PLT_learning_02,A,2014_Mrz_10_1604,P16,
stim_fb/ques.jpg,stim_fb/posf.jpg,stim_fb/negf.jpg,stim_02/e.jpg,stim_02/f.jpg,2,3,j,3,40,220,59,j,1,0.61650832099,02,03,60.0183956352,PLT_learning_02,A,2014_Mrz_10_1604,P16,
stim_fb/ques.jpg,stim_fb/negf.jpg,stim_fb/posf.jpg,stim_02/b.jpg,stim_02/a.jpg,1,1,f,3,41,221,2,f,1,1.51623396516,02,03,60.0183956352,PLT_learning_02,A,2014_Mrz_10_1604,P16,
stim_fb/ques.jpg,stim_fb/negf.jpg,stim_fb/posf.jpg,stim_02/d.jpg,stim_02/c.jpg,1,2,f,3,42,222,24,f,1,0.749789866241,02,03,60.0183956352,PLT_learning_02,A,2014_Mrz_10_1604,P16,
stim_fb/ques.jpg,stim_fb/negf.jpg,stim_fb/posf.jpg,stim_02/a.jpg,stim_02/b.jpg,2,1,j,3,43,223,16,j,1,0.733125546425,02,03,60.0183956352,PLT_learning_02,A,2014_Mrz_10_1604,P16,
stim_fb/ques.jpg,stim_fb/posf.jpg,stim_fb/negf.jpg,stim_02/e.jpg,stim_02/f.jpg,2,3,j,3,44,224,58,j,1,1.14961374726,02,03,60.0183956352,PLT_learning_02,A,2014_Mrz_10_1604,P16,
stim_fb/ques.jpg,stim_fb/posf.jpg,stim_fb/negf.jpg,stim_02/f.jpg,stim_02/e.jpg,1,3,f,3,45,225,47,f,1,1.36628106556,02,03,60.0183956352,PLT_learning_02,A,2014_Mrz_10_1604,P16,
stim_fb/ques.jpg,stim_fb/posf.jpg,stim_fb/negf.jpg,stim_02/c.jpg,stim_02/d.jpg,2,2,j,3,46,226,39,j,1,0.633173443808,02,03,60.0183956352,PLT_learning_02,A,2014_Mrz_10_1604,P16,
stim_fb/ques.jpg,stim_fb/negf.jpg,stim_fb/posf.jpg,stim_02/f.jpg,stim_02/e.jpg,1,3,f,3,47,227,40,f,1,1.09965914843,02,03,60.0183956352,PLT_learning_02,A,2014_Mrz_10_1604,P16,
stim_fb/ques.jpg,stim_fb/negf.jpg,stim_fb/posf.jpg,stim_02/e.jpg,stim_02/f.jpg,2,3,j,3,48,228,50,j,1,0.883068497229,02,03,60.0183956352,PLT_learning_02,A,2014_Mrz_10_1604,P16,
stim_fb/ques.jpg,stim_fb/negf.jpg,stim_fb/posf.jpg,stim_02/c.jpg,stim_02/d.jpg,2,2,j,3,49,229,35,j,1,0.833083621927,02,03,60.0183956352,PLT_learning_02,A,2014_Mrz_10_1604,P16,
stim_fb/ques.jpg,stim_fb/negf.jpg,stim_fb/posf.jpg,stim_02/b.jpg,stim_02/a.jpg,1,1,f,3,50,230,5,f,1,0.699799234592,02,03,60.0183956352,PLT_learning_02,A,2014_Mrz_10_1604,P16,
stim_fb/ques.jpg,stim_fb/negf.jpg,stim_fb/posf.jpg,stim_02/b.jpg,stim_02/a.jpg,1,1,f,3,51,231,0,f,1,0.699829989248,02,03,60.0183956352,PLT_learning_02,A,2014_Mrz_10_1604,P16,
stim_fb/ques.jpg,stim_fb/negf.jpg,stim_fb/posf.jpg,stim_02/a.jpg,stim_02/b.jpg,2,1,j,3,52,232,13,j,1,0.516534510267,02,03,60.0183956352,PLT_learning_02,A,2014_Mrz_10_1604,P16,
stim_fb/ques.jpg,stim_fb/posf.jpg,stim_fb/negf.jpg,stim_02/a.jpg,stim_02/b.jpg,2,1,j,3,53,233,18,j,1,0.566516017173,02,03,60.0183956352,PLT_learning_02,A,2014_Mrz_10_1604,P16,
stim_fb/ques.jpg,stim_fb/negf.jpg,stim_fb/posf.jpg,stim_02/a.jpg,stim_02/b.jpg,2,1,j,3,54,234,12,j,1,1.26632447876,02,03,60.0183956352,PLT_learning_02,A,2014_Mrz_10_1604,P16,
stim_fb/ques.jpg,stim_fb/negf.jpg,stim_fb/posf.jpg,stim_02/d.jpg,stim_02/c.jpg,1,2,f,3,55,235,26,f,1,0.833063934858,02,03,60.0183956352,PLT_learning_02,A,2014_Mrz_10_1604,P16,
stim_fb/ques.jpg,stim_fb/negf.jpg,stim_fb/posf.jpg,stim_02/e.jpg,stim_02/f.jpg,2,3,j,3,56,236,53,j,1,0.516569352109,02,03,60.0183956352,PLT_learning_02,A,2014_Mrz_10_1604,P16,
stim_fb/ques.jpg,stim_fb/posf.jpg,stim_fb/negf.jpg,stim_02/d.jpg,stim_02/c.jpg,1,2,f,3,57,237,28,f,1,0.649836127548,02,03,60.0183956352,PLT_learning_02,A,2014_Mrz_10_1604,P16,
stim_fb/ques.jpg,stim_fb/negf.jpg,stim_fb/posf.jpg,stim_02/c.jpg,stim_02/d.jpg,2,2,j,3,58,238,34,j,1,0.733135164397,02,03,60.0183956352,PLT_learning_02,A,2014_Mrz_10_1604,P16,
stim_fb/ques.jpg,stim_fb/posf.jpg,stim_fb/negf.jpg,stim_02/e.jpg,stim_02/f.jpg,2,3,j,3,59,239,57,j,1,0.799789288802,02,03,60.0183956352,PLT_learning_02,A,2014_Mrz_10_1604,P16,
stim_fb/ques.jpg,stim_fb/posf.jpg,stim_fb/negf.jpg,stim_02/c.jpg,stim_02/d.jpg,2,2,j,4,0,240,39,j,1,0.799782777573,02,03,60.0183956352,PLT_learning_02,A,2014_Mrz_10_1604,P16,
stim_fb/ques.jpg,stim_fb/negf.jpg,stim_fb/posf.jpg,stim_02/a.jpg,stim_02/b.jpg,2,1,j,4,1,241,13,j,1,0.616471665626,02,03,60.0183956352,PLT_learning_02,A,2014_Mrz_10_1604,P16,
stim_fb/ques.jpg,stim_fb/negf.jpg,stim_fb/posf.jpg,stim_02/d.jpg,stim_02/c.jpg,1,2,f,4,2,242,23,f,1,0.899740780897,02,03,60.0183956352,PLT_learning_02,A,2014_Mrz_10_1604,P16,
stim_fb/ques.jpg,stim_fb/negf.jpg,stim_fb/posf.jpg,stim_02/b.jpg,stim_02/a.jpg,1,1,f,4,3,243,6,f,1,0.633165233345,02,03,60.0183956352,PLT_learning_02,A,2014_Mrz_10_1604,P16,
stim_fb/ques.jpg,stim_fb/posf.jpg,stim_fb/negf.jpg,stim_02/e.jpg,stim_02/f.jpg,2,3,j,4,4,244,59,j,1,0.599850139473,02,03,60.0183956352,PLT_learning_02,A,2014_Mrz_10_1604,P16,
stim_fb/ques.jpg,stim_fb/negf.jpg,stim_fb/posf.jpg,stim_02/e.jpg,stim_02/f.jpg,2,3,j,4,5,245,55,j,1,1.09971051045,02,03,60.0183956352,PLT_learning_02,A,2014_Mrz_10_1604,P16,
stim_fb/ques.jpg,stim_fb/negf.jpg,stim_fb/posf.jpg,stim_02/f.jpg,stim_02/e.jpg,1,3,f,4,6,246,45,f,1,0.999720790071,02,03,60.0183956352,PLT_learning_02,A,2014_Mrz_10_1604,P16,
stim_fb/ques.jpg,stim_fb/posf.jpg,stim_fb/negf.jpg,stim_02/e.jpg,stim_02/f.jpg,2,3,j,4,7,247,57,j,1,0.933083576814,02,03,60.0183956352,PLT_learning_02,A,2014_Mrz_10_1604,P16,
stim_fb/ques.jpg,stim_fb/negf.jpg,stim_fb/posf.jpg,stim_02/a.jpg,stim_02/b.jpg,2,1,j,4,8,248,16,j,1,0.949736847093,02,03,60.0183956352,PLT_learning_02,A,2014_Mrz_10_1604,P16,
stim_fb/ques.jpg,stim_fb/negf.jpg,stim_fb/posf.jpg,stim_02/c.jpg,stim_02/d.jpg,2,2,j,4,9,249,33,j,1,0.783135483192,02,03,60.0183956352,PLT_learning_02,A,2014_Mrz_10_1604,P16,
stim_fb/ques.jpg,stim_fb/negf.jpg,stim_fb/posf.jpg,stim_02/f.jpg,stim_02/e.jpg,1,3,f,4,10,250,40,None,0,,02,03,60.0183956352,PLT_learning_02,A,2014_Mrz_10_1604,P16,
stim_fb/ques.jpg,stim_fb/negf.jpg,stim_fb/posf.jpg,stim_02/d.jpg,stim_02/c.jpg,1,2,f,4,11,251,24,f,1,0.949743794406,02,03,60.0183956352,PLT_learning_02,A,2014_Mrz_10_1604,P16,
stim_fb/ques.jpg,stim_fb/negf.jpg,stim_fb/posf.jpg,stim_02/e.jpg,stim_02/f.jpg,2,3,j,4,12,252,50,j,1,0.683162941632,02,03,60.0183956352,PLT_learning_02,A,2014_Mrz_10_1604,P16,
stim_fb/ques.jpg,stim_fb/negf.jpg,stim_fb/posf.jpg,stim_02/a.jpg,stim_02/b.jpg,2,1,j,4,13,253,12,j,1,0.633228811814,02,03,60.0183956352,PLT_learning_02,A,2014_Mrz_10_1604,P16,
stim_fb/ques.jpg,stim_fb/negf.jpg,stim_fb/posf.jpg,stim_02/c.jpg,stim_02/d.jpg,2,2,j,4,14,254,32,j,1,0.866391043677,02,03,60.0183956352,PLT_learning_02,A,2014_Mrz_10_1604,P16,
stim_fb/ques.jpg,stim_fb/negf.jpg,stim_fb/posf.jpg,stim_02/b.jpg,stim_02/a.jpg,1,1,f,4,15,255,2,f,1,1.08302252464,02,03,60.0183956352,PLT_learning_02,A,2014_Mrz_10_1604,P16,
stim_fb/ques.jpg,stim_fb/negf.jpg,stim_fb/posf.jpg,stim_02/a.jpg,stim_02/b.jpg,2,1,j,4,16,256,15,j,1,0.516549153766,02,03,60.0183956352,PLT_learning_02,A,2014_Mrz_10_1604,P16,
stim_fb/ques.jpg,stim_fb/posf.jpg,stim_fb/negf.jpg,stim_02/b.jpg,stim_02/a.jpg,1,1,f,4,17,257,8,f,1,0.849769129556,02,03,60.0183956352,PLT_learning_02,A,2014_Mrz_10_1604,P16,
stim_fb/ques.jpg,stim_fb/posf.jpg,stim_fb/negf.jpg,stim_02/c.jpg,stim_02/d.jpg,2,2,j,4,18,258,37,j,1,0.683140216992,02,03,60.0183956352,PLT_learning_02,A,2014_Mrz_10_1604,P16,
stim_fb/ques.jpg,stim_fb/posf.jpg,stim_fb/negf.jpg,stim_02/d.jpg,stim_02/c.jpg,1,2,f,4,19,259,29,j,0,0.533215398382,02,03,60.0183956352,PLT_learning_02,A,2014_Mrz_10_1604,P16,
stim_fb/ques.jpg,stim_fb/posf.jpg,stim_fb/negf.jpg,stim_02/d.jpg,stim_02/c.jpg,1,2,f,4,20,260,27,f,1,0.799789445193,02,03,60.0183956352,PLT_learning_02,A,2014_Mrz_10_1604,P16,
stim_fb/ques.jpg,stim_fb/negf.jpg,stim_fb/posf.jpg,stim_02/b.jpg,stim_02/a.jpg,1,1,f,4,21,261,7,f,1,0.633170974654,02,03,60.0183956352,PLT_learning_02,A,2014_Mrz_10_1604,P16,
stim_fb/ques.jpg,stim_fb/negf.jpg,stim_fb/posf.jpg,stim_02/f.jpg,stim_02/e.jpg,1,3,f,4,22,262,42,f,1,0.566556028902,02,03,60.0183956352,PLT_learning_02,A,2014_Mrz_10_1604,P16,
stim_fb/ques.jpg,stim_fb/negf.jpg,stim_fb/posf.jpg,stim_02/a.jpg,stim_02/b.jpg,2,1,j,4,23,263,10,j,1,0.616517767536,02,03,60.0183956352,PLT_learning_02,A,2014_Mrz_10_1604,P16,
stim_fb/ques.jpg,stim_fb/negf.jpg,stim_fb/posf.jpg,stim_02/b.jpg,stim_02/a.jpg,1,1,f,4,24,264,5,f,1,0.666488453469,02,03,60.0183956352,PLT_learning_02,A,2014_Mrz_10_1604,P16,
stim_fb/ques.jpg,stim_fb/posf.jpg,stim_fb/negf.jpg,stim_02/c.jpg,stim_02/d.jpg,2,2,j,4,25,265,38,j,1,1.04975437177,02,03,60.0183956352,PLT_learning_02,A,2014_Mrz_10_1604,P16,
stim_fb/ques.jpg,stim_fb/posf.jpg,stim_fb/negf.jpg,stim_02/e.jpg,stim_02/f.jpg,2,3,j,4,26,266,58,j,1,0.916410592401,02,03,60.0183956352,PLT_learning_02,A,2014_Mrz_10_1604,P16,
stim_fb/ques.jpg,stim_fb/negf.jpg,stim_fb/posf.jpg,stim_02/b.jpg,stim_02/a.jpg,1,1,f,4,27,267,1,f,1,1.26630941121,02,03,60.0183956352,PLT_learning_02,A,2014_Mrz_10_1604,P16,
stim_fb/ques.jpg,stim_fb/negf.jpg,stim_fb/posf.jpg,stim_02/b.jpg,stim_02/a.jpg,1,1,f,4,28,268,3,f,1,1.24963688995,02,03,60.0183956352,PLT_learning_02,A,2014_Mrz_10_1604,P16,
stim_fb/ques.jpg,stim_fb/negf.jpg,stim_fb/posf.jpg,stim_02/c.jpg,stim_02/d.jpg,2,2,j,4,29,269,35,j,1,0.816440020752,02,03,60.0183956352,PLT_learning_02,A,2014_Mrz_10_1604,P16,
stim_fb/ques.jpg,stim_fb/posf.jpg,stim_fb/negf.jpg,stim_02/d.jpg,stim_02/c.jpg,1,2,f,4,30,270,28,f,1,0.899778765572,02,03,60.0183956352,PLT_learning_02,A,2014_Mrz_10_1604,P16,
stim_fb/ques.jpg,stim_fb/negf.jpg,stim_fb/posf.jpg,stim_02/e.jpg,stim_02/f.jpg,2,3,j,4,31,271,53,f,0,1.31627458741,02,03,60.0183956352,PLT_learning_02,A,2014_Mrz_10_1604,P16,
stim_fb/ques.jpg,stim_fb/posf.jpg,stim_fb/negf.jpg,stim_02/f.jpg,stim_02/e.jpg,1,3,f,4,32,272,46,f,1,1.08299114142,02,03,60.0183956352,PLT_learning_02,A,2014_Mrz_10_1604,P16,
stim_fb/ques.jpg,stim_fb/negf.jpg,stim_fb/posf.jpg,stim_02/d.jpg,stim_02/c.jpg,1,2,f,4,33,273,26,f,1,0.666480354284,02,03,60.0183956352,PLT_learning_02,A,2014_Mrz_10_1604,P16,
stim_fb/ques.jpg,stim_fb/posf.jpg,stim_fb/negf.jpg,stim_02/f.jpg,stim_02/e.jpg,1,3,f,4,34,274,49,f,1,1.14964109443,02,03,60.0183956352,PLT_learning_02,A,2014_Mrz_10_1604,P16,
stim_fb/ques.jpg,stim_fb/negf.jpg,stim_fb/posf.jpg,stim_02/d.jpg,stim_02/c.jpg,1,2,f,4,35,275,20,f,1,0.649884885075,02,03,60.0183956352,PLT_learning_02,A,2014_Mrz_10_1604,P16,
stim_fb/ques.jpg,stim_fb/negf.jpg,stim_fb/posf.jpg,stim_02/b.jpg,stim_02/a.jpg,1,1,f,4,36,276,4,f,1,0.699805499207,02,03,60.0183956352,PLT_learning_02,A,2014_Mrz_10_1604,P16,
stim_fb/ques.jpg,stim_fb/negf.jpg,stim_fb/posf.jpg,stim_02/e.jpg,stim_02/f.jpg,2,3,j,4,37,277,54,j,1,0.699805655597,02,03,60.0183956352,PLT_learning_02,A,2014_Mrz_10_1604,P16,
stim_fb/ques.jpg,stim_fb/negf.jpg,stim_fb/posf.jpg,stim_02/a.jpg,stim_02/b.jpg,2,1,j,4,38,278,11,j,1,0.683112313442,02,03,60.0183956352,PLT_learning_02,A,2014_Mrz_10_1604,P16,
stim_fb/ques.jpg,stim_fb/posf.jpg,stim_fb/negf.jpg,stim_02/b.jpg,stim_02/a.jpg,1,1,f,4,39,279,9,f,1,0.783200872174,02,03,60.0183956352,PLT_learning_02,A,2014_Mrz_10_1604,P16,
stim_fb/ques.jpg,stim_fb/negf.jpg,stim_fb/posf.jpg,stim_02/e.jpg,stim_02/f.jpg,2,3,j,4,40,280,52,j,1,0.633166057398,02,03,60.0183956352,PLT_learning_02,A,2014_Mrz_10_1604,P16,
stim_fb/ques.jpg,stim_fb/negf.jpg,stim_fb/posf.jpg,stim_02/a.jpg,stim_02/b.jpg,2,1,j,4,41,281,17,j,1,0.666510146541,02,03,60.0183956352,PLT_learning_02,A,2014_Mrz_10_1604,P16,
stim_fb/ques.jpg,stim_fb/negf.jpg,stim_fb/posf.jpg,stim_02/c.jpg,stim_02/d.jpg,2,2,j,4,42,282,31,j,1,0.766458667227,02,03,60.0183956352,PLT_learning_02,A,2014_Mrz_10_1604,P16,
stim_fb/ques.jpg,stim_fb/posf.jpg,stim_fb/negf.jpg,stim_02/a.jpg,stim_02/b.jpg,2,1,j,4,43,283,19,j,1,0.583173446816,02,03,60.0183956352,PLT_learning_02,A,2014_Mrz_10_1604,P16,
stim_fb/ques.jpg,stim_fb/negf.jpg,stim_fb/posf.jpg,stim_02/c.jpg,stim_02/d.jpg,2,2,j,4,44,284,30,j,1,0.749828837375,02,03,60.0183956352,PLT_learning_02,A,2014_Mrz_10_1604,P16,
stim_fb/ques.jpg,stim_fb/negf.jpg,stim_fb/posf.jpg,stim_02/a.jpg,stim_02/b.jpg,2,1,j,4,45,285,14,j,1,0.549834530568,02,03,60.0183956352,PLT_learning_02,A,2014_Mrz_10_1604,P16,
stim_fb/ques.jpg,stim_fb/negf.jpg,stim_fb/posf.jpg,stim_02/f.jpg,stim_02/e.jpg,1,3,f,4,46,286,43,f,1,0.666433599747,02,03,60.0183956352,PLT_learning_02,A,2014_Mrz_10_1604,P16,
stim_fb/ques.jpg,stim_fb/negf.jpg,stim_fb/posf.jpg,stim_02/d.jpg,stim_02/c.jpg,1,2,f,4,47,287,22,f,1,0.899751929684,02,03,60.0183956352,PLT_learning_02,A,2014_Mrz_10_1604,P16,
stim_fb/ques.jpg,stim_fb/posf.jpg,stim_fb/negf.jpg,stim_02/f.jpg,stim_02/e.jpg,1,3,f,4,48,288,47,f,1,1.11637306787,02,03,60.0183956352,PLT_learning_02,A,2014_Mrz_10_1604,P16,
stim_fb/ques.jpg,stim_fb/negf.jpg,stim_fb/posf.jpg,stim_02/d.jpg,stim_02/c.jpg,1,2,f,4,49,289,21,f,1,0.74977730393,02,03,60.0183956352,PLT_learning_02,A,2014_Mrz_10_1604,P16,
stim_fb/ques.jpg,stim_fb/negf.jpg,stim_fb/posf.jpg,stim_02/f.jpg,stim_02/e.jpg,1,3,f,4,50,290,41,j,0,0.666464044631,02,03,60.0183956352,PLT_learning_02,A,2014_Mrz_10_1604,P16,
stim_fb/ques.jpg,stim_fb/posf.jpg,stim_fb/negf.jpg,stim_02/f.jpg,stim_02/e.jpg,1,3,f,4,51,291,48,f,1,0.516603027045,02,03,60.0183956352,PLT_learning_02,A,2014_Mrz_10_1604,P16,
stim_fb/ques.jpg,stim_fb/posf.jpg,stim_fb/negf.jpg,stim_02/e.jpg,stim_02/f.jpg,2,3,j,4,52,292,56,j,1,0.66648683243,02,03,60.0183956352,PLT_learning_02,A,2014_Mrz_10_1604,P16,
stim_fb/ques.jpg,stim_fb/negf.jpg,stim_fb/posf.jpg,stim_02/f.jpg,stim_02/e.jpg,1,3,f,4,53,293,44,f,1,1.13302775468,02,03,60.0183956352,PLT_learning_02,A,2014_Mrz_10_1604,P16,
stim_fb/ques.jpg,stim_fb/negf.jpg,stim_fb/posf.jpg,stim_02/d.jpg,stim_02/c.jpg,1,2,f,4,54,294,25,f,1,1.03305302968,02,03,60.0183956352,PLT_learning_02,A,2014_Mrz_10_1604,P16,
stim_fb/ques.jpg,stim_fb/negf.jpg,stim_fb/posf.jpg,stim_02/c.jpg,stim_02/d.jpg,2,2,j,4,55,295,34,j,1,0.816430742627,02,03,60.0183956352,PLT_learning_02,A,2014_Mrz_10_1604,P16,
stim_fb/ques.jpg,stim_fb/posf.jpg,stim_fb/negf.jpg,stim_02/a.jpg,stim_02/b.jpg,2,1,j,4,56,296,18,j,1,0.666490444433,02,03,60.0183956352,PLT_learning_02,A,2014_Mrz_10_1604,P16,
stim_fb/ques.jpg,stim_fb/negf.jpg,stim_fb/posf.jpg,stim_02/b.jpg,stim_02/a.jpg,1,1,f,4,57,297,0,f,1,1.01638155803,02,03,60.0183956352,PLT_learning_02,A,2014_Mrz_10_1604,P16,
stim_fb/ques.jpg,stim_fb/negf.jpg,stim_fb/posf.jpg,stim_02/e.jpg,stim_02/f.jpg,2,3,j,4,58,298,51,j,1,1.11635811761,02,03,60.0183956352,PLT_learning_02,A,2014_Mrz_10_1604,P16,
stim_fb/ques.jpg,stim_fb/negf.jpg,stim_fb/posf.jpg,stim_02/c.jpg,stim_02/d.jpg,2,2,j,4,59,299,36,j,1,0.84974718085,02,03,60.0183956352,PLT_learning_02,A,2014_Mrz_10_1604,P16,
stim_fb/ques.jpg,stim_fb/negf.jpg,stim_fb/posf.jpg,stim_02/d.jpg,stim_02/c.jpg,1,2,f,5,0,300,25,f,1,1.06636607544,02,03,60.0183956352,PLT_learning_02,A,2014_Mrz_10_1604,P16,
stim_fb/ques.jpg,stim_fb/negf.jpg,stim_fb/posf.jpg,stim_02/e.jpg,stim_02/f.jpg,2,3,j,5,1,301,53,j,1,0.833094981241,02,03,60.0183956352,PLT_learning_02,A,2014_Mrz_10_1604,P16,
stim_fb/ques.jpg,stim_fb/negf.jpg,stim_fb/posf.jpg,stim_02/d.jpg,stim_02/c.jpg,1,2,f,5,2,302,21,f,1,0.883104265382,02,03,60.0183956352,PLT_learning_02,A,2014_Mrz_10_1604,P16,
stim_fb/ques.jpg,stim_fb/posf.jpg,stim_fb/negf.jpg,stim_02/f.jpg,stim_02/e.jpg,1,3,f,5,3,303,46,f,1,0.899729674213,02,03,60.0183956352,PLT_learning_02,A,2014_Mrz_10_1604,P16,
stim_fb/ques.jpg,stim_fb/posf.jpg,stim_fb/negf.jpg,stim_02/a.jpg,stim_02/b.jpg,2,1,j,5,4,304,18,j,1,0.933401463148,02,03,60.0183956352,PLT_learning_02,A,2014_Mrz_10_1604,P16,
stim_fb/ques.jpg,stim_fb/negf.jpg,stim_fb/posf.jpg,stim_02/b.jpg,stim_02/a.jpg,1,1,f,5,5,305,7,f,1,1.08301890963,02,03,60.0183956352,PLT_learning_02,A,2014_Mrz_10_1604,P16,
stim_fb/ques.jpg,stim_fb/negf.jpg,stim_fb/posf.jpg,stim_02/a.jpg,stim_02/b.jpg,2,1,j,5,6,306,13,j,1,0.599844295908,02,03,60.0183956352,PLT_learning_02,A,2014_Mrz_10_1604,P16,
stim_fb/ques.jpg,stim_fb/negf.jpg,stim_fb/posf.jpg,stim_02/c.jpg,stim_02/d.jpg,2,2,j,5,7,307,30,j,1,1.01638790084,02,03,60.0183956352,PLT_learning_02,A,2014_Mrz_10_1604,P16,
stim_fb/ques.jpg,stim_fb/negf.jpg,stim_fb/posf.jpg,stim_02/c.jpg,stim_02/d.jpg,2,2,j,5,8,308,34,j,1,0.533183741474,02,03,60.0183956352,PLT_learning_02,A,2014_Mrz_10_1604,P16,
stim_fb/ques.jpg,stim_fb/posf.jpg,stim_fb/negf.jpg,stim_02/f.jpg,stim_02/e.jpg,1,3,f,5,9,309,47,f,1,1.21624776957,02,03,60.0183956352,PLT_learning_02,A,2014_Mrz_10_1604,P16,
stim_fb/ques.jpg,stim_fb/posf.jpg,stim_fb/negf.jpg,stim_02/b.jpg,stim_02/a.jpg,1,1,f,5,10,310,8,f,1,0.866441674874,02,03,60.0183956352,PLT_learning_02,A,2014_Mrz_10_1604,P16,
stim_fb/ques.jpg,stim_fb/negf.jpg,stim_fb/posf.jpg,stim_02/d.jpg,stim_02/c.jpg,1,2,f,5,11,311,20,f,1,0.89975994767,02,03,60.0183956352,PLT_learning_02,A,2014_Mrz_10_1604,P16,
stim_fb/ques.jpg,stim_fb/posf.jpg,stim_fb/negf.jpg,stim_02/a.jpg,stim_02/b.jpg,2,1,j,5,12,312,19,j,1,0.816424781768,02,03,60.0183956352,PLT_learning_02,A,2014_Mrz_10_1604,P16,
stim_fb/ques.jpg,stim_fb/posf.jpg,stim_fb/negf.jpg,stim_02/e.jpg,stim_02/f.jpg,2,3,j,5,13,313,56,j,1,1.33292214645,02,03,60.0183956352,PLT_learning_02,A,2014_Mrz_10_1604,P16,
stim_fb/ques.jpg,stim_fb/negf.jpg,stim_fb/posf.jpg,stim_02/d.jpg,stim_02/c.jpg,1,2,f,5,14,314,26,f,1,1.14967863099,02,03,60.0183956352,PLT_learning_02,A,2014_Mrz_10_1604,P16,
stim_fb/ques.jpg,stim_fb/negf.jpg,stim_fb/posf.jpg,stim_02/c.jpg,stim_02/d.jpg,2,2,j,5,15,315,33,j,1,0.649841285403,02,03,60.0183956352,PLT_learning_02,A,2014_Mrz_10_1604,P16,
stim_fb/ques.jpg,stim_fb/negf.jpg,stim_fb/posf.jpg,stim_02/b.jpg,stim_02/a.jpg,1,1,f,5,16,316,6,f,1,0.649816184841,02,03,60.0183956352,PLT_learning_02,A,2014_Mrz_10_1604,P16,
stim_fb/ques.jpg,stim_fb/posf.jpg,stim_fb/negf.jpg,stim_02/d.jpg,stim_02/c.jpg,1,2,f,5,17,317,27,f,1,0.666501560139,02,03,60.0183956352,PLT_learning_02,A,2014_Mrz_10_1604,P16,
stim_fb/ques.jpg,stim_fb/negf.jpg,stim_fb/posf.jpg,stim_02/f.jpg,stim_02/e.jpg,1,3,f,5,18,318,43,f,1,1.01637200322,02,03,60.0183956352,PLT_learning_02,A,2014_Mrz_10_1604,P16,
stim_fb/ques.jpg,stim_fb/negf.jpg,stim_fb/posf.jpg,stim_02/d.jpg,stim_02/c.jpg,1,2,f,5,19,319,23,f,1,0.699835327554,02,03,60.0183956352,PLT_learning_02,A,2014_Mrz_10_1604,P16,
stim_fb/ques.jpg,stim_fb/negf.jpg,stim_fb/posf.jpg,stim_02/b.jpg,stim_02/a.jpg,1,1,f,5,20,320,2,f,1,0.733091056458,02,03,60.0183956352,PLT_learning_02,A,2014_Mrz_10_1604,P16,
stim_fb/ques.jpg,stim_fb/negf.jpg,stim_fb/posf.jpg,stim_02/e.jpg,stim_02/f.jpg,2,3,j,5,21,321,54,j,1,0.766465419056,02,03,60.0183956352,PLT_learning_02,A,2014_Mrz_10_1604,P16,
stim_fb/ques.jpg,stim_fb/negf.jpg,stim_fb/posf.jpg,stim_02/e.jpg,stim_02/f.jpg,2,3,j,5,22,322,50,j,1,0.666434357636,02,03,60.0183956352,PLT_learning_02,A,2014_Mrz_10_1604,P16,
stim_fb/ques.jpg,stim_fb/negf.jpg,stim_fb/posf.jpg,stim_02/b.jpg,stim_02/a.jpg,1,1,f,5,23,323,4,f,1,0.933021742692,02,03,60.0183956352,PLT_learning_02,A,2014_Mrz_10_1604,P16,
stim_fb/ques.jpg,stim_fb/negf.jpg,stim_fb/posf.jpg,stim_02/f.jpg,stim_02/e.jpg,1,3,f,5,24,324,45,f,1,1.03303931249,02,03,60.0183956352,PLT_learning_02,A,2014_Mrz_10_1604,P16,
stim_fb/ques.jpg,stim_fb/negf.jpg,stim_fb/posf.jpg,stim_02/d.jpg,stim_02/c.jpg,1,2,f,5,25,325,24,f,1,0.616512841256,02,03,60.0183956352,PLT_learning_02,A,2014_Mrz_10_1604,P16,
stim_fb/ques.jpg,stim_fb/negf.jpg,stim_fb/posf.jpg,stim_02/d.jpg,stim_02/c.jpg,1,2,f,5,26,326,22,f,1,0.816416511154,02,03,60.0183956352,PLT_learning_02,A,2014_Mrz_10_1604,P16,
stim_fb/ques.jpg,stim_fb/negf.jpg,stim_fb/posf.jpg,stim_02/f.jpg,stim_02/e.jpg,1,3,f,5,27,327,44,j,0,1.24965108232,02,03,60.0183956352,PLT_learning_02,A,2014_Mrz_10_1604,P16,
stim_fb/ques.jpg,stim_fb/negf.jpg,stim_fb/posf.jpg,stim_02/c.jpg,stim_02/d.jpg,2,2,j,5,28,328,31,j,1,0.66649811054,02,03,60.0183956352,PLT_learning_02,A,2014_Mrz_10_1604,P16,
stim_fb/ques.jpg,stim_fb/negf.jpg,stim_fb/posf.jpg,stim_02/b.jpg,stim_02/a.jpg,1,1,f,5,29,329,3,f,1,0.566525499809,02,03,60.0183956352,PLT_learning_02,A,2014_Mrz_10_1604,P16,
stim_fb/ques.jpg,stim_fb/negf.jpg,stim_fb/posf.jpg,stim_02/f.jpg,stim_02/e.jpg,1,3,f,5,30,330,42,f,1,0.933094809812,02,03,60.0183956352,PLT_learning_02,A,2014_Mrz_10_1604,P16,
stim_fb/ques.jpg,stim_fb/negf.jpg,stim_fb/posf.jpg,stim_02/f.jpg,stim_02/e.jpg,1,3,f,5,31,331,41,f,1,0.93308163698,02,03,60.0183956352,PLT_learning_02,A,2014_Mrz_10_1604,P16,
stim_fb/ques.jpg,stim_fb/negf.jpg,stim_fb/posf.jpg,stim_02/e.jpg,stim_02/f.jpg,2,3,j,5,32,332,51,f,0,1.24944609439,02,03,60.0183956352,PLT_learning_02,A,2014_Mrz_10_1604,P16,
stim_fb/ques.jpg,stim_fb/posf.jpg,stim_fb/negf.jpg,stim_02/d.jpg,stim_02/c.jpg,1,2,f,5,33,333,29,f,1,0.666451707883,02,03,60.0183956352,PLT_learning_02,A,2014_Mrz_10_1604,P16,
stim_fb/ques.jpg,stim_fb/negf.jpg,stim_fb/posf.jpg,stim_02/a.jpg,stim_02/b.jpg,2,1,j,5,34,334,15,j,1,0.649837089948,02,03,60.0183956352,PLT_learning_02,A,2014_Mrz_10_1604,P16,
stim_fb/ques.jpg,stim_fb/negf.jpg,stim_fb/posf.jpg,stim_02/c.jpg,stim_02/d.jpg,2,2,j,5,35,335,32,j,1,0.983052362011,02,03,60.0183956352,PLT_learning_02,A,2014_Mrz_10_1604,P16,
stim_fb/ques.jpg,stim_fb/posf.jpg,stim_fb/negf.jpg,stim_02/e.jpg,stim_02/f.jpg,2,3,j,5,36,336,58,j,1,0.766482239982,02,03,60.0183956352,PLT_learning_02,A,2014_Mrz_10_1604,P16,
stim_fb/ques.jpg,stim_fb/negf.jpg,stim_fb/posf.jpg,stim_02/c.jpg,stim_02/d.jpg,2,2,j,5,37,337,36,j,1,0.783126854685,02,03,60.0183956352,PLT_learning_02,A,2014_Mrz_10_1604,P16,
stim_fb/ques.jpg,stim_fb/posf.jpg,stim_fb/negf.jpg,stim_02/e.jpg,stim_02/f.jpg,2,3,j,5,38,338,57,j,1,0.699735141841,02,03,60.0183956352,PLT_learning_02,A,2014_Mrz_10_1604,P16,
stim_fb/ques.jpg,stim_fb/negf.jpg,stim_fb/posf.jpg,stim_02/e.jpg,stim_02/f.jpg,2,3,j,5,39,339,55,j,1,0.449912839753,02,03,60.0183956352,PLT_learning_02,A,2014_Mrz_10_1604,P16,
stim_fb/ques.jpg,stim_fb/negf.jpg,stim_fb/posf.jpg,stim_02/b.jpg,stim_02/a.jpg,1,1,f,5,40,340,5,f,1,0.649830602777,02,03,60.0183956352,PLT_learning_02,A,2014_Mrz_10_1604,P16,
stim_fb/ques.jpg,stim_fb/posf.jpg,stim_fb/negf.jpg,stim_02/f.jpg,stim_02/e.jpg,1,3,f,5,41,341,49,f,1,0.982956513108,02,03,60.0183956352,PLT_learning_02,A,2014_Mrz_10_1604,P16,
stim_fb/ques.jpg,stim_fb/negf.jpg,stim_fb/posf.jpg,stim_02/b.jpg,stim_02/a.jpg,1,1,f,5,42,342,1,f,1,0.733136902731,02,03,60.0183956352,PLT_learning_02,A,2014_Mrz_10_1604,P16,
stim_fb/ques.jpg,stim_fb/negf.jpg,stim_fb/posf.jpg,stim_02/e.jpg,stim_02/f.jpg,2,3,j,5,43,343,52,j,1,0.71642195773,02,03,60.0183956352,PLT_learning_02,A,2014_Mrz_10_1604,P16,
stim_fb/ques.jpg,stim_fb/negf.jpg,stim_fb/posf.jpg,stim_02/a.jpg,stim_02/b.jpg,2,1,j,5,44,344,10,j,1,0.983050774055,02,03,60.0183956352,PLT_learning_02,A,2014_Mrz_10_1604,P16,
stim_fb/ques.jpg,stim_fb/posf.jpg,stim_fb/negf.jpg,stim_02/c.jpg,stim_02/d.jpg,2,2,j,5,45,345,38,j,1,1.36624162826,02,03,60.0183956352,PLT_learning_02,A,2014_Mrz_10_1604,P16,
stim_fb/ques.jpg,stim_fb/negf.jpg,stim_fb/posf.jpg,stim_02/f.jpg,stim_02/e.jpg,1,3,f,5,46,346,40,f,1,1.14966373787,02,03,60.0183956352,PLT_learning_02,A,2014_Mrz_10_1604,P16,
stim_fb/ques.jpg,stim_fb/posf.jpg,stim_fb/negf.jpg,stim_02/b.jpg,stim_02/a.jpg,1,1,f,5,47,347,9,f,1,0.799770985181,02,03,60.0183956352,PLT_learning_02,A,2014_Mrz_10_1604,P16,
stim_fb/ques.jpg,stim_fb/negf.jpg,stim_fb/posf.jpg,stim_02/a.jpg,stim_02/b.jpg,2,1,j,5,48,348,11,j,1,0.533219166773,02,03,60.0183956352,PLT_learning_02,A,2014_Mrz_10_1604,P16,
stim_fb/ques.jpg,stim_fb/negf.jpg,stim_fb/posf.jpg,stim_02/a.jpg,stim_02/b.jpg,2,1,j,5,49,349,12,j,1,0.583201482696,02,03,60.0183956352,PLT_learning_02,A,2014_Mrz_10_1604,P16,
stim_fb/ques.jpg,stim_fb/negf.jpg,stim_fb/posf.jpg,stim_02/a.jpg,stim_02/b.jpg,2,1,j,5,50,350,17,j,1,1.13301970361,02,03,60.0183956352,PLT_learning_02,A,2014_Mrz_10_1604,P16,
stim_fb/ques.jpg,stim_fb/negf.jpg,stim_fb/posf.jpg,stim_02/a.jpg,stim_02/b.jpg,2,1,j,5,51,351,14,j,1,0.583199308277,02,03,60.0183956352,PLT_learning_02,A,2014_Mrz_10_1604,P16,
stim_fb/ques.jpg,stim_fb/posf.jpg,stim_fb/negf.jpg,stim_02/d.jpg,stim_02/c.jpg,1,2,f,5,52,352,28,f,1,0.783107095436,02,03,60.0183956352,PLT_learning_02,A,2014_Mrz_10_1604,P16,
stim_fb/ques.jpg,stim_fb/posf.jpg,stim_fb/negf.jpg,stim_02/c.jpg,stim_02/d.jpg,2,2,j,5,53,353,37,j,1,0.599830665935,02,03,60.0183956352,PLT_learning_02,A,2014_Mrz_10_1604,P16,
stim_fb/ques.jpg,stim_fb/posf.jpg,stim_fb/negf.jpg,stim_02/e.jpg,stim_02/f.jpg,2,3,j,5,54,354,59,j,1,1.24968414673,02,03,60.0183956352,PLT_learning_02,A,2014_Mrz_10_1604,P16,
stim_fb/ques.jpg,stim_fb/posf.jpg,stim_fb/negf.jpg,stim_02/f.jpg,stim_02/e.jpg,1,3,f,5,55,355,48,f,1,0.983077252051,02,03,60.0183956352,PLT_learning_02,A,2014_Mrz_10_1604,P16,
stim_fb/ques.jpg,stim_fb/posf.jpg,stim_fb/negf.jpg,stim_02/c.jpg,stim_02/d.jpg,2,2,j,5,56,356,39,j,1,0.666493821851,02,03,60.0183956352,PLT_learning_02,A,2014_Mrz_10_1604,P16,
stim_fb/ques.jpg,stim_fb/negf.jpg,stim_fb/posf.jpg,stim_02/c.jpg,stim_02/d.jpg,2,2,j,5,57,357,35,j,1,0.633161735626,02,03,60.0183956352,PLT_learning_02,A,2014_Mrz_10_1604,P16,
stim_fb/ques.jpg,stim_fb/negf.jpg,stim_fb/posf.jpg,stim_02/b.jpg,stim_02/a.jpg,1,1,f,5,58,358,0,f,1,0.833158349185,02,03,60.0183956352,PLT_learning_02,A,2014_Mrz_10_1604,P16,
stim_fb/ques.jpg,stim_fb/negf.jpg,stim_fb/posf.jpg,stim_02/a.jpg,stim_02/b.jpg,2,1,j,5,59,359,16,j,1,0.516558684521,02,03,60.0183956352,PLT_learning_02,A,2014_Mrz_10_1604,P16,
