Fb3,Fb2,Fb1,Symbol2,Symbol1,PosCond,Pair,Correct,trials.thisRepN,trials.thisTrialN,trials.thisN,trials.thisIndex,Response.keys,Response.corr,Response.rt,Version,Session Number,frameRate,expName,StimCondition,date,Participant,
stim_fb/ques.jpg,stim_fb/negf.jpg,stim_fb/posf.jpg,stim_01/e.jpg,stim_01/f.jpg,2,3,j,0,0,0,54,j,1,1.01640680596,01,02,60.0206989527,PLT_learning_01,A,2014_Mrz_03_1535,P17,
stim_fb/ques.jpg,stim_fb/posf.jpg,stim_fb/negf.jpg,stim_01/e.jpg,stim_01/f.jpg,2,3,j,0,1,1,59,j,1,0.716508769107,01,02,60.0206989527,PLT_learning_01,A,2014_Mrz_03_1535,P17,
stim_fb/ques.jpg,stim_fb/negf.jpg,stim_fb/posf.jpg,stim_01/e.jpg,stim_01/f.jpg,2,3,j,0,2,2,55,f,0,0.833102505996,01,02,60.0206989527,PLT_learning_01,A,2014_Mrz_03_1535,P17,
stim_fb/ques.jpg,stim_fb/negf.jpg,stim_fb/posf.jpg,stim_01/c.jpg,stim_01/d.jpg,2,2,j,0,3,3,32,f,0,0.733188309862,01,02,60.0206989527,PLT_learning_01,A,2014_Mrz_03_1535,P17,
stim_fb/ques.jpg,stim_fb/negf.jpg,stim_fb/posf.jpg,stim_01/d.jpg,stim_01/c.jpg,1,2,f,0,4,4,26,j,0,0.583211299163,01,02,60.0206989527,PLT_learning_01,A,2014_Mrz_03_1535,P17,
stim_fb/ques.jpg,stim_fb/negf.jpg,stim_fb/posf.jpg,stim_01/b.jpg,stim_01/a.jpg,1,1,f,0,5,5,7,f,1,0.766472240058,01,02,60.0206989527,PLT_learning_01,A,2014_Mrz_03_1535,P17,
stim_fb/ques.jpg,stim_fb/negf.jpg,stim_fb/posf.jpg,stim_01/a.jpg,stim_01/b.jpg,2,1,j,0,6,6,11,j,1,0.599851005632,01,02,60.0206989527,PLT_learning_01,A,2014_Mrz_03_1535,P17,
stim_fb/ques.jpg,stim_fb/negf.jpg,stim_fb/posf.jpg,stim_01/c.jpg,stim_01/d.jpg,2,2,j,0,7,7,35,j,1,0.783148839482,01,02,60.0206989527,PLT_learning_01,A,2014_Mrz_03_1535,P17,
stim_fb/ques.jpg,stim_fb/negf.jpg,stim_fb/posf.jpg,stim_01/a.jpg,stim_01/b.jpg,2,1,j,0,8,8,16,j,1,0.899767460395,01,02,60.0206989527,PLT_learning_01,A,2014_Mrz_03_1535,P17,
stim_fb/ques.jpg,stim_fb/negf.jpg,stim_fb/posf.jpg,stim_01/d.jpg,stim_01/c.jpg,1,2,f,0,9,9,23,f,1,0.799833492981,01,02,60.0206989527,PLT_learning_01,A,2014_Mrz_03_1535,P17,
stim_fb/ques.jpg,stim_fb/negf.jpg,stim_fb/posf.jpg,stim_01/e.jpg,stim_01/f.jpg,2,3,j,0,10,10,51,j,1,0.849766952128,01,02,60.0206989527,PLT_learning_01,A,2014_Mrz_03_1535,P17,
stim_fb/ques.jpg,stim_fb/negf.jpg,stim_fb/posf.jpg,stim_01/a.jpg,stim_01/b.jpg,2,1,j,0,11,11,12,j,1,0.916409407448,01,02,60.0206989527,PLT_learning_01,A,2014_Mrz_03_1535,P17,
stim_fb/ques.jpg,stim_fb/negf.jpg,stim_fb/posf.jpg,stim_01/c.jpg,stim_01/d.jpg,2,2,j,0,12,12,31,f,0,0.866442132014,01,02,60.0206989527,PLT_learning_01,A,2014_Mrz_03_1535,P17,
stim_fb/ques.jpg,stim_fb/posf.jpg,stim_fb/negf.jpg,stim_01/a.jpg,stim_01/b.jpg,2,1,j,0,13,13,19,j,1,0.566465337855,01,02,60.0206989527,PLT_learning_01,A,2014_Mrz_03_1535,P17,
stim_fb/ques.jpg,stim_fb/negf.jpg,stim_fb/posf.jpg,stim_01/f.jpg,stim_01/e.jpg,1,3,f,0,14,14,43,j,0,0.716473385914,01,02,60.0206989527,PLT_learning_01,A,2014_Mrz_03_1535,P17,
stim_fb/ques.jpg,stim_fb/negf.jpg,stim_fb/posf.jpg,stim_01/f.jpg,stim_01/e.jpg,1,3,f,0,15,15,45,f,1,0.599852683815,01,02,60.0206989527,PLT_learning_01,A,2014_Mrz_03_1535,P17,
stim_fb/ques.jpg,stim_fb/negf.jpg,stim_fb/posf.jpg,stim_01/a.jpg,stim_01/b.jpg,2,1,j,0,16,16,14,j,1,0.683146604913,01,02,60.0206989527,PLT_learning_01,A,2014_Mrz_03_1535,P17,
stim_fb/ques.jpg,stim_fb/negf.jpg,stim_fb/posf.jpg,stim_01/b.jpg,stim_01/a.jpg,1,1,f,0,17,17,1,f,1,0.566528847152,01,02,60.0206989527,PLT_learning_01,A,2014_Mrz_03_1535,P17,
stim_fb/ques.jpg,stim_fb/posf.jpg,stim_fb/negf.jpg,stim_01/c.jpg,stim_01/d.jpg,2,2,j,0,18,18,37,j,1,0.783113531477,01,02,60.0206989527,PLT_learning_01,A,2014_Mrz_03_1535,P17,
stim_fb/ques.jpg,stim_fb/negf.jpg,stim_fb/posf.jpg,stim_01/f.jpg,stim_01/e.jpg,1,3,f,0,19,19,44,j,0,0.866443380125,01,02,60.0206989527,PLT_learning_01,A,2014_Mrz_03_1535,P17,
stim_fb/ques.jpg,stim_fb/posf.jpg,stim_fb/negf.jpg,stim_01/d.jpg,stim_01/c.jpg,1,2,f,0,20,20,28,f,1,0.76644571695,01,02,60.0206989527,PLT_learning_01,A,2014_Mrz_03_1535,P17,
stim_fb/ques.jpg,stim_fb/negf.jpg,stim_fb/posf.jpg,stim_01/d.jpg,stim_01/c.jpg,1,2,f,0,21,21,21,j,0,0.49988556477,01,02,60.0206989527,PLT_learning_01,A,2014_Mrz_03_1535,P17,
stim_fb/ques.jpg,stim_fb/posf.jpg,stim_fb/negf.jpg,stim_01/a.jpg,stim_01/b.jpg,2,1,j,0,22,22,18,j,1,0.633193263209,01,02,60.0206989527,PLT_learning_01,A,2014_Mrz_03_1535,P17,
stim_fb/ques.jpg,stim_fb/negf.jpg,stim_fb/posf.jpg,stim_01/e.jpg,stim_01/f.jpg,2,3,j,0,23,23,53,j,1,0.916446474838,01,02,60.0206989527,PLT_learning_01,A,2014_Mrz_03_1535,P17,
stim_fb/ques.jpg,stim_fb/posf.jpg,stim_fb/negf.jpg,stim_01/f.jpg,stim_01/e.jpg,1,3,f,0,24,24,48,j,0,0.899729743385,01,02,60.0206989527,PLT_learning_01,A,2014_Mrz_03_1535,P17,
stim_fb/ques.jpg,stim_fb/posf.jpg,stim_fb/negf.jpg,stim_01/e.jpg,stim_01/f.jpg,2,3,j,0,25,25,58,j,1,0.716483346742,01,02,60.0206989527,PLT_learning_01,A,2014_Mrz_03_1535,P17,
stim_fb/ques.jpg,stim_fb/posf.jpg,stim_fb/negf.jpg,stim_01/e.jpg,stim_01/f.jpg,2,3,j,0,26,26,56,f,0,0.766468865648,01,02,60.0206989527,PLT_learning_01,A,2014_Mrz_03_1535,P17,
stim_fb/ques.jpg,stim_fb/negf.jpg,stim_fb/posf.jpg,stim_01/f.jpg,stim_01/e.jpg,1,3,f,0,27,27,40,f,1,1.18298374298,01,02,60.0206989527,PLT_learning_01,A,2014_Mrz_03_1535,P17,
stim_fb/ques.jpg,stim_fb/negf.jpg,stim_fb/posf.jpg,stim_01/b.jpg,stim_01/a.jpg,1,1,f,0,28,28,0,f,1,0.599855583041,01,02,60.0206989527,PLT_learning_01,A,2014_Mrz_03_1535,P17,
stim_fb/ques.jpg,stim_fb/posf.jpg,stim_fb/negf.jpg,stim_01/b.jpg,stim_01/a.jpg,1,1,f,0,29,29,8,f,1,0.516523313358,01,02,60.0206989527,PLT_learning_01,A,2014_Mrz_03_1535,P17,
stim_fb/ques.jpg,stim_fb/posf.jpg,stim_fb/negf.jpg,stim_01/f.jpg,stim_01/e.jpg,1,3,f,0,30,30,46,f,1,0.916419302111,01,02,60.0206989527,PLT_learning_01,A,2014_Mrz_03_1535,P17,
stim_fb/ques.jpg,stim_fb/posf.jpg,stim_fb/negf.jpg,stim_01/c.jpg,stim_01/d.jpg,2,2,j,0,31,31,38,f,0,0.666487376787,01,02,60.0206989527,PLT_learning_01,A,2014_Mrz_03_1535,P17,
stim_fb/ques.jpg,stim_fb/negf.jpg,stim_fb/posf.jpg,stim_01/b.jpg,stim_01/a.jpg,1,1,f,0,32,32,2,f,1,0.749770780671,01,02,60.0206989527,PLT_learning_01,A,2014_Mrz_03_1535,P17,
stim_fb/ques.jpg,stim_fb/negf.jpg,stim_fb/posf.jpg,stim_01/d.jpg,stim_01/c.jpg,1,2,f,0,33,33,22,j,0,0.63317591597,01,02,60.0206989527,PLT_learning_01,A,2014_Mrz_03_1535,P17,
stim_fb/ques.jpg,stim_fb/negf.jpg,stim_fb/posf.jpg,stim_01/a.jpg,stim_01/b.jpg,2,1,j,0,34,34,17,j,1,0.783129702784,01,02,60.0206989527,PLT_learning_01,A,2014_Mrz_03_1535,P17,
stim_fb/ques.jpg,stim_fb/negf.jpg,stim_fb/posf.jpg,stim_01/b.jpg,stim_01/a.jpg,1,1,f,0,35,35,6,f,1,0.483236715513,01,02,60.0206989527,PLT_learning_01,A,2014_Mrz_03_1535,P17,
stim_fb/ques.jpg,stim_fb/negf.jpg,stim_fb/posf.jpg,stim_01/a.jpg,stim_01/b.jpg,2,1,j,0,36,36,13,j,1,0.649828241893,01,02,60.0206989527,PLT_learning_01,A,2014_Mrz_03_1535,P17,
stim_fb/ques.jpg,stim_fb/negf.jpg,stim_fb/posf.jpg,stim_01/d.jpg,stim_01/c.jpg,1,2,f,0,37,37,25,j,0,0.833105928527,01,02,60.0206989527,PLT_learning_01,A,2014_Mrz_03_1535,P17,
stim_fb/ques.jpg,stim_fb/negf.jpg,stim_fb/posf.jpg,stim_01/f.jpg,stim_01/e.jpg,1,3,f,0,38,38,41,f,1,0.566545770332,01,02,60.0206989527,PLT_learning_01,A,2014_Mrz_03_1535,P17,
stim_fb/ques.jpg,stim_fb/negf.jpg,stim_fb/posf.jpg,stim_01/e.jpg,stim_01/f.jpg,2,3,j,0,39,39,52,j,1,0.66648069413,01,02,60.0206989527,PLT_learning_01,A,2014_Mrz_03_1535,P17,
stim_fb/ques.jpg,stim_fb/posf.jpg,stim_fb/negf.jpg,stim_01/b.jpg,stim_01/a.jpg,1,1,f,0,40,40,9,f,1,0.516527626108,01,02,60.0206989527,PLT_learning_01,A,2014_Mrz_03_1535,P17,
stim_fb/ques.jpg,stim_fb/negf.jpg,stim_fb/posf.jpg,stim_01/a.jpg,stim_01/b.jpg,2,1,j,0,41,41,10,j,1,0.616501803746,01,02,60.0206989527,PLT_learning_01,A,2014_Mrz_03_1535,P17,
stim_fb/ques.jpg,stim_fb/posf.jpg,stim_fb/negf.jpg,stim_01/d.jpg,stim_01/c.jpg,1,2,f,0,42,42,29,j,0,0.649875221991,01,02,60.0206989527,PLT_learning_01,A,2014_Mrz_03_1535,P17,
stim_fb/ques.jpg,stim_fb/negf.jpg,stim_fb/posf.jpg,stim_01/d.jpg,stim_01/c.jpg,1,2,f,0,43,43,24,j,0,0.633185491839,01,02,60.0206989527,PLT_learning_01,A,2014_Mrz_03_1535,P17,
stim_fb/ques.jpg,stim_fb/posf.jpg,stim_fb/negf.jpg,stim_01/e.jpg,stim_01/f.jpg,2,3,j,0,44,44,57,j,1,0.699825198307,01,02,60.0206989527,PLT_learning_01,A,2014_Mrz_03_1535,P17,
stim_fb/ques.jpg,stim_fb/negf.jpg,stim_fb/posf.jpg,stim_01/c.jpg,stim_01/d.jpg,2,2,j,0,45,45,34,f,0,0.716475999429,01,02,60.0206989527,PLT_learning_01,A,2014_Mrz_03_1535,P17,
stim_fb/ques.jpg,stim_fb/negf.jpg,stim_fb/posf.jpg,stim_01/d.jpg,stim_01/c.jpg,1,2,f,0,46,46,20,f,1,0.733147573327,01,02,60.0206989527,PLT_learning_01,A,2014_Mrz_03_1535,P17,
stim_fb/ques.jpg,stim_fb/posf.jpg,stim_fb/negf.jpg,stim_01/d.jpg,stim_01/c.jpg,1,2,f,0,47,47,27,f,1,0.683194664702,01,02,60.0206989527,PLT_learning_01,A,2014_Mrz_03_1535,P17,
stim_fb/ques.jpg,stim_fb/posf.jpg,stim_fb/negf.jpg,stim_01/c.jpg,stim_01/d.jpg,2,2,j,0,48,48,39,f,0,0.916390454207,01,02,60.0206989527,PLT_learning_01,A,2014_Mrz_03_1535,P17,
stim_fb/ques.jpg,stim_fb/negf.jpg,stim_fb/posf.jpg,stim_01/b.jpg,stim_01/a.jpg,1,1,f,0,49,49,5,f,1,0.699818308133,01,02,60.0206989527,PLT_learning_01,A,2014_Mrz_03_1535,P17,
stim_fb/ques.jpg,stim_fb/negf.jpg,stim_fb/posf.jpg,stim_01/c.jpg,stim_01/d.jpg,2,2,j,0,50,50,30,j,1,0.64984213051,01,02,60.0206989527,PLT_learning_01,A,2014_Mrz_03_1535,P17,
stim_fb/ques.jpg,stim_fb/negf.jpg,stim_fb/posf.jpg,stim_01/b.jpg,stim_01/a.jpg,1,1,f,0,51,51,4,f,1,0.599863372456,01,02,60.0206989527,PLT_learning_01,A,2014_Mrz_03_1535,P17,
stim_fb/ques.jpg,stim_fb/negf.jpg,stim_fb/posf.jpg,stim_01/c.jpg,stim_01/d.jpg,2,2,j,0,52,52,36,f,0,0.883089537673,01,02,60.0206989527,PLT_learning_01,A,2014_Mrz_03_1535,P17,
stim_fb/ques.jpg,stim_fb/negf.jpg,stim_fb/posf.jpg,stim_01/b.jpg,stim_01/a.jpg,1,1,f,0,53,53,3,f,1,0.583149098127,01,02,60.0206989527,PLT_learning_01,A,2014_Mrz_03_1535,P17,
stim_fb/ques.jpg,stim_fb/negf.jpg,stim_fb/posf.jpg,stim_01/c.jpg,stim_01/d.jpg,2,2,j,0,54,54,33,j,1,0.649858840159,01,02,60.0206989527,PLT_learning_01,A,2014_Mrz_03_1535,P17,
stim_fb/ques.jpg,stim_fb/posf.jpg,stim_fb/negf.jpg,stim_01/f.jpg,stim_01/e.jpg,1,3,f,0,55,55,49,j,0,0.933088635424,01,02,60.0206989527,PLT_learning_01,A,2014_Mrz_03_1535,P17,
stim_fb/ques.jpg,stim_fb/negf.jpg,stim_fb/posf.jpg,stim_01/e.jpg,stim_01/f.jpg,2,3,j,0,56,56,50,j,1,1.09967146112,01,02,60.0206989527,PLT_learning_01,A,2014_Mrz_03_1535,P17,
stim_fb/ques.jpg,stim_fb/posf.jpg,stim_fb/negf.jpg,stim_01/f.jpg,stim_01/e.jpg,1,3,f,0,57,57,47,j,0,1.09969003541,01,02,60.0206989527,PLT_learning_01,A,2014_Mrz_03_1535,P17,
stim_fb/ques.jpg,stim_fb/negf.jpg,stim_fb/posf.jpg,stim_01/f.jpg,stim_01/e.jpg,1,3,f,0,58,58,42,f,1,0.933111745024,01,02,60.0206989527,PLT_learning_01,A,2014_Mrz_03_1535,P17,
stim_fb/ques.jpg,stim_fb/negf.jpg,stim_fb/posf.jpg,stim_01/a.jpg,stim_01/b.jpg,2,1,j,0,59,59,15,j,1,0.833111348035,01,02,60.0206989527,PLT_learning_01,A,2014_Mrz_03_1535,P17,
stim_fb/ques.jpg,stim_fb/posf.jpg,stim_fb/negf.jpg,stim_01/d.jpg,stim_01/c.jpg,1,2,f,1,0,60,27,j,0,0.716482829452,01,02,60.0206989527,PLT_learning_01,A,2014_Mrz_03_1535,P17,
stim_fb/ques.jpg,stim_fb/negf.jpg,stim_fb/posf.jpg,stim_01/d.jpg,stim_01/c.jpg,1,2,f,1,1,61,23,f,1,0.883095023346,01,02,60.0206989527,PLT_learning_01,A,2014_Mrz_03_1535,P17,
stim_fb/ques.jpg,stim_fb/negf.jpg,stim_fb/posf.jpg,stim_01/c.jpg,stim_01/d.jpg,2,2,j,1,2,62,36,j,1,0.766463259675,01,02,60.0206989527,PLT_learning_01,A,2014_Mrz_03_1535,P17,
stim_fb/ques.jpg,stim_fb/negf.jpg,stim_fb/posf.jpg,stim_01/a.jpg,stim_01/b.jpg,2,1,j,1,3,63,15,j,1,0.716405142819,01,02,60.0206989527,PLT_learning_01,A,2014_Mrz_03_1535,P17,
stim_fb/ques.jpg,stim_fb/negf.jpg,stim_fb/posf.jpg,stim_01/a.jpg,stim_01/b.jpg,2,1,j,1,4,64,14,f,0,0.966393254186,01,02,60.0206989527,PLT_learning_01,A,2014_Mrz_03_1535,P17,
stim_fb/ques.jpg,stim_fb/negf.jpg,stim_fb/posf.jpg,stim_01/e.jpg,stim_01/f.jpg,2,3,j,1,5,65,52,j,1,0.949650119924,01,02,60.0206989527,PLT_learning_01,A,2014_Mrz_03_1535,P17,
stim_fb/ques.jpg,stim_fb/negf.jpg,stim_fb/posf.jpg,stim_01/c.jpg,stim_01/d.jpg,2,2,j,1,6,66,30,f,0,0.766452736446,01,02,60.0206989527,PLT_learning_01,A,2014_Mrz_03_1535,P17,
stim_fb/ques.jpg,stim_fb/posf.jpg,stim_fb/negf.jpg,stim_01/d.jpg,stim_01/c.jpg,1,2,f,1,7,67,28,f,1,0.999708931512,01,02,60.0206989527,PLT_learning_01,A,2014_Mrz_03_1535,P17,
stim_fb/ques.jpg,stim_fb/negf.jpg,stim_fb/posf.jpg,stim_01/a.jpg,stim_01/b.jpg,2,1,j,1,8,68,16,j,1,0.966390703829,01,02,60.0206989527,PLT_learning_01,A,2014_Mrz_03_1535,P17,
stim_fb/ques.jpg,stim_fb/posf.jpg,stim_fb/negf.jpg,stim_01/e.jpg,stim_01/f.jpg,2,3,j,1,9,69,58,j,1,0.883097799265,01,02,60.0206989527,PLT_learning_01,A,2014_Mrz_03_1535,P17,
stim_fb/ques.jpg,stim_fb/negf.jpg,stim_fb/posf.jpg,stim_01/c.jpg,stim_01/d.jpg,2,2,j,1,10,70,31,f,0,0.866418234449,01,02,60.0206989527,PLT_learning_01,A,2014_Mrz_03_1535,P17,
stim_fb/ques.jpg,stim_fb/negf.jpg,stim_fb/posf.jpg,stim_01/c.jpg,stim_01/d.jpg,2,2,j,1,11,71,32,j,1,0.616514847257,01,02,60.0206989527,PLT_learning_01,A,2014_Mrz_03_1535,P17,
stim_fb/ques.jpg,stim_fb/negf.jpg,stim_fb/posf.jpg,stim_01/b.jpg,stim_01/a.jpg,1,1,f,1,12,72,6,f,1,0.84973037496,01,02,60.0206989527,PLT_learning_01,A,2014_Mrz_03_1535,P17,
stim_fb/ques.jpg,stim_fb/negf.jpg,stim_fb/posf.jpg,stim_01/c.jpg,stim_01/d.jpg,2,2,j,1,13,73,33,j,1,0.849748991361,01,02,60.0206989527,PLT_learning_01,A,2014_Mrz_03_1535,P17,
stim_fb/ques.jpg,stim_fb/negf.jpg,stim_fb/posf.jpg,stim_01/e.jpg,stim_01/f.jpg,2,3,j,1,14,74,51,j,1,0.799779932482,01,02,60.0206989527,PLT_learning_01,A,2014_Mrz_03_1535,P17,
stim_fb/ques.jpg,stim_fb/negf.jpg,stim_fb/posf.jpg,stim_01/d.jpg,stim_01/c.jpg,1,2,f,1,15,75,25,f,1,0.849830265938,01,02,60.0206989527,PLT_learning_01,A,2014_Mrz_03_1535,P17,
stim_fb/ques.jpg,stim_fb/posf.jpg,stim_fb/negf.jpg,stim_01/a.jpg,stim_01/b.jpg,2,1,j,1,16,76,19,j,1,0.699801905249,01,02,60.0206989527,PLT_learning_01,A,2014_Mrz_03_1535,P17,
stim_fb/ques.jpg,stim_fb/negf.jpg,stim_fb/posf.jpg,stim_01/a.jpg,stim_01/b.jpg,2,1,j,1,17,77,12,j,1,0.666507665356,01,02,60.0206989527,PLT_learning_01,A,2014_Mrz_03_1535,P17,
stim_fb/ques.jpg,stim_fb/negf.jpg,stim_fb/posf.jpg,stim_01/f.jpg,stim_01/e.jpg,1,3,f,1,18,78,45,j,0,0.899811023977,01,02,60.0206989527,PLT_learning_01,A,2014_Mrz_03_1535,P17,
stim_fb/ques.jpg,stim_fb/posf.jpg,stim_fb/negf.jpg,stim_01/f.jpg,stim_01/e.jpg,1,3,f,1,19,79,46,f,1,0.449897727085,01,02,60.0206989527,PLT_learning_01,A,2014_Mrz_03_1535,P17,
stim_fb/ques.jpg,stim_fb/negf.jpg,stim_fb/posf.jpg,stim_01/b.jpg,stim_01/a.jpg,1,1,f,1,20,80,5,f,1,0.783132003519,01,02,60.0206989527,PLT_learning_01,A,2014_Mrz_03_1535,P17,
stim_fb/ques.jpg,stim_fb/negf.jpg,stim_fb/posf.jpg,stim_01/d.jpg,stim_01/c.jpg,1,2,f,1,21,81,20,f,1,1.03304811543,01,02,60.0206989527,PLT_learning_01,A,2014_Mrz_03_1535,P17,
stim_fb/ques.jpg,stim_fb/negf.jpg,stim_fb/posf.jpg,stim_01/b.jpg,stim_01/a.jpg,1,1,f,1,22,82,1,f,1,1.04971077811,01,02,60.0206989527,PLT_learning_01,A,2014_Mrz_03_1535,P17,
stim_fb/ques.jpg,stim_fb/negf.jpg,stim_fb/posf.jpg,stim_01/f.jpg,stim_01/e.jpg,1,3,f,1,23,83,41,f,1,0.916363876963,01,02,60.0206989527,PLT_learning_01,A,2014_Mrz_03_1535,P17,
stim_fb/ques.jpg,stim_fb/posf.jpg,stim_fb/negf.jpg,stim_01/b.jpg,stim_01/a.jpg,1,1,f,1,24,84,9,f,1,0.899702883437,01,02,60.0206989527,PLT_learning_01,A,2014_Mrz_03_1535,P17,
stim_fb/ques.jpg,stim_fb/negf.jpg,stim_fb/posf.jpg,stim_01/d.jpg,stim_01/c.jpg,1,2,f,1,25,85,26,j,0,0.833115838227,01,02,60.0206989527,PLT_learning_01,A,2014_Mrz_03_1535,P17,
stim_fb/ques.jpg,stim_fb/negf.jpg,stim_fb/posf.jpg,stim_01/d.jpg,stim_01/c.jpg,1,2,f,1,26,86,22,f,1,0.73315846347,01,02,60.0206989527,PLT_learning_01,A,2014_Mrz_03_1535,P17,
stim_fb/ques.jpg,stim_fb/negf.jpg,stim_fb/posf.jpg,stim_01/e.jpg,stim_01/f.jpg,2,3,j,1,27,87,55,f,0,0.916429984737,01,02,60.0206989527,PLT_learning_01,A,2014_Mrz_03_1535,P17,
stim_fb/ques.jpg,stim_fb/negf.jpg,stim_fb/posf.jpg,stim_01/f.jpg,stim_01/e.jpg,1,3,f,1,28,88,44,j,0,0.849781691867,01,02,60.0206989527,PLT_learning_01,A,2014_Mrz_03_1535,P17,
stim_fb/ques.jpg,stim_fb/posf.jpg,stim_fb/negf.jpg,stim_01/a.jpg,stim_01/b.jpg,2,1,j,1,29,89,18,j,1,0.766475695671,01,02,60.0206989527,PLT_learning_01,A,2014_Mrz_03_1535,P17,
stim_fb/ques.jpg,stim_fb/negf.jpg,stim_fb/posf.jpg,stim_01/b.jpg,stim_01/a.jpg,1,1,f,1,30,90,0,f,1,0.666502330058,01,02,60.0206989527,PLT_learning_01,A,2014_Mrz_03_1535,P17,
stim_fb/ques.jpg,stim_fb/negf.jpg,stim_fb/posf.jpg,stim_01/e.jpg,stim_01/f.jpg,2,3,j,1,31,91,54,j,1,0.96641538635,01,02,60.0206989527,PLT_learning_01,A,2014_Mrz_03_1535,P17,
stim_fb/ques.jpg,stim_fb/negf.jpg,stim_fb/posf.jpg,stim_01/f.jpg,stim_01/e.jpg,1,3,f,1,32,92,42,f,1,0.616511584123,01,02,60.0206989527,PLT_learning_01,A,2014_Mrz_03_1535,P17,
stim_fb/ques.jpg,stim_fb/negf.jpg,stim_fb/posf.jpg,stim_01/a.jpg,stim_01/b.jpg,2,1,j,1,33,93,10,j,1,0.749790230149,01,02,60.0206989527,PLT_learning_01,A,2014_Mrz_03_1535,P17,
stim_fb/ques.jpg,stim_fb/negf.jpg,stim_fb/posf.jpg,stim_01/e.jpg,stim_01/f.jpg,2,3,j,1,34,94,53,j,1,0.699802969903,01,02,60.0206989527,PLT_learning_01,A,2014_Mrz_03_1535,P17,
stim_fb/ques.jpg,stim_fb/negf.jpg,stim_fb/posf.jpg,stim_01/c.jpg,stim_01/d.jpg,2,2,j,1,35,95,35,f,0,0.799773875385,01,02,60.0206989527,PLT_learning_01,A,2014_Mrz_03_1535,P17,
stim_fb/ques.jpg,stim_fb/negf.jpg,stim_fb/posf.jpg,stim_01/d.jpg,stim_01/c.jpg,1,2,f,1,36,96,24,f,1,0.899728137382,01,02,60.0206989527,PLT_learning_01,A,2014_Mrz_03_1535,P17,
stim_fb/ques.jpg,stim_fb/negf.jpg,stim_fb/posf.jpg,stim_01/b.jpg,stim_01/a.jpg,1,1,f,1,37,97,3,f,1,0.699811276607,01,02,60.0206989527,PLT_learning_01,A,2014_Mrz_03_1535,P17,
stim_fb/ques.jpg,stim_fb/posf.jpg,stim_fb/negf.jpg,stim_01/e.jpg,stim_01/f.jpg,2,3,j,1,38,98,56,j,1,0.633172463365,01,02,60.0206989527,PLT_learning_01,A,2014_Mrz_03_1535,P17,
stim_fb/ques.jpg,stim_fb/posf.jpg,stim_fb/negf.jpg,stim_01/f.jpg,stim_01/e.jpg,1,3,f,1,39,99,48,f,1,0.549810175863,01,02,60.0206989527,PLT_learning_01,A,2014_Mrz_03_1535,P17,
stim_fb/ques.jpg,stim_fb/negf.jpg,stim_fb/posf.jpg,stim_01/e.jpg,stim_01/f.jpg,2,3,j,1,40,100,50,f,0,0.649878824971,01,02,60.0206989527,PLT_learning_01,A,2014_Mrz_03_1535,P17,
stim_fb/ques.jpg,stim_fb/posf.jpg,stim_fb/negf.jpg,stim_01/e.jpg,stim_01/f.jpg,2,3,j,1,41,101,59,j,1,0.433240592176,01,02,60.0206989527,PLT_learning_01,A,2014_Mrz_03_1535,P17,
stim_fb/ques.jpg,stim_fb/negf.jpg,stim_fb/posf.jpg,stim_01/d.jpg,stim_01/c.jpg,1,2,f,1,42,102,21,j,0,0.683242694416,01,02,60.0206989527,PLT_learning_01,A,2014_Mrz_03_1535,P17,
stim_fb/ques.jpg,stim_fb/negf.jpg,stim_fb/posf.jpg,stim_01/f.jpg,stim_01/e.jpg,1,3,f,1,43,103,40,j,0,0.883104181172,01,02,60.0206989527,PLT_learning_01,A,2014_Mrz_03_1535,P17,
stim_fb/ques.jpg,stim_fb/negf.jpg,stim_fb/posf.jpg,stim_01/c.jpg,stim_01/d.jpg,2,2,j,1,44,104,34,j,1,1.1829358877,01,02,60.0206989527,PLT_learning_01,A,2014_Mrz_03_1535,P17,
stim_fb/ques.jpg,stim_fb/negf.jpg,stim_fb/posf.jpg,stim_01/a.jpg,stim_01/b.jpg,2,1,j,1,45,105,11,j,1,1.03301999534,01,02,60.0206989527,PLT_learning_01,A,2014_Mrz_03_1535,P17,
stim_fb/ques.jpg,stim_fb/posf.jpg,stim_fb/negf.jpg,stim_01/d.jpg,stim_01/c.jpg,1,2,f,1,46,106,29,f,1,0.749825739656,01,02,60.0206989527,PLT_learning_01,A,2014_Mrz_03_1535,P17,
stim_fb/ques.jpg,stim_fb/negf.jpg,stim_fb/posf.jpg,stim_01/f.jpg,stim_01/e.jpg,1,3,f,1,47,107,43,j,0,0.983062978474,01,02,60.0206989527,PLT_learning_01,A,2014_Mrz_03_1535,P17,
stim_fb/ques.jpg,stim_fb/posf.jpg,stim_fb/negf.jpg,stim_01/e.jpg,stim_01/f.jpg,2,3,j,1,48,108,57,j,1,0.666492372238,01,02,60.0206989527,PLT_learning_01,A,2014_Mrz_03_1535,P17,
stim_fb/ques.jpg,stim_fb/posf.jpg,stim_fb/negf.jpg,stim_01/f.jpg,stim_01/e.jpg,1,3,f,1,49,109,49,f,1,0.549869032563,01,02,60.0206989527,PLT_learning_01,A,2014_Mrz_03_1535,P17,
stim_fb/ques.jpg,stim_fb/posf.jpg,stim_fb/negf.jpg,stim_01/c.jpg,stim_01/d.jpg,2,2,j,1,50,110,37,f,0,0.699868755874,01,02,60.0206989527,PLT_learning_01,A,2014_Mrz_03_1535,P17,
stim_fb/ques.jpg,stim_fb/posf.jpg,stim_fb/negf.jpg,stim_01/c.jpg,stim_01/d.jpg,2,2,j,1,51,111,38,j,1,0.899753983805,01,02,60.0206989527,PLT_learning_01,A,2014_Mrz_03_1535,P17,
stim_fb/ques.jpg,stim_fb/posf.jpg,stim_fb/negf.jpg,stim_01/b.jpg,stim_01/a.jpg,1,1,f,1,52,112,8,f,1,0.699828434373,01,02,60.0206989527,PLT_learning_01,A,2014_Mrz_03_1535,P17,
stim_fb/ques.jpg,stim_fb/negf.jpg,stim_fb/posf.jpg,stim_01/a.jpg,stim_01/b.jpg,2,1,j,1,53,113,17,f,0,0.849743298171,01,02,60.0206989527,PLT_learning_01,A,2014_Mrz_03_1535,P17,
stim_fb/ques.jpg,stim_fb/negf.jpg,stim_fb/posf.jpg,stim_01/b.jpg,stim_01/a.jpg,1,1,f,1,54,114,7,f,1,0.799802317276,01,02,60.0206989527,PLT_learning_01,A,2014_Mrz_03_1535,P17,
stim_fb/ques.jpg,stim_fb/posf.jpg,stim_fb/negf.jpg,stim_01/f.jpg,stim_01/e.jpg,1,3,f,1,55,115,47,f,1,0.81644763874,01,02,60.0206989527,PLT_learning_01,A,2014_Mrz_03_1535,P17,
stim_fb/ques.jpg,stim_fb/negf.jpg,stim_fb/posf.jpg,stim_01/a.jpg,stim_01/b.jpg,2,1,j,1,56,116,13,j,1,0.649691812843,01,02,60.0206989527,PLT_learning_01,A,2014_Mrz_03_1535,P17,
stim_fb/ques.jpg,stim_fb/negf.jpg,stim_fb/posf.jpg,stim_01/b.jpg,stim_01/a.jpg,1,1,f,1,57,117,4,f,1,0.749813460049,01,02,60.0206989527,PLT_learning_01,A,2014_Mrz_03_1535,P17,
stim_fb/ques.jpg,stim_fb/posf.jpg,stim_fb/negf.jpg,stim_01/c.jpg,stim_01/d.jpg,2,2,j,1,58,118,39,f,0,1.03305390185,01,02,60.0206989527,PLT_learning_01,A,2014_Mrz_03_1535,P17,
stim_fb/ques.jpg,stim_fb/negf.jpg,stim_fb/posf.jpg,stim_01/b.jpg,stim_01/a.jpg,1,1,f,1,59,119,2,f,1,0.666515656273,01,02,60.0206989527,PLT_learning_01,A,2014_Mrz_03_1535,P17,
stim_fb/ques.jpg,stim_fb/negf.jpg,stim_fb/posf.jpg,stim_01/d.jpg,stim_01/c.jpg,1,2,f,2,0,120,22,j,0,0.79979143014,01,02,60.0206989527,PLT_learning_01,A,2014_Mrz_03_1535,P17,
stim_fb/ques.jpg,stim_fb/negf.jpg,stim_fb/posf.jpg,stim_01/a.jpg,stim_01/b.jpg,2,1,j,2,1,121,10,f,0,0.633187582048,01,02,60.0206989527,PLT_learning_01,A,2014_Mrz_03_1535,P17,
stim_fb/ques.jpg,stim_fb/posf.jpg,stim_fb/negf.jpg,stim_01/c.jpg,stim_01/d.jpg,2,2,j,2,2,122,38,f,0,0.816475560334,01,02,60.0206989527,PLT_learning_01,A,2014_Mrz_03_1535,P17,
stim_fb/ques.jpg,stim_fb/posf.jpg,stim_fb/negf.jpg,stim_01/a.jpg,stim_01/b.jpg,2,1,j,2,3,123,18,j,1,0.649840873377,01,02,60.0206989527,PLT_learning_01,A,2014_Mrz_03_1535,P17,
stim_fb/ques.jpg,stim_fb/negf.jpg,stim_fb/posf.jpg,stim_01/a.jpg,stim_01/b.jpg,2,1,j,2,4,124,14,j,1,0.649839634289,01,02,60.0206989527,PLT_learning_01,A,2014_Mrz_03_1535,P17,
stim_fb/ques.jpg,stim_fb/negf.jpg,stim_fb/posf.jpg,stim_01/c.jpg,stim_01/d.jpg,2,2,j,2,5,125,32,f,0,0.849784594101,01,02,60.0206989527,PLT_learning_01,A,2014_Mrz_03_1535,P17,
stim_fb/ques.jpg,stim_fb/posf.jpg,stim_fb/negf.jpg,stim_01/a.jpg,stim_01/b.jpg,2,1,j,2,6,126,19,j,1,0.599901994722,01,02,60.0206989527,PLT_learning_01,A,2014_Mrz_03_1535,P17,
stim_fb/ques.jpg,stim_fb/negf.jpg,stim_fb/posf.jpg,stim_01/a.jpg,stim_01/b.jpg,2,1,j,2,7,127,11,j,1,0.666498706025,01,02,60.0206989527,PLT_learning_01,A,2014_Mrz_03_1535,P17,
stim_fb/ques.jpg,stim_fb/negf.jpg,stim_fb/posf.jpg,stim_01/a.jpg,stim_01/b.jpg,2,1,j,2,8,128,13,f,0,0.933103200728,01,02,60.0206989527,PLT_learning_01,A,2014_Mrz_03_1535,P17,
stim_fb/ques.jpg,stim_fb/posf.jpg,stim_fb/negf.jpg,stim_01/b.jpg,stim_01/a.jpg,1,1,f,2,9,129,9,j,0,0.966393224111,01,02,60.0206989527,PLT_learning_01,A,2014_Mrz_03_1535,P17,
stim_fb/ques.jpg,stim_fb/negf.jpg,stim_fb/posf.jpg,stim_01/a.jpg,stim_01/b.jpg,2,1,j,2,10,130,17,j,1,0.766633083962,01,02,60.0206989527,PLT_learning_01,A,2014_Mrz_03_1535,P17,
stim_fb/ques.jpg,stim_fb/posf.jpg,stim_fb/negf.jpg,stim_01/f.jpg,stim_01/e.jpg,1,3,f,2,11,131,49,f,1,0.866430186239,01,02,60.0206989527,PLT_learning_01,A,2014_Mrz_03_1535,P17,
stim_fb/ques.jpg,stim_fb/negf.jpg,stim_fb/posf.jpg,stim_01/e.jpg,stim_01/f.jpg,2,3,j,2,12,132,55,j,1,1.14967604755,01,02,60.0206989527,PLT_learning_01,A,2014_Mrz_03_1535,P17,
stim_fb/ques.jpg,stim_fb/negf.jpg,stim_fb/posf.jpg,stim_01/f.jpg,stim_01/e.jpg,1,3,f,2,13,133,45,j,0,0.899753932677,01,02,60.0206989527,PLT_learning_01,A,2014_Mrz_03_1535,P17,
stim_fb/ques.jpg,stim_fb/negf.jpg,stim_fb/posf.jpg,stim_01/e.jpg,stim_01/f.jpg,2,3,j,2,14,134,50,j,1,0.74982084646,01,02,60.0206989527,PLT_learning_01,A,2014_Mrz_03_1535,P17,
stim_fb/ques.jpg,stim_fb/negf.jpg,stim_fb/posf.jpg,stim_01/b.jpg,stim_01/a.jpg,1,1,f,2,15,135,2,f,1,0.933075537778,01,02,60.0206989527,PLT_learning_01,A,2014_Mrz_03_1535,P17,
stim_fb/ques.jpg,stim_fb/negf.jpg,stim_fb/posf.jpg,stim_01/b.jpg,stim_01/a.jpg,1,1,f,2,16,136,7,f,1,0.716537003481,01,02,60.0206989527,PLT_learning_01,A,2014_Mrz_03_1535,P17,
stim_fb/ques.jpg,stim_fb/negf.jpg,stim_fb/posf.jpg,stim_01/b.jpg,stim_01/a.jpg,1,1,f,2,17,137,3,f,1,0.516543466591,01,02,60.0206989527,PLT_learning_01,A,2014_Mrz_03_1535,P17,
stim_fb/ques.jpg,stim_fb/negf.jpg,stim_fb/posf.jpg,stim_01/d.jpg,stim_01/c.jpg,1,2,f,2,18,138,26,j,0,0.749801848106,01,02,60.0206989527,PLT_learning_01,A,2014_Mrz_03_1535,P17,
stim_fb/ques.jpg,stim_fb/negf.jpg,stim_fb/posf.jpg,stim_01/c.jpg,stim_01/d.jpg,2,2,j,2,19,139,31,j,1,0.766533923805,01,02,60.0206989527,PLT_learning_01,A,2014_Mrz_03_1535,P17,
stim_fb/ques.jpg,stim_fb/negf.jpg,stim_fb/posf.jpg,stim_01/b.jpg,stim_01/a.jpg,1,1,f,2,20,140,1,f,1,0.683181236231,01,02,60.0206989527,PLT_learning_01,A,2014_Mrz_03_1535,P17,
stim_fb/ques.jpg,stim_fb/negf.jpg,stim_fb/posf.jpg,stim_01/f.jpg,stim_01/e.jpg,1,3,f,2,21,141,41,j,0,0.766475148307,01,02,60.0206989527,PLT_learning_01,A,2014_Mrz_03_1535,P17,
stim_fb/ques.jpg,stim_fb/negf.jpg,stim_fb/posf.jpg,stim_01/c.jpg,stim_01/d.jpg,2,2,j,2,22,142,33,f,0,0.683159660454,01,02,60.0206989527,PLT_learning_01,A,2014_Mrz_03_1535,P17,
stim_fb/ques.jpg,stim_fb/negf.jpg,stim_fb/posf.jpg,stim_01/b.jpg,stim_01/a.jpg,1,1,f,2,23,143,6,f,1,0.733174746055,01,02,60.0206989527,PLT_learning_01,A,2014_Mrz_03_1535,P17,
stim_fb/ques.jpg,stim_fb/negf.jpg,stim_fb/posf.jpg,stim_01/d.jpg,stim_01/c.jpg,1,2,f,2,24,144,23,f,1,0.683153507116,01,02,60.0206989527,PLT_learning_01,A,2014_Mrz_03_1535,P17,
stim_fb/ques.jpg,stim_fb/negf.jpg,stim_fb/posf.jpg,stim_01/e.jpg,stim_01/f.jpg,2,3,j,2,25,145,52,j,1,0.833107110473,01,02,60.0206989527,PLT_learning_01,A,2014_Mrz_03_1535,P17,
stim_fb/ques.jpg,stim_fb/negf.jpg,stim_fb/posf.jpg,stim_01/d.jpg,stim_01/c.jpg,1,2,f,2,26,146,21,f,1,0.666500504507,01,02,60.0206989527,PLT_learning_01,A,2014_Mrz_03_1535,P17,
stim_fb/ques.jpg,stim_fb/negf.jpg,stim_fb/posf.jpg,stim_01/c.jpg,stim_01/d.jpg,2,2,j,2,27,147,34,j,1,0.599851156006,01,02,60.0206989527,PLT_learning_01,A,2014_Mrz_03_1535,P17,
stim_fb/ques.jpg,stim_fb/negf.jpg,stim_fb/posf.jpg,stim_01/d.jpg,stim_01/c.jpg,1,2,f,2,28,148,20,f,1,0.633045799656,01,02,60.0206989527,PLT_learning_01,A,2014_Mrz_03_1535,P17,
stim_fb/ques.jpg,stim_fb/negf.jpg,stim_fb/posf.jpg,stim_01/a.jpg,stim_01/b.jpg,2,1,j,2,29,149,16,j,1,0.833086205367,01,02,60.0206989527,PLT_learning_01,A,2014_Mrz_03_1535,P17,
stim_fb/ques.jpg,stim_fb/posf.jpg,stim_fb/negf.jpg,stim_01/e.jpg,stim_01/f.jpg,2,3,j,2,30,150,57,j,1,0.899789252713,01,02,60.0206989527,PLT_learning_01,A,2014_Mrz_03_1535,P17,
stim_fb/ques.jpg,stim_fb/posf.jpg,stim_fb/negf.jpg,stim_01/c.jpg,stim_01/d.jpg,2,2,j,2,31,151,37,j,1,0.88308942038,01,02,60.0206989527,PLT_learning_01,A,2014_Mrz_03_1535,P17,
stim_fb/ques.jpg,stim_fb/posf.jpg,stim_fb/negf.jpg,stim_01/f.jpg,stim_01/e.jpg,1,3,f,2,32,152,47,f,1,0.599861167962,01,02,60.0206989527,PLT_learning_01,A,2014_Mrz_03_1535,P17,
stim_fb/ques.jpg,stim_fb/negf.jpg,stim_fb/posf.jpg,stim_01/a.jpg,stim_01/b.jpg,2,1,j,2,33,153,12,j,1,0.73315098082,01,02,60.0206989527,PLT_learning_01,A,2014_Mrz_03_1535,P17,
stim_fb/ques.jpg,stim_fb/negf.jpg,stim_fb/posf.jpg,stim_01/c.jpg,stim_01/d.jpg,2,2,j,2,34,154,35,j,1,0.799787084307,01,02,60.0206989527,PLT_learning_01,A,2014_Mrz_03_1535,P17,
stim_fb/ques.jpg,stim_fb/posf.jpg,stim_fb/negf.jpg,stim_01/c.jpg,stim_01/d.jpg,2,2,j,2,35,155,39,j,1,0.58317614454,01,02,60.0206989527,PLT_learning_01,A,2014_Mrz_03_1535,P17,
stim_fb/ques.jpg,stim_fb/posf.jpg,stim_fb/negf.jpg,stim_01/b.jpg,stim_01/a.jpg,1,1,f,2,36,156,8,f,1,0.683177726483,01,02,60.0206989527,PLT_learning_01,A,2014_Mrz_03_1535,P17,
stim_fb/ques.jpg,stim_fb/posf.jpg,stim_fb/negf.jpg,stim_01/e.jpg,stim_01/f.jpg,2,3,j,2,37,157,56,j,1,0.916477184382,01,02,60.0206989527,PLT_learning_01,A,2014_Mrz_03_1535,P17,
stim_fb/ques.jpg,stim_fb/posf.jpg,stim_fb/negf.jpg,stim_01/d.jpg,stim_01/c.jpg,1,2,f,2,38,158,29,f,1,0.733137311749,01,02,60.0206989527,PLT_learning_01,A,2014_Mrz_03_1535,P17,
stim_fb/ques.jpg,stim_fb/negf.jpg,stim_fb/posf.jpg,stim_01/e.jpg,stim_01/f.jpg,2,3,j,2,39,159,53,j,1,0.816435196728,01,02,60.0206989527,PLT_learning_01,A,2014_Mrz_03_1535,P17,
stim_fb/ques.jpg,stim_fb/negf.jpg,stim_fb/posf.jpg,stim_01/c.jpg,stim_01/d.jpg,2,2,j,2,40,160,30,f,0,0.883104560116,01,02,60.0206989527,PLT_learning_01,A,2014_Mrz_03_1535,P17,
stim_fb/ques.jpg,stim_fb/negf.jpg,stim_fb/posf.jpg,stim_01/f.jpg,stim_01/e.jpg,1,3,f,2,41,161,40,f,1,0.916403115766,01,02,60.0206989527,PLT_learning_01,A,2014_Mrz_03_1535,P17,
stim_fb/ques.jpg,stim_fb/negf.jpg,stim_fb/posf.jpg,stim_01/f.jpg,stim_01/e.jpg,1,3,f,2,42,162,43,f,1,0.499885546725,01,02,60.0206989527,PLT_learning_01,A,2014_Mrz_03_1535,P17,
stim_fb/ques.jpg,stim_fb/posf.jpg,stim_fb/negf.jpg,stim_01/d.jpg,stim_01/c.jpg,1,2,f,2,43,163,27,j,0,0.916386854235,01,02,60.0206989527,PLT_learning_01,A,2014_Mrz_03_1535,P17,
stim_fb/ques.jpg,stim_fb/posf.jpg,stim_fb/negf.jpg,stim_01/d.jpg,stim_01/c.jpg,1,2,f,2,44,164,28,j,0,1.11628122796,01,02,60.0206989527,PLT_learning_01,A,2014_Mrz_03_1535,P17,
stim_fb/ques.jpg,stim_fb/negf.jpg,stim_fb/posf.jpg,stim_01/d.jpg,stim_01/c.jpg,1,2,f,2,45,165,25,f,1,0.899783457267,01,02,60.0206989527,PLT_learning_01,A,2014_Mrz_03_1535,P17,
stim_fb/ques.jpg,stim_fb/negf.jpg,stim_fb/posf.jpg,stim_01/b.jpg,stim_01/a.jpg,1,1,f,2,46,166,0,j,0,0.983057435658,01,02,60.0206989527,PLT_learning_01,A,2014_Mrz_03_1535,P17,
stim_fb/ques.jpg,stim_fb/negf.jpg,stim_fb/posf.jpg,stim_01/d.jpg,stim_01/c.jpg,1,2,f,2,47,167,24,f,1,1.23299692483,01,02,60.0206989527,PLT_learning_01,A,2014_Mrz_03_1535,P17,
stim_fb/ques.jpg,stim_fb/negf.jpg,stim_fb/posf.jpg,stim_01/b.jpg,stim_01/a.jpg,1,1,f,2,48,168,5,f,1,0.766455795069,01,02,60.0206989527,PLT_learning_01,A,2014_Mrz_03_1535,P17,
stim_fb/ques.jpg,stim_fb/negf.jpg,stim_fb/posf.jpg,stim_01/f.jpg,stim_01/e.jpg,1,3,f,2,49,169,44,f,1,0.833112863813,01,02,60.0206989527,PLT_learning_01,A,2014_Mrz_03_1535,P17,
stim_fb/ques.jpg,stim_fb/posf.jpg,stim_fb/negf.jpg,stim_01/f.jpg,stim_01/e.jpg,1,3,f,2,50,170,46,f,1,0.599853026669,01,02,60.0206989527,PLT_learning_01,A,2014_Mrz_03_1535,P17,
stim_fb/ques.jpg,stim_fb/negf.jpg,stim_fb/posf.jpg,stim_01/b.jpg,stim_01/a.jpg,1,1,f,2,51,171,4,f,1,0.799796951902,01,02,60.0206989527,PLT_learning_01,A,2014_Mrz_03_1535,P17,
stim_fb/ques.jpg,stim_fb/posf.jpg,stim_fb/negf.jpg,stim_01/e.jpg,stim_01/f.jpg,2,3,j,2,52,172,59,j,1,1.21629594364,01,02,60.0206989527,PLT_learning_01,A,2014_Mrz_03_1535,P17,
stim_fb/ques.jpg,stim_fb/negf.jpg,stim_fb/posf.jpg,stim_01/c.jpg,stim_01/d.jpg,2,2,j,2,53,173,36,f,0,1.18300051278,01,02,60.0206989527,PLT_learning_01,A,2014_Mrz_03_1535,P17,
stim_fb/ques.jpg,stim_fb/posf.jpg,stim_fb/negf.jpg,stim_01/e.jpg,stim_01/f.jpg,2,3,j,2,54,174,58,j,1,0.8830917151,01,02,60.0206989527,PLT_learning_01,A,2014_Mrz_03_1535,P17,
stim_fb/ques.jpg,stim_fb/posf.jpg,stim_fb/negf.jpg,stim_01/f.jpg,stim_01/e.jpg,1,3,f,2,55,175,48,f,1,1.1829774934,01,02,60.0206989527,PLT_learning_01,A,2014_Mrz_03_1535,P17,
stim_fb/ques.jpg,stim_fb/negf.jpg,stim_fb/posf.jpg,stim_01/a.jpg,stim_01/b.jpg,2,1,j,2,56,176,15,j,1,0.933111092398,01,02,60.0206989527,PLT_learning_01,A,2014_Mrz_03_1535,P17,
stim_fb/ques.jpg,stim_fb/negf.jpg,stim_fb/posf.jpg,stim_01/e.jpg,stim_01/f.jpg,2,3,j,2,57,177,54,f,0,0.783157218367,01,02,60.0206989527,PLT_learning_01,A,2014_Mrz_03_1535,P17,
stim_fb/ques.jpg,stim_fb/negf.jpg,stim_fb/posf.jpg,stim_01/f.jpg,stim_01/e.jpg,1,3,f,2,58,178,42,f,1,0.63316855362,01,02,60.0206989527,PLT_learning_01,A,2014_Mrz_03_1535,P17,
stim_fb/ques.jpg,stim_fb/negf.jpg,stim_fb/posf.jpg,stim_01/e.jpg,stim_01/f.jpg,2,3,j,2,59,179,51,f,0,1.16633521252,01,02,60.0206989527,PLT_learning_01,A,2014_Mrz_03_1535,P17,
stim_fb/ques.jpg,stim_fb/negf.jpg,stim_fb/posf.jpg,stim_01/e.jpg,stim_01/f.jpg,2,3,j,3,0,180,54,j,1,0.866454225156,01,02,60.0206989527,PLT_learning_01,A,2014_Mrz_03_1535,P17,
stim_fb/ques.jpg,stim_fb/posf.jpg,stim_fb/negf.jpg,stim_01/e.jpg,stim_01/f.jpg,2,3,j,3,1,181,59,j,1,0.566546254539,01,02,60.0206989527,PLT_learning_01,A,2014_Mrz_03_1535,P17,
stim_fb/ques.jpg,stim_fb/negf.jpg,stim_fb/posf.jpg,stim_01/a.jpg,stim_01/b.jpg,2,1,j,3,2,182,17,j,1,0.766468306254,01,02,60.0206989527,PLT_learning_01,A,2014_Mrz_03_1535,P17,
stim_fb/ques.jpg,stim_fb/negf.jpg,stim_fb/posf.jpg,stim_01/a.jpg,stim_01/b.jpg,2,1,j,3,3,183,10,f,0,0.766408490162,01,02,60.0206989527,PLT_learning_01,A,2014_Mrz_03_1535,P17,
stim_fb/ques.jpg,stim_fb/posf.jpg,stim_fb/negf.jpg,stim_01/c.jpg,stim_01/d.jpg,2,2,j,3,4,184,38,f,0,0.766477443027,01,02,60.0206989527,PLT_learning_01,A,2014_Mrz_03_1535,P17,
stim_fb/ques.jpg,stim_fb/negf.jpg,stim_fb/posf.jpg,stim_01/b.jpg,stim_01/a.jpg,1,1,f,3,5,185,0,f,1,0.633186950474,01,02,60.0206989527,PLT_learning_01,A,2014_Mrz_03_1535,P17,
stim_fb/ques.jpg,stim_fb/negf.jpg,stim_fb/posf.jpg,stim_01/f.jpg,stim_01/e.jpg,1,3,f,3,6,186,43,f,1,0.783118743468,01,02,60.0206989527,PLT_learning_01,A,2014_Mrz_03_1535,P17,
stim_fb/ques.jpg,stim_fb/negf.jpg,stim_fb/posf.jpg,stim_01/b.jpg,stim_01/a.jpg,1,1,f,3,7,187,7,f,1,0.633134701243,01,02,60.0206989527,PLT_learning_01,A,2014_Mrz_03_1535,P17,
stim_fb/ques.jpg,stim_fb/negf.jpg,stim_fb/posf.jpg,stim_01/b.jpg,stim_01/a.jpg,1,1,f,3,8,188,1,f,1,0.583198986474,01,02,60.0206989527,PLT_learning_01,A,2014_Mrz_03_1535,P17,
stim_fb/ques.jpg,stim_fb/negf.jpg,stim_fb/posf.jpg,stim_01/c.jpg,stim_01/d.jpg,2,2,j,3,9,189,32,f,0,1.18301542094,01,02,60.0206989527,PLT_learning_01,A,2014_Mrz_03_1535,P17,
stim_fb/ques.jpg,stim_fb/negf.jpg,stim_fb/posf.jpg,stim_01/c.jpg,stim_01/d.jpg,2,2,j,3,10,190,30,j,1,0.999723692303,01,02,60.0206989527,PLT_learning_01,A,2014_Mrz_03_1535,P17,
stim_fb/ques.jpg,stim_fb/negf.jpg,stim_fb/posf.jpg,stim_01/f.jpg,stim_01/e.jpg,1,3,f,3,11,191,41,f,1,0.716490561725,01,02,60.0206989527,PLT_learning_01,A,2014_Mrz_03_1535,P17,
stim_fb/ques.jpg,stim_fb/negf.jpg,stim_fb/posf.jpg,stim_01/a.jpg,stim_01/b.jpg,2,1,j,3,12,192,13,j,1,0.616513096894,01,02,60.0206989527,PLT_learning_01,A,2014_Mrz_03_1535,P17,
stim_fb/ques.jpg,stim_fb/negf.jpg,stim_fb/posf.jpg,stim_01/d.jpg,stim_01/c.jpg,1,2,f,3,13,193,25,j,0,1.16635835821,01,02,60.0206989527,PLT_learning_01,A,2014_Mrz_03_1535,P17,
stim_fb/ques.jpg,stim_fb/negf.jpg,stim_fb/posf.jpg,stim_01/c.jpg,stim_01/d.jpg,2,2,j,3,14,194,33,j,1,0.749739162864,01,02,60.0206989527,PLT_learning_01,A,2014_Mrz_03_1535,P17,
stim_fb/ques.jpg,stim_fb/posf.jpg,stim_fb/negf.jpg,stim_01/e.jpg,stim_01/f.jpg,2,3,j,3,15,195,56,j,1,0.816448619183,01,02,60.0206989527,PLT_learning_01,A,2014_Mrz_03_1535,P17,
stim_fb/ques.jpg,stim_fb/posf.jpg,stim_fb/negf.jpg,stim_01/c.jpg,stim_01/d.jpg,2,2,j,3,16,196,39,j,1,0.883084497109,01,02,60.0206989527,PLT_learning_01,A,2014_Mrz_03_1535,P17,
stim_fb/ques.jpg,stim_fb/negf.jpg,stim_fb/posf.jpg,stim_01/c.jpg,stim_01/d.jpg,2,2,j,3,17,197,34,f,0,0.666499614289,01,02,60.0206989527,PLT_learning_01,A,2014_Mrz_03_1535,P17,
stim_fb/ques.jpg,stim_fb/negf.jpg,stim_fb/posf.jpg,stim_01/e.jpg,stim_01/f.jpg,2,3,j,3,18,198,53,j,1,1.04972617349,01,02,60.0206989527,PLT_learning_01,A,2014_Mrz_03_1535,P17,
stim_fb/ques.jpg,stim_fb/negf.jpg,stim_fb/posf.jpg,stim_01/f.jpg,stim_01/e.jpg,1,3,f,3,19,199,40,f,1,0.649835174172,01,02,60.0206989527,PLT_learning_01,A,2014_Mrz_03_1535,P17,
stim_fb/ques.jpg,stim_fb/posf.jpg,stim_fb/negf.jpg,stim_01/f.jpg,stim_01/e.jpg,1,3,f,3,20,200,48,f,1,1.23296013113,01,02,60.0206989527,PLT_learning_01,A,2014_Mrz_03_1535,P17,
stim_fb/ques.jpg,stim_fb/negf.jpg,stim_fb/posf.jpg,stim_01/a.jpg,stim_01/b.jpg,2,1,j,3,21,201,11,j,1,0.666505632289,01,02,60.0206989527,PLT_learning_01,A,2014_Mrz_03_1535,P17,
stim_fb/ques.jpg,stim_fb/negf.jpg,stim_fb/posf.jpg,stim_01/e.jpg,stim_01/f.jpg,2,3,j,3,22,202,50,j,1,0.799770242329,01,02,60.0206989527,PLT_learning_01,A,2014_Mrz_03_1535,P17,
stim_fb/ques.jpg,stim_fb/negf.jpg,stim_fb/posf.jpg,stim_01/a.jpg,stim_01/b.jpg,2,1,j,3,23,203,16,j,1,0.683162634868,01,02,60.0206989527,PLT_learning_01,A,2014_Mrz_03_1535,P17,
stim_fb/ques.jpg,stim_fb/posf.jpg,stim_fb/negf.jpg,stim_01/d.jpg,stim_01/c.jpg,1,2,f,3,24,204,27,f,1,0.783116809648,01,02,60.0206989527,PLT_learning_01,A,2014_Mrz_03_1535,P17,
stim_fb/ques.jpg,stim_fb/negf.jpg,stim_fb/posf.jpg,stim_01/f.jpg,stim_01/e.jpg,1,3,f,3,25,205,42,f,1,0.749817643476,01,02,60.0206989527,PLT_learning_01,A,2014_Mrz_03_1535,P17,
stim_fb/ques.jpg,stim_fb/negf.jpg,stim_fb/posf.jpg,stim_01/e.jpg,stim_01/f.jpg,2,3,j,3,26,206,55,j,1,0.916422745694,01,02,60.0206989527,PLT_learning_01,A,2014_Mrz_03_1535,P17,
stim_fb/ques.jpg,stim_fb/negf.jpg,stim_fb/posf.jpg,stim_01/a.jpg,stim_01/b.jpg,2,1,j,3,27,207,12,j,1,0.633135447102,01,02,60.0206989527,PLT_learning_01,A,2014_Mrz_03_1535,P17,
stim_fb/ques.jpg,stim_fb/posf.jpg,stim_fb/negf.jpg,stim_01/a.jpg,stim_01/b.jpg,2,1,j,3,28,208,18,j,1,0.716481803896,01,02,60.0206989527,PLT_learning_01,A,2014_Mrz_03_1535,P17,
stim_fb/ques.jpg,stim_fb/posf.jpg,stim_fb/negf.jpg,stim_01/f.jpg,stim_01/e.jpg,1,3,f,3,29,209,49,f,1,0.733151976301,01,02,60.0206989527,PLT_learning_01,A,2014_Mrz_03_1535,P17,
stim_fb/ques.jpg,stim_fb/negf.jpg,stim_fb/posf.jpg,stim_01/e.jpg,stim_01/f.jpg,2,3,j,3,30,210,52,f,0,1.04969337073,01,02,60.0206989527,PLT_learning_01,A,2014_Mrz_03_1535,P17,
stim_fb/ques.jpg,stim_fb/negf.jpg,stim_fb/posf.jpg,stim_01/c.jpg,stim_01/d.jpg,2,2,j,3,31,211,36,j,1,1.0830286449,01,02,60.0206989527,PLT_learning_01,A,2014_Mrz_03_1535,P17,
stim_fb/ques.jpg,stim_fb/posf.jpg,stim_fb/negf.jpg,stim_01/d.jpg,stim_01/c.jpg,1,2,f,3,32,212,28,j,0,0.916420282555,01,02,60.0206989527,PLT_learning_01,A,2014_Mrz_03_1535,P17,
stim_fb/ques.jpg,stim_fb/posf.jpg,stim_fb/negf.jpg,stim_01/e.jpg,stim_01/f.jpg,2,3,j,3,33,213,58,j,1,0.933062623589,01,02,60.0206989527,PLT_learning_01,A,2014_Mrz_03_1535,P17,
stim_fb/ques.jpg,stim_fb/negf.jpg,stim_fb/posf.jpg,stim_01/b.jpg,stim_01/a.jpg,1,1,f,3,34,214,4,f,1,0.566532299757,01,02,60.0206989527,PLT_learning_01,A,2014_Mrz_03_1535,P17,
stim_fb/ques.jpg,stim_fb/negf.jpg,stim_fb/posf.jpg,stim_01/d.jpg,stim_01/c.jpg,1,2,f,3,35,215,20,j,0,0.599845892888,01,02,60.0206989527,PLT_learning_01,A,2014_Mrz_03_1535,P17,
stim_fb/ques.jpg,stim_fb/negf.jpg,stim_fb/posf.jpg,stim_01/d.jpg,stim_01/c.jpg,1,2,f,3,36,216,22,f,1,0.69981473222,01,02,60.0206989527,PLT_learning_01,A,2014_Mrz_03_1535,P17,
stim_fb/ques.jpg,stim_fb/negf.jpg,stim_fb/posf.jpg,stim_01/b.jpg,stim_01/a.jpg,1,1,f,3,37,217,2,f,1,0.599847925956,01,02,60.0206989527,PLT_learning_01,A,2014_Mrz_03_1535,P17,
stim_fb/ques.jpg,stim_fb/negf.jpg,stim_fb/posf.jpg,stim_01/d.jpg,stim_01/c.jpg,1,2,f,3,38,218,24,f,1,0.749812103668,01,02,60.0206989527,PLT_learning_01,A,2014_Mrz_03_1535,P17,
stim_fb/ques.jpg,stim_fb/posf.jpg,stim_fb/negf.jpg,stim_01/a.jpg,stim_01/b.jpg,2,1,j,3,39,219,19,j,1,0.666497184232,01,02,60.0206989527,PLT_learning_01,A,2014_Mrz_03_1535,P17,
stim_fb/ques.jpg,stim_fb/negf.jpg,stim_fb/posf.jpg,stim_01/b.jpg,stim_01/a.jpg,1,1,f,3,40,220,3,f,1,0.549870909242,01,02,60.0206989527,PLT_learning_01,A,2014_Mrz_03_1535,P17,
stim_fb/ques.jpg,stim_fb/negf.jpg,stim_fb/posf.jpg,stim_01/f.jpg,stim_01/e.jpg,1,3,f,3,41,221,44,f,1,0.783110529996,01,02,60.0206989527,PLT_learning_01,A,2014_Mrz_03_1535,P17,
stim_fb/ques.jpg,stim_fb/negf.jpg,stim_fb/posf.jpg,stim_01/d.jpg,stim_01/c.jpg,1,2,f,3,42,222,23,f,1,1.09966217998,01,02,60.0206989527,PLT_learning_01,A,2014_Mrz_03_1535,P17,
stim_fb/ques.jpg,stim_fb/posf.jpg,stim_fb/negf.jpg,stim_01/b.jpg,stim_01/a.jpg,1,1,f,3,43,223,8,f,1,0.633232321562,01,02,60.0206989527,PLT_learning_01,A,2014_Mrz_03_1535,P17,
stim_fb/ques.jpg,stim_fb/negf.jpg,stim_fb/posf.jpg,stim_01/d.jpg,stim_01/c.jpg,1,2,f,3,44,224,26,f,1,0.599842716972,01,02,60.0206989527,PLT_learning_01,A,2014_Mrz_03_1535,P17,
stim_fb/ques.jpg,stim_fb/posf.jpg,stim_fb/negf.jpg,stim_01/f.jpg,stim_01/e.jpg,1,3,f,3,45,225,47,f,1,0.933033643356,01,02,60.0206989527,PLT_learning_01,A,2014_Mrz_03_1535,P17,
stim_fb/ques.jpg,stim_fb/posf.jpg,stim_fb/negf.jpg,stim_01/e.jpg,stim_01/f.jpg,2,3,j,3,46,226,57,j,1,0.599864764927,01,02,60.0206989527,PLT_learning_01,A,2014_Mrz_03_1535,P17,
stim_fb/ques.jpg,stim_fb/negf.jpg,stim_fb/posf.jpg,stim_01/c.jpg,stim_01/d.jpg,2,2,j,3,47,227,31,j,1,0.816455780032,01,02,60.0206989527,PLT_learning_01,A,2014_Mrz_03_1535,P17,
stim_fb/ques.jpg,stim_fb/negf.jpg,stim_fb/posf.jpg,stim_01/c.jpg,stim_01/d.jpg,2,2,j,3,48,228,35,j,1,0.533211413448,01,02,60.0206989527,PLT_learning_01,A,2014_Mrz_03_1535,P17,
stim_fb/ques.jpg,stim_fb/posf.jpg,stim_fb/negf.jpg,stim_01/f.jpg,stim_01/e.jpg,1,3,f,3,49,229,46,j,0,1.09969799024,01,02,60.0206989527,PLT_learning_01,A,2014_Mrz_03_1535,P17,
stim_fb/ques.jpg,stim_fb/posf.jpg,stim_fb/negf.jpg,stim_01/b.jpg,stim_01/a.jpg,1,1,f,3,50,230,9,f,1,0.699733256141,01,02,60.0206989527,PLT_learning_01,A,2014_Mrz_03_1535,P17,
stim_fb/ques.jpg,stim_fb/negf.jpg,stim_fb/posf.jpg,stim_01/f.jpg,stim_01/e.jpg,1,3,f,3,51,231,45,j,0,0.966404842069,01,02,60.0206989527,PLT_learning_01,A,2014_Mrz_03_1535,P17,
stim_fb/ques.jpg,stim_fb/negf.jpg,stim_fb/posf.jpg,stim_01/e.jpg,stim_01/f.jpg,2,3,j,3,52,232,51,j,1,0.849795171465,01,02,60.0206989527,PLT_learning_01,A,2014_Mrz_03_1535,P17,
stim_fb/ques.jpg,stim_fb/posf.jpg,stim_fb/negf.jpg,stim_01/d.jpg,stim_01/c.jpg,1,2,f,3,53,233,29,f,1,0.599856157472,01,02,60.0206989527,PLT_learning_01,A,2014_Mrz_03_1535,P17,
stim_fb/ques.jpg,stim_fb/negf.jpg,stim_fb/posf.jpg,stim_01/b.jpg,stim_01/a.jpg,1,1,f,3,54,234,6,f,1,0.583186767017,01,02,60.0206989527,PLT_learning_01,A,2014_Mrz_03_1535,P17,
stim_fb/ques.jpg,stim_fb/posf.jpg,stim_fb/negf.jpg,stim_01/c.jpg,stim_01/d.jpg,2,2,j,3,55,235,37,j,1,0.566326902805,01,02,60.0206989527,PLT_learning_01,A,2014_Mrz_03_1535,P17,
stim_fb/ques.jpg,stim_fb/negf.jpg,stim_fb/posf.jpg,stim_01/b.jpg,stim_01/a.jpg,1,1,f,3,56,236,5,f,1,0.616512155548,01,02,60.0206989527,PLT_learning_01,A,2014_Mrz_03_1535,P17,
stim_fb/ques.jpg,stim_fb/negf.jpg,stim_fb/posf.jpg,stim_01/a.jpg,stim_01/b.jpg,2,1,j,3,57,237,14,j,1,0.733139188427,01,02,60.0206989527,PLT_learning_01,A,2014_Mrz_03_1535,P17,
stim_fb/ques.jpg,stim_fb/negf.jpg,stim_fb/posf.jpg,stim_01/d.jpg,stim_01/c.jpg,1,2,f,3,58,238,21,j,0,1.01638474598,01,02,60.0206989527,PLT_learning_01,A,2014_Mrz_03_1535,P17,
stim_fb/ques.jpg,stim_fb/negf.jpg,stim_fb/posf.jpg,stim_01/a.jpg,stim_01/b.jpg,2,1,j,3,59,239,15,j,1,0.649829126097,01,02,60.0206989527,PLT_learning_01,A,2014_Mrz_03_1535,P17,
stim_fb/ques.jpg,stim_fb/negf.jpg,stim_fb/posf.jpg,stim_01/e.jpg,stim_01/f.jpg,2,3,j,4,0,240,53,j,1,0.916416291607,01,02,60.0206989527,PLT_learning_01,A,2014_Mrz_03_1535,P17,
stim_fb/ques.jpg,stim_fb/negf.jpg,stim_fb/posf.jpg,stim_01/a.jpg,stim_01/b.jpg,2,1,j,4,1,241,11,j,1,0.583188947452,01,02,60.0206989527,PLT_learning_01,A,2014_Mrz_03_1535,P17,
stim_fb/ques.jpg,stim_fb/posf.jpg,stim_fb/negf.jpg,stim_01/c.jpg,stim_01/d.jpg,2,2,j,4,2,242,39,f,0,1.08303788693,01,02,60.0206989527,PLT_learning_01,A,2014_Mrz_03_1535,P17,
stim_fb/ques.jpg,stim_fb/posf.jpg,stim_fb/negf.jpg,stim_01/c.jpg,stim_01/d.jpg,2,2,j,4,3,243,38,f,0,0.716465749882,01,02,60.0206989527,PLT_learning_01,A,2014_Mrz_03_1535,P17,
stim_fb/ques.jpg,stim_fb/posf.jpg,stim_fb/negf.jpg,stim_01/d.jpg,stim_01/c.jpg,1,2,f,4,4,244,27,j,0,0.716472516748,01,02,60.0206989527,PLT_learning_01,A,2014_Mrz_03_1535,P17,
stim_fb/ques.jpg,stim_fb/posf.jpg,stim_fb/negf.jpg,stim_01/e.jpg,stim_01/f.jpg,2,3,j,4,5,245,57,j,1,0.816426959196,01,02,60.0206989527,PLT_learning_01,A,2014_Mrz_03_1535,P17,
stim_fb/ques.jpg,stim_fb/negf.jpg,stim_fb/posf.jpg,stim_01/c.jpg,stim_01/d.jpg,2,2,j,4,6,246,34,f,0,0.633163522079,01,02,60.0206989527,PLT_learning_01,A,2014_Mrz_03_1535,P17,
stim_fb/ques.jpg,stim_fb/negf.jpg,stim_fb/posf.jpg,stim_01/a.jpg,stim_01/b.jpg,2,1,j,4,7,247,17,j,1,0.533165714543,01,02,60.0206989527,PLT_learning_01,A,2014_Mrz_03_1535,P17,
stim_fb/ques.jpg,stim_fb/negf.jpg,stim_fb/posf.jpg,stim_01/c.jpg,stim_01/d.jpg,2,2,j,4,8,248,32,j,1,0.93303392606,01,02,60.0206989527,PLT_learning_01,A,2014_Mrz_03_1535,P17,
stim_fb/ques.jpg,stim_fb/posf.jpg,stim_fb/negf.jpg,stim_01/c.jpg,stim_01/d.jpg,2,2,j,4,9,249,37,f,0,0.833099507523,01,02,60.0206989527,PLT_learning_01,A,2014_Mrz_03_1535,P17,
stim_fb/ques.jpg,stim_fb/posf.jpg,stim_fb/negf.jpg,stim_01/f.jpg,stim_01/e.jpg,1,3,f,4,10,250,46,f,1,0.799787075285,01,02,60.0206989527,PLT_learning_01,A,2014_Mrz_03_1535,P17,
stim_fb/ques.jpg,stim_fb/negf.jpg,stim_fb/posf.jpg,stim_01/b.jpg,stim_01/a.jpg,1,1,f,4,11,251,2,f,1,0.966273603958,01,02,60.0206989527,PLT_learning_01,A,2014_Mrz_03_1535,P17,
stim_fb/ques.jpg,stim_fb/negf.jpg,stim_fb/posf.jpg,stim_01/d.jpg,stim_01/c.jpg,1,2,f,4,12,252,20,f,1,0.799799430079,01,02,60.0206989527,PLT_learning_01,A,2014_Mrz_03_1535,P17,
stim_fb/ques.jpg,stim_fb/negf.jpg,stim_fb/posf.jpg,stim_01/e.jpg,stim_01/f.jpg,2,3,j,4,13,253,55,j,1,0.932961135631,01,02,60.0206989527,PLT_learning_01,A,2014_Mrz_03_1535,P17,
stim_fb/ques.jpg,stim_fb/posf.jpg,stim_fb/negf.jpg,stim_01/f.jpg,stim_01/e.jpg,1,3,f,4,14,254,48,f,1,0.716478886625,01,02,60.0206989527,PLT_learning_01,A,2014_Mrz_03_1535,P17,
stim_fb/ques.jpg,stim_fb/negf.jpg,stim_fb/posf.jpg,stim_01/f.jpg,stim_01/e.jpg,1,3,f,4,15,255,40,j,0,0.63317394606,01,02,60.0206989527,PLT_learning_01,A,2014_Mrz_03_1535,P17,
stim_fb/ques.jpg,stim_fb/posf.jpg,stim_fb/negf.jpg,stim_01/f.jpg,stim_01/e.jpg,1,3,f,4,16,256,47,f,1,0.516536889196,01,02,60.0206989527,PLT_learning_01,A,2014_Mrz_03_1535,P17,
stim_fb/ques.jpg,stim_fb/negf.jpg,stim_fb/posf.jpg,stim_01/f.jpg,stim_01/e.jpg,1,3,f,4,17,257,44,f,1,0.616513671326,01,02,60.0206989527,PLT_learning_01,A,2014_Mrz_03_1535,P17,
stim_fb/ques.jpg,stim_fb/negf.jpg,stim_fb/posf.jpg,stim_01/b.jpg,stim_01/a.jpg,1,1,f,4,18,258,5,f,1,0.699824897557,01,02,60.0206989527,PLT_learning_01,A,2014_Mrz_03_1535,P17,
stim_fb/ques.jpg,stim_fb/negf.jpg,stim_fb/posf.jpg,stim_01/a.jpg,stim_01/b.jpg,2,1,j,4,19,259,10,j,1,0.749807436034,01,02,60.0206989527,PLT_learning_01,A,2014_Mrz_03_1535,P17,
stim_fb/ques.jpg,stim_fb/negf.jpg,stim_fb/posf.jpg,stim_01/b.jpg,stim_01/a.jpg,1,1,f,4,20,260,3,f,1,0.749819727671,01,02,60.0206989527,PLT_learning_01,A,2014_Mrz_03_1535,P17,
stim_fb/ques.jpg,stim_fb/posf.jpg,stim_fb/negf.jpg,stim_01/e.jpg,stim_01/f.jpg,2,3,j,4,21,261,56,j,1,0.716481954271,01,02,60.0206989527,PLT_learning_01,A,2014_Mrz_03_1535,P17,
stim_fb/ques.jpg,stim_fb/negf.jpg,stim_fb/posf.jpg,stim_01/f.jpg,stim_01/e.jpg,1,3,f,4,22,262,42,f,1,0.833117738964,01,02,60.0206989527,PLT_learning_01,A,2014_Mrz_03_1535,P17,
stim_fb/ques.jpg,stim_fb/posf.jpg,stim_fb/negf.jpg,stim_01/a.jpg,stim_01/b.jpg,2,1,j,4,23,263,19,j,1,0.749799156397,01,02,60.0206989527,PLT_learning_01,A,2014_Mrz_03_1535,P17,
stim_fb/ques.jpg,stim_fb/negf.jpg,stim_fb/posf.jpg,stim_01/b.jpg,stim_01/a.jpg,1,1,f,4,24,264,7,f,1,0.566535782438,01,02,60.0206989527,PLT_learning_01,A,2014_Mrz_03_1535,P17,
stim_fb/ques.jpg,stim_fb/negf.jpg,stim_fb/posf.jpg,stim_01/b.jpg,stim_01/a.jpg,1,1,f,4,25,265,6,f,1,0.516554209367,01,02,60.0206989527,PLT_learning_01,A,2014_Mrz_03_1535,P17,
stim_fb/ques.jpg,stim_fb/negf.jpg,stim_fb/posf.jpg,stim_01/e.jpg,stim_01/f.jpg,2,3,j,4,26,266,50,j,1,1.08303430801,01,02,60.0206989527,PLT_learning_01,A,2014_Mrz_03_1535,P17,
stim_fb/ques.jpg,stim_fb/negf.jpg,stim_fb/posf.jpg,stim_01/a.jpg,stim_01/b.jpg,2,1,j,4,27,267,15,j,1,0.899755093571,01,02,60.0206989527,PLT_learning_01,A,2014_Mrz_03_1535,P17,
stim_fb/ques.jpg,stim_fb/negf.jpg,stim_fb/posf.jpg,stim_01/d.jpg,stim_01/c.jpg,1,2,f,4,28,268,24,f,1,0.883102656371,01,02,60.0206989527,PLT_learning_01,A,2014_Mrz_03_1535,P17,
stim_fb/ques.jpg,stim_fb/negf.jpg,stim_fb/posf.jpg,stim_01/d.jpg,stim_01/c.jpg,1,2,f,4,29,269,26,f,1,0.683139624514,01,02,60.0206989527,PLT_learning_01,A,2014_Mrz_03_1535,P17,
stim_fb/ques.jpg,stim_fb/posf.jpg,stim_fb/negf.jpg,stim_01/f.jpg,stim_01/e.jpg,1,3,f,4,30,270,49,f,1,0.849765619807,01,02,60.0206989527,PLT_learning_01,A,2014_Mrz_03_1535,P17,
stim_fb/ques.jpg,stim_fb/negf.jpg,stim_fb/posf.jpg,stim_01/e.jpg,stim_01/f.jpg,2,3,j,4,31,271,54,j,1,0.666509376621,01,02,60.0206989527,PLT_learning_01,A,2014_Mrz_03_1535,P17,
stim_fb/ques.jpg,stim_fb/negf.jpg,stim_fb/posf.jpg,stim_01/b.jpg,stim_01/a.jpg,1,1,f,4,32,272,1,f,1,0.533214640491,01,02,60.0206989527,PLT_learning_01,A,2014_Mrz_03_1535,P17,
stim_fb/ques.jpg,stim_fb/negf.jpg,stim_fb/posf.jpg,stim_01/a.jpg,stim_01/b.jpg,2,1,j,4,33,273,14,j,1,0.583171997203,01,02,60.0206989527,PLT_learning_01,A,2014_Mrz_03_1535,P17,
stim_fb/ques.jpg,stim_fb/negf.jpg,stim_fb/posf.jpg,stim_01/c.jpg,stim_01/d.jpg,2,2,j,4,34,274,33,f,0,1.13286888069,01,02,60.0206989527,PLT_learning_01,A,2014_Mrz_03_1535,P17,
stim_fb/ques.jpg,stim_fb/negf.jpg,stim_fb/posf.jpg,stim_01/a.jpg,stim_01/b.jpg,2,1,j,4,35,275,16,j,1,0.549867757385,01,02,60.0206989527,PLT_learning_01,A,2014_Mrz_03_1535,P17,
stim_fb/ques.jpg,stim_fb/negf.jpg,stim_fb/posf.jpg,stim_01/a.jpg,stim_01/b.jpg,2,1,j,4,36,276,12,j,1,0.566513926963,01,02,60.0206989527,PLT_learning_01,A,2014_Mrz_03_1535,P17,
stim_fb/ques.jpg,stim_fb/negf.jpg,stim_fb/posf.jpg,stim_01/c.jpg,stim_01/d.jpg,2,2,j,4,37,277,35,j,1,0.84975968301,01,02,60.0206989527,PLT_learning_01,A,2014_Mrz_03_1535,P17,
stim_fb/ques.jpg,stim_fb/negf.jpg,stim_fb/posf.jpg,stim_01/b.jpg,stim_01/a.jpg,1,1,f,4,38,278,4,f,1,0.533186914384,01,02,60.0206989527,PLT_learning_01,A,2014_Mrz_03_1535,P17,
stim_fb/ques.jpg,stim_fb/negf.jpg,stim_fb/posf.jpg,stim_01/d.jpg,stim_01/c.jpg,1,2,f,4,39,279,22,f,1,0.833143669597,01,02,60.0206989527,PLT_learning_01,A,2014_Mrz_03_1535,P17,
stim_fb/ques.jpg,stim_fb/negf.jpg,stim_fb/posf.jpg,stim_01/c.jpg,stim_01/d.jpg,2,2,j,4,40,280,31,j,1,0.533197049646,01,02,60.0206989527,PLT_learning_01,A,2014_Mrz_03_1535,P17,
stim_fb/ques.jpg,stim_fb/negf.jpg,stim_fb/posf.jpg,stim_01/c.jpg,stim_01/d.jpg,2,2,j,4,41,281,30,j,1,0.94974371922,01,02,60.0206989527,PLT_learning_01,A,2014_Mrz_03_1535,P17,
stim_fb/ques.jpg,stim_fb/posf.jpg,stim_fb/negf.jpg,stim_01/b.jpg,stim_01/a.jpg,1,1,f,4,42,282,9,f,1,0.483240180149,01,02,60.0206989527,PLT_learning_01,A,2014_Mrz_03_1535,P17,
stim_fb/ques.jpg,stim_fb/negf.jpg,stim_fb/posf.jpg,stim_01/d.jpg,stim_01/c.jpg,1,2,f,4,43,283,25,f,1,0.583185503869,01,02,60.0206989527,PLT_learning_01,A,2014_Mrz_03_1535,P17,
stim_fb/ques.jpg,stim_fb/negf.jpg,stim_fb/posf.jpg,stim_01/d.jpg,stim_01/c.jpg,1,2,f,4,44,284,23,f,1,0.533199828573,01,02,60.0206989527,PLT_learning_01,A,2014_Mrz_03_1535,P17,
stim_fb/ques.jpg,stim_fb/negf.jpg,stim_fb/posf.jpg,stim_01/f.jpg,stim_01/e.jpg,1,3,f,4,45,285,41,f,1,0.616504546582,01,02,60.0206989527,PLT_learning_01,A,2014_Mrz_03_1535,P17,
stim_fb/ques.jpg,stim_fb/negf.jpg,stim_fb/posf.jpg,stim_01/e.jpg,stim_01/f.jpg,2,3,j,4,46,286,51,j,1,0.533211034504,01,02,60.0206989527,PLT_learning_01,A,2014_Mrz_03_1535,P17,
stim_fb/ques.jpg,stim_fb/negf.jpg,stim_fb/posf.jpg,stim_01/a.jpg,stim_01/b.jpg,2,1,j,4,47,287,13,j,1,0.666512642762,01,02,60.0206989527,PLT_learning_01,A,2014_Mrz_03_1535,P17,
stim_fb/ques.jpg,stim_fb/negf.jpg,stim_fb/posf.jpg,stim_01/c.jpg,stim_01/d.jpg,2,2,j,4,48,288,36,j,1,0.699855865745,01,02,60.0206989527,PLT_learning_01,A,2014_Mrz_03_1535,P17,
stim_fb/ques.jpg,stim_fb/negf.jpg,stim_fb/posf.jpg,stim_01/e.jpg,stim_01/f.jpg,2,3,j,4,49,289,52,j,1,0.733183218171,01,02,60.0206989527,PLT_learning_01,A,2014_Mrz_03_1535,P17,
stim_fb/ques.jpg,stim_fb/posf.jpg,stim_fb/negf.jpg,stim_01/a.jpg,stim_01/b.jpg,2,1,j,4,50,290,18,j,1,0.699793276742,01,02,60.0206989527,PLT_learning_01,A,2014_Mrz_03_1535,P17,
stim_fb/ques.jpg,stim_fb/posf.jpg,stim_fb/negf.jpg,stim_01/e.jpg,stim_01/f.jpg,2,3,j,4,51,291,59,j,1,0.616590651198,01,02,60.0206989527,PLT_learning_01,A,2014_Mrz_03_1535,P17,
stim_fb/ques.jpg,stim_fb/negf.jpg,stim_fb/posf.jpg,stim_01/b.jpg,stim_01/a.jpg,1,1,f,4,52,292,0,f,1,0.683141347809,01,02,60.0206989527,PLT_learning_01,A,2014_Mrz_03_1535,P17,
stim_fb/ques.jpg,stim_fb/posf.jpg,stim_fb/negf.jpg,stim_01/d.jpg,stim_01/c.jpg,1,2,f,4,53,293,28,f,1,0.816449004143,01,02,60.0206989527,PLT_learning_01,A,2014_Mrz_03_1535,P17,
stim_fb/ques.jpg,stim_fb/posf.jpg,stim_fb/negf.jpg,stim_01/b.jpg,stim_01/a.jpg,1,1,f,4,54,294,8,f,1,0.683156547695,01,02,60.0206989527,PLT_learning_01,A,2014_Mrz_03_1535,P17,
stim_fb/ques.jpg,stim_fb/posf.jpg,stim_fb/negf.jpg,stim_01/d.jpg,stim_01/c.jpg,1,2,f,4,55,295,29,f,1,0.833110529996,01,02,60.0206989527,PLT_learning_01,A,2014_Mrz_03_1535,P17,
stim_fb/ques.jpg,stim_fb/negf.jpg,stim_fb/posf.jpg,stim_01/f.jpg,stim_01/e.jpg,1,3,f,4,56,296,45,j,0,0.749808046556,01,02,60.0206989527,PLT_learning_01,A,2014_Mrz_03_1535,P17,
stim_fb/ques.jpg,stim_fb/negf.jpg,stim_fb/posf.jpg,stim_01/f.jpg,stim_01/e.jpg,1,3,f,4,57,297,43,j,0,0.683157200322,01,02,60.0206989527,PLT_learning_01,A,2014_Mrz_03_1535,P17,
stim_fb/ques.jpg,stim_fb/negf.jpg,stim_fb/posf.jpg,stim_01/d.jpg,stim_01/c.jpg,1,2,f,4,58,298,21,j,0,0.866420252479,01,02,60.0206989527,PLT_learning_01,A,2014_Mrz_03_1535,P17,
stim_fb/ques.jpg,stim_fb/posf.jpg,stim_fb/negf.jpg,stim_01/e.jpg,stim_01/f.jpg,2,3,j,4,59,299,58,j,1,0.883098659408,01,02,60.0206989527,PLT_learning_01,A,2014_Mrz_03_1535,P17,
stim_fb/ques.jpg,stim_fb/negf.jpg,stim_fb/posf.jpg,stim_01/b.jpg,stim_01/a.jpg,1,1,f,5,0,300,7,f,1,0.733161278487,01,02,60.0206989527,PLT_learning_01,A,2014_Mrz_03_1535,P17,
stim_fb/ques.jpg,stim_fb/negf.jpg,stim_fb/posf.jpg,stim_01/a.jpg,stim_01/b.jpg,2,1,j,5,1,301,15,j,1,0.633183539973,01,02,60.0206989527,PLT_learning_01,A,2014_Mrz_03_1535,P17,
stim_fb/ques.jpg,stim_fb/negf.jpg,stim_fb/posf.jpg,stim_01/b.jpg,stim_01/a.jpg,1,1,f,5,2,302,3,f,1,1.0163780543,01,02,60.0206989527,PLT_learning_01,A,2014_Mrz_03_1535,P17,
stim_fb/ques.jpg,stim_fb/negf.jpg,stim_fb/posf.jpg,stim_01/c.jpg,stim_01/d.jpg,2,2,j,5,3,303,32,j,1,0.933083104639,01,02,60.0206989527,PLT_learning_01,A,2014_Mrz_03_1535,P17,
stim_fb/ques.jpg,stim_fb/negf.jpg,stim_fb/posf.jpg,stim_01/a.jpg,stim_01/b.jpg,2,1,j,5,4,304,12,j,1,0.800087921144,01,02,60.0206989527,PLT_learning_01,A,2014_Mrz_03_1535,P17,
stim_fb/ques.jpg,stim_fb/negf.jpg,stim_fb/posf.jpg,stim_01/d.jpg,stim_01/c.jpg,1,2,f,5,5,305,25,f,1,0.966389100834,01,02,60.0206989527,PLT_learning_01,A,2014_Mrz_03_1535,P17,
stim_fb/ques.jpg,stim_fb/posf.jpg,stim_fb/negf.jpg,stim_01/c.jpg,stim_01/d.jpg,2,2,j,5,6,306,39,j,1,0.566499394741,01,02,60.0206989527,PLT_learning_01,A,2014_Mrz_03_1535,P17,
stim_fb/ques.jpg,stim_fb/posf.jpg,stim_fb/negf.jpg,stim_01/f.jpg,stim_01/e.jpg,1,3,f,5,7,307,46,f,1,0.949743349298,01,02,60.0206989527,PLT_learning_01,A,2014_Mrz_03_1535,P17,
stim_fb/ques.jpg,stim_fb/negf.jpg,stim_fb/posf.jpg,stim_01/b.jpg,stim_01/a.jpg,1,1,f,5,8,308,1,f,1,0.633202135322,01,02,60.0206989527,PLT_learning_01,A,2014_Mrz_03_1535,P17,
stim_fb/ques.jpg,stim_fb/negf.jpg,stim_fb/posf.jpg,stim_01/a.jpg,stim_01/b.jpg,2,1,j,5,9,309,10,j,1,0.599857032654,01,02,60.0206989527,PLT_learning_01,A,2014_Mrz_03_1535,P17,
stim_fb/ques.jpg,stim_fb/negf.jpg,stim_fb/posf.jpg,stim_01/b.jpg,stim_01/a.jpg,1,1,f,5,10,310,4,f,1,0.499847784603,01,02,60.0206989527,PLT_learning_01,A,2014_Mrz_03_1535,P17,
stim_fb/ques.jpg,stim_fb/posf.jpg,stim_fb/negf.jpg,stim_01/d.jpg,stim_01/c.jpg,1,2,f,5,11,311,28,f,1,0.683135005,01,02,60.0206989527,PLT_learning_01,A,2014_Mrz_03_1535,P17,
stim_fb/ques.jpg,stim_fb/negf.jpg,stim_fb/posf.jpg,stim_01/e.jpg,stim_01/f.jpg,2,3,j,5,12,312,54,j,1,0.666516086345,01,02,60.0206989527,PLT_learning_01,A,2014_Mrz_03_1535,P17,
stim_fb/ques.jpg,stim_fb/posf.jpg,stim_fb/negf.jpg,stim_01/f.jpg,stim_01/e.jpg,1,3,f,5,13,313,47,f,1,0.633175176127,01,02,60.0206989527,PLT_learning_01,A,2014_Mrz_03_1535,P17,
stim_fb/ques.jpg,stim_fb/negf.jpg,stim_fb/posf.jpg,stim_01/e.jpg,stim_01/f.jpg,2,3,j,5,14,314,52,j,1,0.649847498891,01,02,60.0206989527,PLT_learning_01,A,2014_Mrz_03_1535,P17,
stim_fb/ques.jpg,stim_fb/negf.jpg,stim_fb/posf.jpg,stim_01/c.jpg,stim_01/d.jpg,2,2,j,5,15,315,33,j,1,0.716529683235,01,02,60.0206989527,PLT_learning_01,A,2014_Mrz_03_1535,P17,
stim_fb/ques.jpg,stim_fb/negf.jpg,stim_fb/posf.jpg,stim_01/e.jpg,stim_01/f.jpg,2,3,j,5,16,316,51,j,1,0.749820368268,01,02,60.0206989527,PLT_learning_01,A,2014_Mrz_03_1535,P17,
stim_fb/ques.jpg,stim_fb/negf.jpg,stim_fb/posf.jpg,stim_01/f.jpg,stim_01/e.jpg,1,3,f,5,17,317,45,f,1,0.683278498658,01,02,60.0206989527,PLT_learning_01,A,2014_Mrz_03_1535,P17,
stim_fb/ques.jpg,stim_fb/posf.jpg,stim_fb/negf.jpg,stim_01/a.jpg,stim_01/b.jpg,2,1,j,5,18,318,18,j,1,0.78309011812,01,02,60.0206989527,PLT_learning_01,A,2014_Mrz_03_1535,P17,
stim_fb/ques.jpg,stim_fb/negf.jpg,stim_fb/posf.jpg,stim_01/d.jpg,stim_01/c.jpg,1,2,f,5,19,319,24,f,1,0.866424956203,01,02,60.0206989527,PLT_learning_01,A,2014_Mrz_03_1535,P17,
stim_fb/ques.jpg,stim_fb/negf.jpg,stim_fb/posf.jpg,stim_01/f.jpg,stim_01/e.jpg,1,3,f,5,20,320,44,f,1,0.633186941452,01,02,60.0206989527,PLT_learning_01,A,2014_Mrz_03_1535,P17,
stim_fb/ques.jpg,stim_fb/posf.jpg,stim_fb/negf.jpg,stim_01/d.jpg,stim_01/c.jpg,1,2,f,5,21,321,27,j,0,1.11634016887,01,02,60.0206989527,PLT_learning_01,A,2014_Mrz_03_1535,P17,
stim_fb/ques.jpg,stim_fb/negf.jpg,stim_fb/posf.jpg,stim_01/c.jpg,stim_01/d.jpg,2,2,j,5,22,322,36,j,1,1.1663734799,01,02,60.0206989527,PLT_learning_01,A,2014_Mrz_03_1535,P17,
stim_fb/ques.jpg,stim_fb/posf.jpg,stim_fb/negf.jpg,stim_01/b.jpg,stim_01/a.jpg,1,1,f,5,23,323,9,f,1,0.583193019601,01,02,60.0206989527,PLT_learning_01,A,2014_Mrz_03_1535,P17,
stim_fb/ques.jpg,stim_fb/posf.jpg,stim_fb/negf.jpg,stim_01/b.jpg,stim_01/a.jpg,1,1,f,5,24,324,8,j,0,0.73311310742,01,02,60.0206989527,PLT_learning_01,A,2014_Mrz_03_1535,P17,
stim_fb/ques.jpg,stim_fb/posf.jpg,stim_fb/negf.jpg,stim_01/d.jpg,stim_01/c.jpg,1,2,f,5,25,325,29,f,1,0.699835288457,01,02,60.0206989527,PLT_learning_01,A,2014_Mrz_03_1535,P17,
stim_fb/ques.jpg,stim_fb/negf.jpg,stim_fb/posf.jpg,stim_01/e.jpg,stim_01/f.jpg,2,3,j,5,26,326,50,j,1,0.766454571019,01,02,60.0206989527,PLT_learning_01,A,2014_Mrz_03_1535,P17,
stim_fb/ques.jpg,stim_fb/negf.jpg,stim_fb/posf.jpg,stim_01/c.jpg,stim_01/d.jpg,2,2,j,5,27,327,35,j,1,1.01638197908,01,02,60.0206989527,PLT_learning_01,A,2014_Mrz_03_1535,P17,
stim_fb/ques.jpg,stim_fb/posf.jpg,stim_fb/negf.jpg,stim_01/e.jpg,stim_01/f.jpg,2,3,j,5,28,328,57,f,0,0.799792422613,01,02,60.0206989527,PLT_learning_01,A,2014_Mrz_03_1535,P17,
stim_fb/ques.jpg,stim_fb/negf.jpg,stim_fb/posf.jpg,stim_01/a.jpg,stim_01/b.jpg,2,1,j,5,29,329,16,j,1,0.499855186051,01,02,60.0206989527,PLT_learning_01,A,2014_Mrz_03_1535,P17,
stim_fb/ques.jpg,stim_fb/negf.jpg,stim_fb/posf.jpg,stim_01/f.jpg,stim_01/e.jpg,1,3,f,5,30,330,42,f,1,0.59981242547,01,02,60.0206989527,PLT_learning_01,A,2014_Mrz_03_1535,P17,
stim_fb/ques.jpg,stim_fb/negf.jpg,stim_fb/posf.jpg,stim_01/b.jpg,stim_01/a.jpg,1,1,f,5,31,331,0,f,1,0.649850545485,01,02,60.0206989527,PLT_learning_01,A,2014_Mrz_03_1535,P17,
stim_fb/ques.jpg,stim_fb/posf.jpg,stim_fb/negf.jpg,stim_01/e.jpg,stim_01/f.jpg,2,3,j,5,32,332,56,j,1,0.649819005872,01,02,60.0206989527,PLT_learning_01,A,2014_Mrz_03_1535,P17,
stim_fb/ques.jpg,stim_fb/negf.jpg,stim_fb/posf.jpg,stim_01/f.jpg,stim_01/e.jpg,1,3,f,5,33,333,40,f,1,0.683153025917,01,02,60.0206989527,PLT_learning_01,A,2014_Mrz_03_1535,P17,
stim_fb/ques.jpg,stim_fb/negf.jpg,stim_fb/posf.jpg,stim_01/a.jpg,stim_01/b.jpg,2,1,j,5,34,334,11,j,1,0.549860635634,01,02,60.0206989527,PLT_learning_01,A,2014_Mrz_03_1535,P17,
stim_fb/ques.jpg,stim_fb/posf.jpg,stim_fb/negf.jpg,stim_01/f.jpg,stim_01/e.jpg,1,3,f,5,35,335,49,f,1,0.566527749415,01,02,60.0206989527,PLT_learning_01,A,2014_Mrz_03_1535,P17,
stim_fb/ques.jpg,stim_fb/negf.jpg,stim_fb/posf.jpg,stim_01/d.jpg,stim_01/c.jpg,1,2,f,5,36,336,26,j,0,1.04969653461,01,02,60.0206989527,PLT_learning_01,A,2014_Mrz_03_1535,P17,
stim_fb/ques.jpg,stim_fb/negf.jpg,stim_fb/posf.jpg,stim_01/b.jpg,stim_01/a.jpg,1,1,f,5,37,337,2,f,1,0.949784976053,01,02,60.0206989527,PLT_learning_01,A,2014_Mrz_03_1535,P17,
stim_fb/ques.jpg,stim_fb/posf.jpg,stim_fb/negf.jpg,stim_01/c.jpg,stim_01/d.jpg,2,2,j,5,38,338,37,j,1,1.03304708987,01,02,60.0206989527,PLT_learning_01,A,2014_Mrz_03_1535,P17,
stim_fb/ques.jpg,stim_fb/posf.jpg,stim_fb/negf.jpg,stim_01/e.jpg,stim_01/f.jpg,2,3,j,5,39,339,59,j,1,0.916427765205,01,02,60.0206989527,PLT_learning_01,A,2014_Mrz_03_1535,P17,
stim_fb/ques.jpg,stim_fb/negf.jpg,stim_fb/posf.jpg,stim_01/d.jpg,stim_01/c.jpg,1,2,f,5,40,340,21,f,1,0.833127654679,01,02,60.0206989527,PLT_learning_01,A,2014_Mrz_03_1535,P17,
stim_fb/ques.jpg,stim_fb/negf.jpg,stim_fb/posf.jpg,stim_01/c.jpg,stim_01/d.jpg,2,2,j,5,41,341,31,f,0,0.516551785325,01,02,60.0206989527,PLT_learning_01,A,2014_Mrz_03_1535,P17,
stim_fb/ques.jpg,stim_fb/negf.jpg,stim_fb/posf.jpg,stim_01/c.jpg,stim_01/d.jpg,2,2,j,5,42,342,34,j,1,0.583189200081,01,02,60.0206989527,PLT_learning_01,A,2014_Mrz_03_1535,P17,
stim_fb/ques.jpg,stim_fb/posf.jpg,stim_fb/negf.jpg,stim_01/f.jpg,stim_01/e.jpg,1,3,f,5,43,343,48,f,1,0.599790079774,01,02,60.0206989527,PLT_learning_01,A,2014_Mrz_03_1535,P17,
stim_fb/ques.jpg,stim_fb/negf.jpg,stim_fb/posf.jpg,stim_01/e.jpg,stim_01/f.jpg,2,3,j,5,44,344,53,f,0,0.733134517785,01,02,60.0206989527,PLT_learning_01,A,2014_Mrz_03_1535,P17,
stim_fb/ques.jpg,stim_fb/negf.jpg,stim_fb/posf.jpg,stim_01/d.jpg,stim_01/c.jpg,1,2,f,5,45,345,23,j,0,0.733149474064,01,02,60.0206989527,PLT_learning_01,A,2014_Mrz_03_1535,P17,
stim_fb/ques.jpg,stim_fb/negf.jpg,stim_fb/posf.jpg,stim_01/a.jpg,stim_01/b.jpg,2,1,j,5,46,346,13,j,1,0.766459043165,01,02,60.0206989527,PLT_learning_01,A,2014_Mrz_03_1535,P17,
stim_fb/ques.jpg,stim_fb/negf.jpg,stim_fb/posf.jpg,stim_01/c.jpg,stim_01/d.jpg,2,2,j,5,47,347,30,j,1,1.13302665995,01,02,60.0206989527,PLT_learning_01,A,2014_Mrz_03_1535,P17,
stim_fb/ques.jpg,stim_fb/negf.jpg,stim_fb/posf.jpg,stim_01/a.jpg,stim_01/b.jpg,2,1,j,5,48,348,14,j,1,0.699826380253,01,02,60.0206989527,PLT_learning_01,A,2014_Mrz_03_1535,P17,
stim_fb/ques.jpg,stim_fb/posf.jpg,stim_fb/negf.jpg,stim_01/a.jpg,stim_01/b.jpg,2,1,j,5,49,349,19,j,1,0.699814208916,01,02,60.0206989527,PLT_learning_01,A,2014_Mrz_03_1535,P17,
stim_fb/ques.jpg,stim_fb/posf.jpg,stim_fb/negf.jpg,stim_01/c.jpg,stim_01/d.jpg,2,2,j,5,50,350,38,f,0,1.03304233201,01,02,60.0206989527,PLT_learning_01,A,2014_Mrz_03_1535,P17,
stim_fb/ques.jpg,stim_fb/negf.jpg,stim_fb/posf.jpg,stim_01/d.jpg,stim_01/c.jpg,1,2,f,5,51,351,20,j,0,0.966412204419,01,02,60.0206989527,PLT_learning_01,A,2014_Mrz_03_1535,P17,
stim_fb/ques.jpg,stim_fb/negf.jpg,stim_fb/posf.jpg,stim_01/a.jpg,stim_01/b.jpg,2,1,j,5,52,352,17,j,1,0.816452832686,01,02,60.0206989527,PLT_learning_01,A,2014_Mrz_03_1535,P17,
stim_fb/ques.jpg,stim_fb/negf.jpg,stim_fb/posf.jpg,stim_01/d.jpg,stim_01/c.jpg,1,2,f,5,53,353,22,f,1,0.849762119082,01,02,60.0206989527,PLT_learning_01,A,2014_Mrz_03_1535,P17,
stim_fb/ques.jpg,stim_fb/negf.jpg,stim_fb/posf.jpg,stim_01/b.jpg,stim_01/a.jpg,1,1,f,5,54,354,5,f,1,0.58318200615,01,02,60.0206989527,PLT_learning_01,A,2014_Mrz_03_1535,P17,
stim_fb/ques.jpg,stim_fb/negf.jpg,stim_fb/posf.jpg,stim_01/e.jpg,stim_01/f.jpg,2,3,j,5,55,355,55,j,1,1.04968956925,01,02,60.0206989527,PLT_learning_01,A,2014_Mrz_03_1535,P17,
stim_fb/ques.jpg,stim_fb/posf.jpg,stim_fb/negf.jpg,stim_01/e.jpg,stim_01/f.jpg,2,3,j,5,56,356,58,j,1,0.683179888873,01,02,60.0206989527,PLT_learning_01,A,2014_Mrz_03_1535,P17,
stim_fb/ques.jpg,stim_fb/negf.jpg,stim_fb/posf.jpg,stim_01/b.jpg,stim_01/a.jpg,1,1,f,5,57,357,6,f,1,0.649820151728,01,02,60.0206989527,PLT_learning_01,A,2014_Mrz_03_1535,P17,
stim_fb/ques.jpg,stim_fb/negf.jpg,stim_fb/posf.jpg,stim_01/f.jpg,stim_01/e.jpg,1,3,f,5,58,358,41,f,1,0.716517508891,01,02,60.0206989527,PLT_learning_01,A,2014_Mrz_03_1535,P17,
stim_fb/ques.jpg,stim_fb/negf.jpg,stim_fb/posf.jpg,stim_01/f.jpg,stim_01/e.jpg,1,3,f,5,59,359,43,j,0,0.799829817821,01,02,60.0206989527,PLT_learning_01,A,2014_Mrz_03_1535,P17,
