Fb3,Fb2,Fb1,Symbol2,Symbol1,PosCond,Pair,Correct,trials.thisRepN,trials.thisTrialN,trials.thisN,trials.thisIndex,Response.keys,Response.corr,Response.rt,Version,Session Number,frameRate,expName,StimCondition,date,Participant,
stim_fb/ques.jpg,stim_fb/posf.jpg,stim_fb/negf.jpg,stim_03/b.jpg,stim_03/a.jpg,1,1,f,0,0,0,9,f,1,1.5829283028,03,03,60.023797767,PLT_learning_3,A,2014_Mrz_26_1451,P18,
stim_fb/ques.jpg,stim_fb/posf.jpg,stim_fb/negf.jpg,stim_03/e.jpg,stim_03/f.jpg,2,3,j,0,1,1,59,f,0,1.38287624905,03,03,60.023797767,PLT_learning_3,A,2014_Mrz_26_1451,P18,
stim_fb/ques.jpg,stim_fb/posf.jpg,stim_fb/negf.jpg,stim_03/e.jpg,stim_03/f.jpg,2,3,j,0,2,2,56,f,0,1.26629614213,03,03,60.023797767,PLT_learning_3,A,2014_Mrz_26_1451,P18,
stim_fb/ques.jpg,stim_fb/negf.jpg,stim_fb/posf.jpg,stim_03/a.jpg,stim_03/b.jpg,2,1,j,0,3,3,16,f,0,1.34955609055,03,03,60.023797767,PLT_learning_3,A,2014_Mrz_26_1451,P18,
stim_fb/ques.jpg,stim_fb/posf.jpg,stim_fb/negf.jpg,stim_03/a.jpg,stim_03/b.jpg,2,1,j,0,4,4,18,f,0,1.11630138119,03,03,60.023797767,PLT_learning_3,A,2014_Mrz_26_1451,P18,
stim_fb/ques.jpg,stim_fb/negf.jpg,stim_fb/posf.jpg,stim_03/a.jpg,stim_03/b.jpg,2,1,j,0,5,5,14,f,0,1.19965851384,03,03,60.023797767,PLT_learning_3,A,2014_Mrz_26_1451,P18,
stim_fb/ques.jpg,stim_fb/negf.jpg,stim_fb/posf.jpg,stim_03/f.jpg,stim_03/e.jpg,1,3,f,0,6,6,43,j,0,1.08299985413,03,03,60.023797767,PLT_learning_3,A,2014_Mrz_26_1451,P18,
stim_fb/ques.jpg,stim_fb/posf.jpg,stim_fb/negf.jpg,stim_03/c.jpg,stim_03/d.jpg,2,2,j,0,7,7,38,f,0,1.44954562146,03,03,60.023797767,PLT_learning_3,A,2014_Mrz_26_1451,P18,
stim_fb/ques.jpg,stim_fb/negf.jpg,stim_fb/posf.jpg,stim_03/c.jpg,stim_03/d.jpg,2,2,j,0,8,8,36,f,0,0.88309309855,03,03,60.023797767,PLT_learning_3,A,2014_Mrz_26_1451,P18,
stim_fb/ques.jpg,stim_fb/negf.jpg,stim_fb/posf.jpg,stim_03/b.jpg,stim_03/a.jpg,1,1,f,0,9,9,0,j,0,1.19965698604,03,03,60.023797767,PLT_learning_3,A,2014_Mrz_26_1451,P18,
stim_fb/ques.jpg,stim_fb/negf.jpg,stim_fb/posf.jpg,stim_03/e.jpg,stim_03/f.jpg,2,3,j,0,10,10,54,f,0,0.916381121948,03,03,60.023797767,PLT_learning_3,A,2014_Mrz_26_1451,P18,
stim_fb/ques.jpg,stim_fb/negf.jpg,stim_fb/posf.jpg,stim_03/f.jpg,stim_03/e.jpg,1,3,f,0,11,11,45,j,0,1.06637228292,03,03,60.023797767,PLT_learning_3,A,2014_Mrz_26_1451,P18,
stim_fb/ques.jpg,stim_fb/negf.jpg,stim_fb/posf.jpg,stim_03/b.jpg,stim_03/a.jpg,1,1,f,0,12,12,4,f,1,1.33297734904,03,03,60.023797767,PLT_learning_3,A,2014_Mrz_26_1451,P18,
stim_fb/ques.jpg,stim_fb/negf.jpg,stim_fb/posf.jpg,stim_03/a.jpg,stim_03/b.jpg,2,1,j,0,13,13,12,j,1,1.1496946429,03,03,60.023797767,PLT_learning_3,A,2014_Mrz_26_1451,P18,
stim_fb/ques.jpg,stim_fb/negf.jpg,stim_fb/posf.jpg,stim_03/a.jpg,stim_03/b.jpg,2,1,j,0,14,14,13,j,1,1.06635508004,03,03,60.023797767,PLT_learning_3,A,2014_Mrz_26_1451,P18,
stim_fb/ques.jpg,stim_fb/negf.jpg,stim_fb/posf.jpg,stim_03/d.jpg,stim_03/c.jpg,1,2,f,0,15,15,24,j,0,1.11632803062,03,03,60.023797767,PLT_learning_3,A,2014_Mrz_26_1451,P18,
stim_fb/ques.jpg,stim_fb/negf.jpg,stim_fb/posf.jpg,stim_03/d.jpg,stim_03/c.jpg,1,2,f,0,16,16,23,j,0,0.783123907338,03,03,60.023797767,PLT_learning_3,A,2014_Mrz_26_1451,P18,
stim_fb/ques.jpg,stim_fb/negf.jpg,stim_fb/posf.jpg,stim_03/e.jpg,stim_03/f.jpg,2,3,j,0,17,17,51,f,0,1.14972778551,03,03,60.023797767,PLT_learning_3,A,2014_Mrz_26_1451,P18,
stim_fb/ques.jpg,stim_fb/posf.jpg,stim_fb/negf.jpg,stim_03/e.jpg,stim_03/f.jpg,2,3,j,0,18,18,58,f,0,1.33295849505,03,03,60.023797767,PLT_learning_3,A,2014_Mrz_26_1451,P18,
stim_fb/ques.jpg,stim_fb/negf.jpg,stim_fb/posf.jpg,stim_03/c.jpg,stim_03/d.jpg,2,2,j,0,19,19,31,f,0,1.19967420094,03,03,60.023797767,PLT_learning_3,A,2014_Mrz_26_1451,P18,
stim_fb/ques.jpg,stim_fb/posf.jpg,stim_fb/negf.jpg,stim_03/e.jpg,stim_03/f.jpg,2,3,j,0,20,20,57,f,0,0.966409636017,03,03,60.023797767,PLT_learning_3,A,2014_Mrz_26_1451,P18,
stim_fb/ques.jpg,stim_fb/posf.jpg,stim_fb/negf.jpg,stim_03/a.jpg,stim_03/b.jpg,2,1,j,0,21,21,19,j,1,1.09967544304,03,03,60.023797767,PLT_learning_3,A,2014_Mrz_26_1451,P18,
stim_fb/ques.jpg,stim_fb/negf.jpg,stim_fb/posf.jpg,stim_03/a.jpg,stim_03/b.jpg,2,1,j,0,22,22,17,j,1,0.999717334453,03,03,60.023797767,PLT_learning_3,A,2014_Mrz_26_1451,P18,
stim_fb/ques.jpg,stim_fb/posf.jpg,stim_fb/negf.jpg,stim_03/f.jpg,stim_03/e.jpg,1,3,f,0,23,23,47,j,0,1.48285934692,03,03,60.023797767,PLT_learning_3,A,2014_Mrz_26_1451,P18,
stim_fb/ques.jpg,stim_fb/posf.jpg,stim_fb/negf.jpg,stim_03/d.jpg,stim_03/c.jpg,1,2,f,0,24,24,28,f,1,1.21630634657,03,03,60.023797767,PLT_learning_3,A,2014_Mrz_26_1451,P18,
stim_fb/ques.jpg,stim_fb/negf.jpg,stim_fb/posf.jpg,stim_03/e.jpg,stim_03/f.jpg,2,3,j,0,25,25,50,f,0,1.11633592529,03,03,60.023797767,PLT_learning_3,A,2014_Mrz_26_1451,P18,
stim_fb/ques.jpg,stim_fb/posf.jpg,stim_fb/negf.jpg,stim_03/f.jpg,stim_03/e.jpg,1,3,f,0,26,26,49,j,0,1.1496825678,03,03,60.023797767,PLT_learning_3,A,2014_Mrz_26_1451,P18,
stim_fb/ques.jpg,stim_fb/negf.jpg,stim_fb/posf.jpg,stim_03/d.jpg,stim_03/c.jpg,1,2,f,0,27,27,20,j,0,1.11634120345,03,03,60.023797767,PLT_learning_3,A,2014_Mrz_26_1451,P18,
stim_fb/ques.jpg,stim_fb/negf.jpg,stim_fb/posf.jpg,stim_03/c.jpg,stim_03/d.jpg,2,2,j,0,28,28,30,f,0,1.16633083661,03,03,60.023797767,PLT_learning_3,A,2014_Mrz_26_1451,P18,
stim_fb/ques.jpg,stim_fb/negf.jpg,stim_fb/posf.jpg,stim_03/f.jpg,stim_03/e.jpg,1,3,f,0,29,29,42,j,0,1.04969591807,03,03,60.023797767,PLT_learning_3,A,2014_Mrz_26_1451,P18,
stim_fb/ques.jpg,stim_fb/posf.jpg,stim_fb/negf.jpg,stim_03/f.jpg,stim_03/e.jpg,1,3,f,0,30,30,48,j,0,1.21629700829,03,03,60.023797767,PLT_learning_3,A,2014_Mrz_26_1451,P18,
stim_fb/ques.jpg,stim_fb/negf.jpg,stim_fb/posf.jpg,stim_03/a.jpg,stim_03/b.jpg,2,1,j,0,31,31,15,j,1,1.31629071661,03,03,60.023797767,PLT_learning_3,A,2014_Mrz_26_1451,P18,
stim_fb/ques.jpg,stim_fb/negf.jpg,stim_fb/posf.jpg,stim_03/c.jpg,stim_03/d.jpg,2,2,j,0,32,32,35,j,1,0.883132568928,03,03,60.023797767,PLT_learning_3,A,2014_Mrz_26_1451,P18,
stim_fb/ques.jpg,stim_fb/negf.jpg,stim_fb/posf.jpg,stim_03/e.jpg,stim_03/f.jpg,2,3,j,0,33,33,55,f,0,1.09968914519,03,03,60.023797767,PLT_learning_3,A,2014_Mrz_26_1451,P18,
stim_fb/ques.jpg,stim_fb/negf.jpg,stim_fb/posf.jpg,stim_03/b.jpg,stim_03/a.jpg,1,1,f,0,34,34,6,f,1,1.14970576462,03,03,60.023797767,PLT_learning_3,A,2014_Mrz_26_1451,P18,
stim_fb/ques.jpg,stim_fb/negf.jpg,stim_fb/posf.jpg,stim_03/b.jpg,stim_03/a.jpg,1,1,f,0,35,35,5,f,1,1.14972628176,03,03,60.023797767,PLT_learning_3,A,2014_Mrz_26_1451,P18,
stim_fb/ques.jpg,stim_fb/posf.jpg,stim_fb/negf.jpg,stim_03/d.jpg,stim_03/c.jpg,1,2,f,0,36,36,27,f,1,1.11634875828,03,03,60.023797767,PLT_learning_3,A,2014_Mrz_26_1451,P18,
stim_fb/ques.jpg,stim_fb/negf.jpg,stim_fb/posf.jpg,stim_03/b.jpg,stim_03/a.jpg,1,1,f,0,37,37,7,f,1,1.01642670356,03,03,60.023797767,PLT_learning_3,A,2014_Mrz_26_1451,P18,
stim_fb/ques.jpg,stim_fb/posf.jpg,stim_fb/negf.jpg,stim_03/f.jpg,stim_03/e.jpg,1,3,f,0,38,38,46,f,1,1.09970044436,03,03,60.023797767,PLT_learning_3,A,2014_Mrz_26_1451,P18,
stim_fb/ques.jpg,stim_fb/posf.jpg,stim_fb/negf.jpg,stim_03/c.jpg,stim_03/d.jpg,2,2,j,0,39,39,39,j,1,0.816467091227,03,03,60.023797767,PLT_learning_3,A,2014_Mrz_26_1451,P18,
stim_fb/ques.jpg,stim_fb/negf.jpg,stim_fb/posf.jpg,stim_03/d.jpg,stim_03/c.jpg,1,2,f,0,40,40,21,f,1,0.883092316599,03,03,60.023797767,PLT_learning_3,A,2014_Mrz_26_1451,P18,
stim_fb/ques.jpg,stim_fb/negf.jpg,stim_fb/posf.jpg,stim_03/a.jpg,stim_03/b.jpg,2,1,j,0,41,41,11,j,1,0.899744486131,03,03,60.023797767,PLT_learning_3,A,2014_Mrz_26_1451,P18,
stim_fb/ques.jpg,stim_fb/negf.jpg,stim_fb/posf.jpg,stim_03/e.jpg,stim_03/f.jpg,2,3,j,0,42,42,53,j,1,1.0163715551,03,03,60.023797767,PLT_learning_3,A,2014_Mrz_26_1451,P18,
stim_fb/ques.jpg,stim_fb/posf.jpg,stim_fb/negf.jpg,stim_03/b.jpg,stim_03/a.jpg,1,1,f,0,43,43,8,f,1,1.01636041233,03,03,60.023797767,PLT_learning_3,A,2014_Mrz_26_1451,P18,
stim_fb/ques.jpg,stim_fb/negf.jpg,stim_fb/posf.jpg,stim_03/c.jpg,stim_03/d.jpg,2,2,j,0,44,44,33,j,1,0.983049444741,03,03,60.023797767,PLT_learning_3,A,2014_Mrz_26_1451,P18,
stim_fb/ques.jpg,stim_fb/negf.jpg,stim_fb/posf.jpg,stim_03/c.jpg,stim_03/d.jpg,2,2,j,0,45,45,32,j,1,1.21633345012,03,03,60.023797767,PLT_learning_3,A,2014_Mrz_26_1451,P18,
stim_fb/ques.jpg,stim_fb/negf.jpg,stim_fb/posf.jpg,stim_03/d.jpg,stim_03/c.jpg,1,2,f,0,46,46,26,f,1,1.08300232028,03,03,60.023797767,PLT_learning_3,A,2014_Mrz_26_1451,P18,
stim_fb/ques.jpg,stim_fb/negf.jpg,stim_fb/posf.jpg,stim_03/d.jpg,stim_03/c.jpg,1,2,f,0,47,47,25,f,1,1.03296937015,03,03,60.023797767,PLT_learning_3,A,2014_Mrz_26_1451,P18,
stim_fb/ques.jpg,stim_fb/negf.jpg,stim_fb/posf.jpg,stim_03/f.jpg,stim_03/e.jpg,1,3,f,0,48,48,40,f,1,1.06635730859,03,03,60.023797767,PLT_learning_3,A,2014_Mrz_26_1451,P18,
stim_fb/ques.jpg,stim_fb/negf.jpg,stim_fb/posf.jpg,stim_03/f.jpg,stim_03/e.jpg,1,3,f,0,49,49,44,f,1,1.19964874249,03,03,60.023797767,PLT_learning_3,A,2014_Mrz_26_1451,P18,
stim_fb/ques.jpg,stim_fb/negf.jpg,stim_fb/posf.jpg,stim_03/c.jpg,stim_03/d.jpg,2,2,j,0,50,50,34,j,1,0.833116190104,03,03,60.023797767,PLT_learning_3,A,2014_Mrz_26_1451,P18,
stim_fb/ques.jpg,stim_fb/negf.jpg,stim_fb/posf.jpg,stim_03/b.jpg,stim_03/a.jpg,1,1,f,0,51,51,3,f,1,0.933078836999,03,03,60.023797767,PLT_learning_3,A,2014_Mrz_26_1451,P18,
stim_fb/ques.jpg,stim_fb/negf.jpg,stim_fb/posf.jpg,stim_03/f.jpg,stim_03/e.jpg,1,3,f,0,52,52,41,f,1,0.933066879199,03,03,60.023797767,PLT_learning_3,A,2014_Mrz_26_1451,P18,
stim_fb/ques.jpg,stim_fb/posf.jpg,stim_fb/negf.jpg,stim_03/d.jpg,stim_03/c.jpg,1,2,f,0,53,53,29,f,1,0.982978657303,03,03,60.023797767,PLT_learning_3,A,2014_Mrz_26_1451,P18,
stim_fb/ques.jpg,stim_fb/posf.jpg,stim_fb/negf.jpg,stim_03/c.jpg,stim_03/d.jpg,2,2,j,0,54,54,37,j,1,0.7331114142,03,03,60.023797767,PLT_learning_3,A,2014_Mrz_26_1451,P18,
stim_fb/ques.jpg,stim_fb/negf.jpg,stim_fb/posf.jpg,stim_03/b.jpg,stim_03/a.jpg,1,1,f,0,55,55,2,f,1,0.766441524498,03,03,60.023797767,PLT_learning_3,A,2014_Mrz_26_1451,P18,
stim_fb/ques.jpg,stim_fb/negf.jpg,stim_fb/posf.jpg,stim_03/b.jpg,stim_03/a.jpg,1,1,f,0,56,56,1,f,1,0.633165404772,03,03,60.023797767,PLT_learning_3,A,2014_Mrz_26_1451,P18,
stim_fb/ques.jpg,stim_fb/negf.jpg,stim_fb/posf.jpg,stim_03/d.jpg,stim_03/c.jpg,1,2,f,0,57,57,22,f,1,0.649849922935,03,03,60.023797767,PLT_learning_3,A,2014_Mrz_26_1451,P18,
stim_fb/ques.jpg,stim_fb/negf.jpg,stim_fb/posf.jpg,stim_03/e.jpg,stim_03/f.jpg,2,3,j,0,58,58,52,j,1,0.849781048262,03,03,60.023797767,PLT_learning_3,A,2014_Mrz_26_1451,P18,
stim_fb/ques.jpg,stim_fb/negf.jpg,stim_fb/posf.jpg,stim_03/a.jpg,stim_03/b.jpg,2,1,j,0,59,59,10,j,1,0.816456949949,03,03,60.023797767,PLT_learning_3,A,2014_Mrz_26_1451,P18,
stim_fb/ques.jpg,stim_fb/negf.jpg,stim_fb/posf.jpg,stim_03/a.jpg,stim_03/b.jpg,2,1,j,1,0,60,13,j,1,0.74977421523,03,03,60.023797767,PLT_learning_3,A,2014_Mrz_26_1451,P18,
stim_fb/ques.jpg,stim_fb/negf.jpg,stim_fb/posf.jpg,stim_03/d.jpg,stim_03/c.jpg,1,2,f,1,1,61,21,f,1,0.733113630726,03,03,60.023797767,PLT_learning_3,A,2014_Mrz_26_1451,P18,
stim_fb/ques.jpg,stim_fb/negf.jpg,stim_fb/posf.jpg,stim_03/c.jpg,stim_03/d.jpg,2,2,j,1,2,62,30,j,1,0.899750922174,03,03,60.023797767,PLT_learning_3,A,2014_Mrz_26_1451,P18,
stim_fb/ques.jpg,stim_fb/posf.jpg,stim_fb/negf.jpg,stim_03/f.jpg,stim_03/e.jpg,1,3,f,1,3,63,49,f,1,0.866476270101,03,03,60.023797767,PLT_learning_3,A,2014_Mrz_26_1451,P18,
stim_fb/ques.jpg,stim_fb/posf.jpg,stim_fb/negf.jpg,stim_03/f.jpg,stim_03/e.jpg,1,3,f,1,4,64,46,f,1,0.849783027195,03,03,60.023797767,PLT_learning_3,A,2014_Mrz_26_1451,P18,
stim_fb/ques.jpg,stim_fb/posf.jpg,stim_fb/negf.jpg,stim_03/d.jpg,stim_03/c.jpg,1,2,f,1,5,65,27,f,1,0.916413828469,03,03,60.023797767,PLT_learning_3,A,2014_Mrz_26_1451,P18,
stim_fb/ques.jpg,stim_fb/negf.jpg,stim_fb/posf.jpg,stim_03/f.jpg,stim_03/e.jpg,1,3,f,1,6,66,45,f,1,0.816446850778,03,03,60.023797767,PLT_learning_3,A,2014_Mrz_26_1451,P18,
stim_fb/ques.jpg,stim_fb/negf.jpg,stim_fb/posf.jpg,stim_03/a.jpg,stim_03/b.jpg,2,1,j,1,7,67,15,j,1,0.816437145586,03,03,60.023797767,PLT_learning_3,A,2014_Mrz_26_1451,P18,
stim_fb/ques.jpg,stim_fb/negf.jpg,stim_fb/posf.jpg,stim_03/c.jpg,stim_03/d.jpg,2,2,j,1,8,68,36,j,1,0.716514032225,03,03,60.023797767,PLT_learning_3,A,2014_Mrz_26_1451,P18,
stim_fb/ques.jpg,stim_fb/negf.jpg,stim_fb/posf.jpg,stim_03/f.jpg,stim_03/e.jpg,1,3,f,1,9,69,41,f,1,0.983271758858,03,03,60.023797767,PLT_learning_3,A,2014_Mrz_26_1451,P18,
stim_fb/ques.jpg,stim_fb/negf.jpg,stim_fb/posf.jpg,stim_03/c.jpg,stim_03/d.jpg,2,2,j,1,10,70,31,j,1,0.999738137307,03,03,60.023797767,PLT_learning_3,A,2014_Mrz_26_1451,P18,
stim_fb/ques.jpg,stim_fb/negf.jpg,stim_fb/posf.jpg,stim_03/b.jpg,stim_03/a.jpg,1,1,f,1,11,71,4,f,1,0.966456426642,03,03,60.023797767,PLT_learning_3,A,2014_Mrz_26_1451,P18,
stim_fb/ques.jpg,stim_fb/posf.jpg,stim_fb/negf.jpg,stim_03/c.jpg,stim_03/d.jpg,2,2,j,1,12,72,38,j,1,0.649800389474,03,03,60.023797767,PLT_learning_3,A,2014_Mrz_26_1451,P18,
stim_fb/ques.jpg,stim_fb/negf.jpg,stim_fb/posf.jpg,stim_03/b.jpg,stim_03/a.jpg,1,1,f,1,13,73,3,j,0,0.699714922444,03,03,60.023797767,PLT_learning_3,A,2014_Mrz_26_1451,P18,
stim_fb/ques.jpg,stim_fb/posf.jpg,stim_fb/negf.jpg,stim_03/d.jpg,stim_03/c.jpg,1,2,f,1,14,74,28,f,1,0.833091576755,03,03,60.023797767,PLT_learning_3,A,2014_Mrz_26_1451,P18,
stim_fb/ques.jpg,stim_fb/negf.jpg,stim_fb/posf.jpg,stim_03/e.jpg,stim_03/f.jpg,2,3,j,1,15,75,51,j,1,0.833128830611,03,03,60.023797767,PLT_learning_3,A,2014_Mrz_26_1451,P18,
stim_fb/ques.jpg,stim_fb/posf.jpg,stim_fb/negf.jpg,stim_03/c.jpg,stim_03/d.jpg,2,2,j,1,16,76,39,j,1,0.849736326796,03,03,60.023797767,PLT_learning_3,A,2014_Mrz_26_1451,P18,
stim_fb/ques.jpg,stim_fb/negf.jpg,stim_fb/posf.jpg,stim_03/e.jpg,stim_03/f.jpg,2,3,j,1,17,77,52,j,1,0.749778389636,03,03,60.023797767,PLT_learning_3,A,2014_Mrz_26_1451,P18,
stim_fb/ques.jpg,stim_fb/negf.jpg,stim_fb/posf.jpg,stim_03/b.jpg,stim_03/a.jpg,1,1,f,1,18,78,5,f,1,0.866442053823,03,03,60.023797767,PLT_learning_3,A,2014_Mrz_26_1451,P18,
stim_fb/ques.jpg,stim_fb/posf.jpg,stim_fb/negf.jpg,stim_03/e.jpg,stim_03/f.jpg,2,3,j,1,19,79,56,j,1,0.733151299613,03,03,60.023797767,PLT_learning_3,A,2014_Mrz_26_1451,P18,
stim_fb/ques.jpg,stim_fb/negf.jpg,stim_fb/posf.jpg,stim_03/a.jpg,stim_03/b.jpg,2,1,j,1,20,80,16,j,1,0.749770425788,03,03,60.023797767,PLT_learning_3,A,2014_Mrz_26_1451,P18,
stim_fb/ques.jpg,stim_fb/posf.jpg,stim_fb/negf.jpg,stim_03/e.jpg,stim_03/f.jpg,2,3,j,1,21,81,58,j,1,1.13300455485,03,03,60.023797767,PLT_learning_3,A,2014_Mrz_26_1451,P18,
stim_fb/ques.jpg,stim_fb/negf.jpg,stim_fb/posf.jpg,stim_03/a.jpg,stim_03/b.jpg,2,1,j,1,22,82,12,j,1,0.84978338208,03,03,60.023797767,PLT_learning_3,A,2014_Mrz_26_1451,P18,
stim_fb/ques.jpg,stim_fb/negf.jpg,stim_fb/posf.jpg,stim_03/d.jpg,stim_03/c.jpg,1,2,f,1,23,83,20,f,1,0.899771394201,03,03,60.023797767,PLT_learning_3,A,2014_Mrz_26_1451,P18,
stim_fb/ques.jpg,stim_fb/posf.jpg,stim_fb/negf.jpg,stim_03/b.jpg,stim_03/a.jpg,1,1,f,1,24,84,9,f,1,0.849756380776,03,03,60.023797767,PLT_learning_3,A,2014_Mrz_26_1451,P18,
stim_fb/ques.jpg,stim_fb/negf.jpg,stim_fb/posf.jpg,stim_03/a.jpg,stim_03/b.jpg,2,1,j,1,25,85,10,j,1,0.883140409471,03,03,60.023797767,PLT_learning_3,A,2014_Mrz_26_1451,P18,
stim_fb/ques.jpg,stim_fb/negf.jpg,stim_fb/posf.jpg,stim_03/d.jpg,stim_03/c.jpg,1,2,f,1,26,86,25,f,1,0.716486868521,03,03,60.023797767,PLT_learning_3,A,2014_Mrz_26_1451,P18,
stim_fb/ques.jpg,stim_fb/posf.jpg,stim_fb/negf.jpg,stim_03/e.jpg,stim_03/f.jpg,2,3,j,1,27,87,57,j,1,0.883098863917,03,03,60.023797767,PLT_learning_3,A,2014_Mrz_26_1451,P18,
stim_fb/ques.jpg,stim_fb/negf.jpg,stim_fb/posf.jpg,stim_03/a.jpg,stim_03/b.jpg,2,1,j,1,28,88,17,j,1,0.899744095157,03,03,60.023797767,PLT_learning_3,A,2014_Mrz_26_1451,P18,
stim_fb/ques.jpg,stim_fb/negf.jpg,stim_fb/posf.jpg,stim_03/b.jpg,stim_03/a.jpg,1,1,f,1,29,89,0,f,1,0.933071838557,03,03,60.023797767,PLT_learning_3,A,2014_Mrz_26_1451,P18,
stim_fb/ques.jpg,stim_fb/posf.jpg,stim_fb/negf.jpg,stim_03/e.jpg,stim_03/f.jpg,2,3,j,1,30,90,59,j,1,0.666496363185,03,03,60.023797767,PLT_learning_3,A,2014_Mrz_26_1451,P18,
stim_fb/ques.jpg,stim_fb/negf.jpg,stim_fb/posf.jpg,stim_03/f.jpg,stim_03/e.jpg,1,3,f,1,31,91,43,f,1,0.816489280533,03,03,60.023797767,PLT_learning_3,A,2014_Mrz_26_1451,P18,
stim_fb/ques.jpg,stim_fb/posf.jpg,stim_fb/negf.jpg,stim_03/c.jpg,stim_03/d.jpg,2,2,j,1,32,92,37,j,1,0.699790091803,03,03,60.023797767,PLT_learning_3,A,2014_Mrz_26_1451,P18,
stim_fb/ques.jpg,stim_fb/posf.jpg,stim_fb/negf.jpg,stim_03/a.jpg,stim_03/b.jpg,2,1,j,1,33,93,19,j,1,0.849799920303,03,03,60.023797767,PLT_learning_3,A,2014_Mrz_26_1451,P18,
stim_fb/ques.jpg,stim_fb/negf.jpg,stim_fb/posf.jpg,stim_03/c.jpg,stim_03/d.jpg,2,2,j,1,34,94,35,j,1,0.749761334126,03,03,60.023797767,PLT_learning_3,A,2014_Mrz_26_1451,P18,
stim_fb/ques.jpg,stim_fb/negf.jpg,stim_fb/posf.jpg,stim_03/f.jpg,stim_03/e.jpg,1,3,f,1,35,95,40,f,1,0.866428420839,03,03,60.023797767,PLT_learning_3,A,2014_Mrz_26_1451,P18,
stim_fb/ques.jpg,stim_fb/posf.jpg,stim_fb/negf.jpg,stim_03/a.jpg,stim_03/b.jpg,2,1,j,1,36,96,18,j,1,0.716492700056,03,03,60.023797767,PLT_learning_3,A,2014_Mrz_26_1451,P18,
stim_fb/ques.jpg,stim_fb/negf.jpg,stim_fb/posf.jpg,stim_03/c.jpg,stim_03/d.jpg,2,2,j,1,37,97,33,j,1,0.683147113181,03,03,60.023797767,PLT_learning_3,A,2014_Mrz_26_1451,P18,
stim_fb/ques.jpg,stim_fb/posf.jpg,stim_fb/negf.jpg,stim_03/d.jpg,stim_03/c.jpg,1,2,f,1,38,98,29,f,1,0.983014341247,03,03,60.023797767,PLT_learning_3,A,2014_Mrz_26_1451,P18,
stim_fb/ques.jpg,stim_fb/posf.jpg,stim_fb/negf.jpg,stim_03/b.jpg,stim_03/a.jpg,1,1,f,1,39,99,8,f,1,0.949736504237,03,03,60.023797767,PLT_learning_3,A,2014_Mrz_26_1451,P18,
stim_fb/ques.jpg,stim_fb/posf.jpg,stim_fb/negf.jpg,stim_03/f.jpg,stim_03/e.jpg,1,3,f,1,40,100,47,f,1,0.783121257737,03,03,60.023797767,PLT_learning_3,A,2014_Mrz_26_1451,P18,
stim_fb/ques.jpg,stim_fb/negf.jpg,stim_fb/posf.jpg,stim_03/f.jpg,stim_03/e.jpg,1,3,f,1,41,101,44,f,1,0.799769325044,03,03,60.023797767,PLT_learning_3,A,2014_Mrz_26_1451,P18,
stim_fb/ques.jpg,stim_fb/negf.jpg,stim_fb/posf.jpg,stim_03/e.jpg,stim_03/f.jpg,2,3,j,1,42,102,50,j,1,0.749820942699,03,03,60.023797767,PLT_learning_3,A,2014_Mrz_26_1451,P18,
stim_fb/ques.jpg,stim_fb/negf.jpg,stim_fb/posf.jpg,stim_03/b.jpg,stim_03/a.jpg,1,1,f,1,43,103,2,f,1,0.833102081939,03,03,60.023797767,PLT_learning_3,A,2014_Mrz_26_1451,P18,
stim_fb/ques.jpg,stim_fb/negf.jpg,stim_fb/posf.jpg,stim_03/e.jpg,stim_03/f.jpg,2,3,j,1,44,104,55,j,1,0.849759550681,03,03,60.023797767,PLT_learning_3,A,2014_Mrz_26_1451,P18,
stim_fb/ques.jpg,stim_fb/negf.jpg,stim_fb/posf.jpg,stim_03/c.jpg,stim_03/d.jpg,2,2,j,1,45,105,32,j,1,0.733145365826,03,03,60.023797767,PLT_learning_3,A,2014_Mrz_26_1451,P18,
stim_fb/ques.jpg,stim_fb/negf.jpg,stim_fb/posf.jpg,stim_03/a.jpg,stim_03/b.jpg,2,1,j,1,46,106,11,j,1,0.783106087922,03,03,60.023797767,PLT_learning_3,A,2014_Mrz_26_1451,P18,
stim_fb/ques.jpg,stim_fb/negf.jpg,stim_fb/posf.jpg,stim_03/b.jpg,stim_03/a.jpg,1,1,f,1,47,107,7,f,1,0.916454571019,03,03,60.023797767,PLT_learning_3,A,2014_Mrz_26_1451,P18,
stim_fb/ques.jpg,stim_fb/negf.jpg,stim_fb/posf.jpg,stim_03/e.jpg,stim_03/f.jpg,2,3,j,1,48,108,53,j,1,0.916418288583,03,03,60.023797767,PLT_learning_3,A,2014_Mrz_26_1451,P18,
stim_fb/ques.jpg,stim_fb/negf.jpg,stim_fb/posf.jpg,stim_03/d.jpg,stim_03/c.jpg,1,2,f,1,49,109,26,f,1,0.733148250016,03,03,60.023797767,PLT_learning_3,A,2014_Mrz_26_1451,P18,
stim_fb/ques.jpg,stim_fb/negf.jpg,stim_fb/posf.jpg,stim_03/d.jpg,stim_03/c.jpg,1,2,f,1,50,110,23,f,1,0.766461825096,03,03,60.023797767,PLT_learning_3,A,2014_Mrz_26_1451,P18,
stim_fb/ques.jpg,stim_fb/negf.jpg,stim_fb/posf.jpg,stim_03/d.jpg,stim_03/c.jpg,1,2,f,1,51,111,22,f,1,0.733148499636,03,03,60.023797767,PLT_learning_3,A,2014_Mrz_26_1451,P18,
stim_fb/ques.jpg,stim_fb/negf.jpg,stim_fb/posf.jpg,stim_03/e.jpg,stim_03/f.jpg,2,3,j,1,52,112,54,j,1,0.683153898091,03,03,60.023797767,PLT_learning_3,A,2014_Mrz_26_1451,P18,
stim_fb/ques.jpg,stim_fb/negf.jpg,stim_fb/posf.jpg,stim_03/f.jpg,stim_03/e.jpg,1,3,f,1,53,113,42,f,1,0.566533415538,03,03,60.023797767,PLT_learning_3,A,2014_Mrz_26_1451,P18,
stim_fb/ques.jpg,stim_fb/negf.jpg,stim_fb/posf.jpg,stim_03/b.jpg,stim_03/a.jpg,1,1,f,1,54,114,1,f,1,0.883076271606,03,03,60.023797767,PLT_learning_3,A,2014_Mrz_26_1451,P18,
stim_fb/ques.jpg,stim_fb/posf.jpg,stim_fb/negf.jpg,stim_03/f.jpg,stim_03/e.jpg,1,3,f,1,55,115,48,f,1,0.733151263525,03,03,60.023797767,PLT_learning_3,A,2014_Mrz_26_1451,P18,
stim_fb/ques.jpg,stim_fb/negf.jpg,stim_fb/posf.jpg,stim_03/c.jpg,stim_03/d.jpg,2,2,j,1,56,116,34,j,1,0.583178072346,03,03,60.023797767,PLT_learning_3,A,2014_Mrz_26_1451,P18,
stim_fb/ques.jpg,stim_fb/negf.jpg,stim_fb/posf.jpg,stim_03/d.jpg,stim_03/c.jpg,1,2,f,1,57,117,24,f,1,0.666495800782,03,03,60.023797767,PLT_learning_3,A,2014_Mrz_26_1451,P18,
stim_fb/ques.jpg,stim_fb/negf.jpg,stim_fb/posf.jpg,stim_03/a.jpg,stim_03/b.jpg,2,1,j,1,58,118,14,j,1,0.733133964408,03,03,60.023797767,PLT_learning_3,A,2014_Mrz_26_1451,P18,
stim_fb/ques.jpg,stim_fb/negf.jpg,stim_fb/posf.jpg,stim_03/b.jpg,stim_03/a.jpg,1,1,f,1,59,119,6,f,1,0.683128788503,03,03,60.023797767,PLT_learning_3,A,2014_Mrz_26_1451,P18,
stim_fb/ques.jpg,stim_fb/negf.jpg,stim_fb/posf.jpg,stim_03/a.jpg,stim_03/b.jpg,2,1,j,2,0,120,11,j,1,0.933047841747,03,03,60.023797767,PLT_learning_3,A,2014_Mrz_26_1451,P18,
stim_fb/ques.jpg,stim_fb/negf.jpg,stim_fb/posf.jpg,stim_03/b.jpg,stim_03/a.jpg,1,1,f,2,1,121,0,f,1,0.999708862339,03,03,60.023797767,PLT_learning_3,A,2014_Mrz_26_1451,P18,
stim_fb/ques.jpg,stim_fb/negf.jpg,stim_fb/posf.jpg,stim_03/e.jpg,stim_03/f.jpg,2,3,j,2,2,122,50,j,1,0.933068175425,03,03,60.023797767,PLT_learning_3,A,2014_Mrz_26_1451,P18,
stim_fb/ques.jpg,stim_fb/posf.jpg,stim_fb/negf.jpg,stim_03/e.jpg,stim_03/f.jpg,2,3,j,2,3,123,57,j,1,0.849802019533,03,03,60.023797767,PLT_learning_3,A,2014_Mrz_26_1451,P18,
stim_fb/ques.jpg,stim_fb/negf.jpg,stim_fb/posf.jpg,stim_03/e.jpg,stim_03/f.jpg,2,3,j,2,4,124,55,j,1,0.749792052691,03,03,60.023797767,PLT_learning_3,A,2014_Mrz_26_1451,P18,
stim_fb/ques.jpg,stim_fb/posf.jpg,stim_fb/negf.jpg,stim_03/a.jpg,stim_03/b.jpg,2,1,j,2,5,125,19,j,1,1.03302138781,03,03,60.023797767,PLT_learning_3,A,2014_Mrz_26_1451,P18,
stim_fb/ques.jpg,stim_fb/negf.jpg,stim_fb/posf.jpg,stim_03/b.jpg,stim_03/a.jpg,1,1,f,2,6,126,3,f,1,0.916413690124,03,03,60.023797767,PLT_learning_3,A,2014_Mrz_26_1451,P18,
stim_fb/ques.jpg,stim_fb/negf.jpg,stim_fb/posf.jpg,stim_03/e.jpg,stim_03/f.jpg,2,3,j,2,7,127,52,j,1,0.766457028141,03,03,60.023797767,PLT_learning_3,A,2014_Mrz_26_1451,P18,
stim_fb/ques.jpg,stim_fb/posf.jpg,stim_fb/negf.jpg,stim_03/f.jpg,stim_03/e.jpg,1,3,f,2,8,128,49,f,1,0.88309662935,03,03,60.023797767,PLT_learning_3,A,2014_Mrz_26_1451,P18,
stim_fb/ques.jpg,stim_fb/posf.jpg,stim_fb/negf.jpg,stim_03/c.jpg,stim_03/d.jpg,2,2,j,2,9,129,37,j,1,0.69981284652,03,03,60.023797767,PLT_learning_3,A,2014_Mrz_26_1451,P18,
stim_fb/ques.jpg,stim_fb/negf.jpg,stim_fb/posf.jpg,stim_03/d.jpg,stim_03/c.jpg,1,2,f,2,10,130,23,f,1,0.666667447615,03,03,60.023797767,PLT_learning_3,A,2014_Mrz_26_1451,P18,
stim_fb/ques.jpg,stim_fb/posf.jpg,stim_fb/negf.jpg,stim_03/e.jpg,stim_03/f.jpg,2,3,j,2,11,131,59,j,1,0.666506044316,03,03,60.023797767,PLT_learning_3,A,2014_Mrz_26_1451,P18,
stim_fb/ques.jpg,stim_fb/negf.jpg,stim_fb/posf.jpg,stim_03/b.jpg,stim_03/a.jpg,1,1,f,2,12,132,7,f,1,0.766453013133,03,03,60.023797767,PLT_learning_3,A,2014_Mrz_26_1451,P18,
stim_fb/ques.jpg,stim_fb/negf.jpg,stim_fb/posf.jpg,stim_03/b.jpg,stim_03/a.jpg,1,1,f,2,13,133,5,f,1,0.949741250064,03,03,60.023797767,PLT_learning_3,A,2014_Mrz_26_1451,P18,
stim_fb/ques.jpg,stim_fb/negf.jpg,stim_fb/posf.jpg,stim_03/f.jpg,stim_03/e.jpg,1,3,f,2,14,134,40,f,1,0.666520687813,03,03,60.023797767,PLT_learning_3,A,2014_Mrz_26_1451,P18,
stim_fb/ques.jpg,stim_fb/negf.jpg,stim_fb/posf.jpg,stim_03/a.jpg,stim_03/b.jpg,2,1,j,2,15,135,15,j,1,0.916459533386,03,03,60.023797767,PLT_learning_3,A,2014_Mrz_26_1451,P18,
stim_fb/ques.jpg,stim_fb/negf.jpg,stim_fb/posf.jpg,stim_03/c.jpg,stim_03/d.jpg,2,2,j,2,16,136,35,j,1,0.783119916392,03,03,60.023797767,PLT_learning_3,A,2014_Mrz_26_1451,P18,
stim_fb/ques.jpg,stim_fb/posf.jpg,stim_fb/negf.jpg,stim_03/a.jpg,stim_03/b.jpg,2,1,j,2,17,137,18,f,0,0.683151495101,03,03,60.023797767,PLT_learning_3,A,2014_Mrz_26_1451,P18,
stim_fb/ques.jpg,stim_fb/negf.jpg,stim_fb/posf.jpg,stim_03/c.jpg,stim_03/d.jpg,2,2,j,2,18,138,31,j,1,0.699842885395,03,03,60.023797767,PLT_learning_3,A,2014_Mrz_26_1451,P18,
stim_fb/ques.jpg,stim_fb/negf.jpg,stim_fb/posf.jpg,stim_03/a.jpg,stim_03/b.jpg,2,1,j,2,19,139,17,j,1,0.833081549761,03,03,60.023797767,PLT_learning_3,A,2014_Mrz_26_1451,P18,
stim_fb/ques.jpg,stim_fb/negf.jpg,stim_fb/posf.jpg,stim_03/b.jpg,stim_03/a.jpg,1,1,f,2,20,140,6,f,1,0.883094662444,03,03,60.023797767,PLT_learning_3,A,2014_Mrz_26_1451,P18,
stim_fb/ques.jpg,stim_fb/posf.jpg,stim_fb/negf.jpg,stim_03/e.jpg,stim_03/f.jpg,2,3,j,2,21,141,58,j,1,0.749763457417,03,03,60.023797767,PLT_learning_3,A,2014_Mrz_26_1451,P18,
stim_fb/ques.jpg,stim_fb/negf.jpg,stim_fb/posf.jpg,stim_03/a.jpg,stim_03/b.jpg,2,1,j,2,22,142,14,j,1,1.03305516801,03,03,60.023797767,PLT_learning_3,A,2014_Mrz_26_1451,P18,
stim_fb/ques.jpg,stim_fb/posf.jpg,stim_fb/negf.jpg,stim_03/b.jpg,stim_03/a.jpg,1,1,f,2,23,143,9,f,1,0.833113281857,03,03,60.023797767,PLT_learning_3,A,2014_Mrz_26_1451,P18,
stim_fb/ques.jpg,stim_fb/negf.jpg,stim_fb/posf.jpg,stim_03/f.jpg,stim_03/e.jpg,1,3,f,2,24,144,44,f,1,0.766448715422,03,03,60.023797767,PLT_learning_3,A,2014_Mrz_26_1451,P18,
stim_fb/ques.jpg,stim_fb/negf.jpg,stim_fb/posf.jpg,stim_03/a.jpg,stim_03/b.jpg,2,1,j,2,25,145,13,j,1,0.716480050527,03,03,60.023797767,PLT_learning_3,A,2014_Mrz_26_1451,P18,
stim_fb/ques.jpg,stim_fb/negf.jpg,stim_fb/posf.jpg,stim_03/d.jpg,stim_03/c.jpg,1,2,f,2,26,146,24,f,1,0.733130457666,03,03,60.023797767,PLT_learning_3,A,2014_Mrz_26_1451,P18,
stim_fb/ques.jpg,stim_fb/negf.jpg,stim_fb/posf.jpg,stim_03/f.jpg,stim_03/e.jpg,1,3,f,2,27,147,43,f,1,0.783117323932,03,03,60.023797767,PLT_learning_3,A,2014_Mrz_26_1451,P18,
stim_fb/ques.jpg,stim_fb/negf.jpg,stim_fb/posf.jpg,stim_03/c.jpg,stim_03/d.jpg,2,2,j,2,28,148,33,j,1,0.616497301526,03,03,60.023797767,PLT_learning_3,A,2014_Mrz_26_1451,P18,
stim_fb/ques.jpg,stim_fb/posf.jpg,stim_fb/negf.jpg,stim_03/c.jpg,stim_03/d.jpg,2,2,j,2,29,149,38,j,1,0.68317018669,03,03,60.023797767,PLT_learning_3,A,2014_Mrz_26_1451,P18,
stim_fb/ques.jpg,stim_fb/posf.jpg,stim_fb/negf.jpg,stim_03/f.jpg,stim_03/e.jpg,1,3,f,2,30,150,46,f,1,0.633202793964,03,03,60.023797767,PLT_learning_3,A,2014_Mrz_26_1451,P18,
stim_fb/ques.jpg,stim_fb/negf.jpg,stim_fb/posf.jpg,stim_03/c.jpg,stim_03/d.jpg,2,2,j,2,31,151,34,j,1,0.666457304833,03,03,60.023797767,PLT_learning_3,A,2014_Mrz_26_1451,P18,
stim_fb/ques.jpg,stim_fb/negf.jpg,stim_fb/posf.jpg,stim_03/d.jpg,stim_03/c.jpg,1,2,f,2,32,152,21,f,1,0.966427208819,03,03,60.023797767,PLT_learning_3,A,2014_Mrz_26_1451,P18,
stim_fb/ques.jpg,stim_fb/negf.jpg,stim_fb/posf.jpg,stim_03/a.jpg,stim_03/b.jpg,2,1,j,2,33,153,16,j,1,0.899715677326,03,03,60.023797767,PLT_learning_3,A,2014_Mrz_26_1451,P18,
stim_fb/ques.jpg,stim_fb/negf.jpg,stim_fb/posf.jpg,stim_03/e.jpg,stim_03/f.jpg,2,3,j,2,34,154,51,j,1,0.766477325735,03,03,60.023797767,PLT_learning_3,A,2014_Mrz_26_1451,P18,
stim_fb/ques.jpg,stim_fb/negf.jpg,stim_fb/posf.jpg,stim_03/f.jpg,stim_03/e.jpg,1,3,f,2,35,155,41,f,1,0.599902984188,03,03,60.023797767,PLT_learning_3,A,2014_Mrz_26_1451,P18,
stim_fb/ques.jpg,stim_fb/posf.jpg,stim_fb/negf.jpg,stim_03/e.jpg,stim_03/f.jpg,2,3,j,2,36,156,56,j,1,0.733134075686,03,03,60.023797767,PLT_learning_3,A,2014_Mrz_26_1451,P18,
stim_fb/ques.jpg,stim_fb/negf.jpg,stim_fb/posf.jpg,stim_03/c.jpg,stim_03/d.jpg,2,2,j,2,37,157,30,j,1,0.749850506385,03,03,60.023797767,PLT_learning_3,A,2014_Mrz_26_1451,P18,
stim_fb/ques.jpg,stim_fb/posf.jpg,stim_fb/negf.jpg,stim_03/d.jpg,stim_03/c.jpg,1,2,f,2,38,158,29,f,1,0.766445927475,03,03,60.023797767,PLT_learning_3,A,2014_Mrz_26_1451,P18,
stim_fb/ques.jpg,stim_fb/negf.jpg,stim_fb/posf.jpg,stim_03/b.jpg,stim_03/a.jpg,1,1,f,2,39,159,2,f,1,1.08306417245,03,03,60.023797767,PLT_learning_3,A,2014_Mrz_26_1451,P18,
stim_fb/ques.jpg,stim_fb/negf.jpg,stim_fb/posf.jpg,stim_03/c.jpg,stim_03/d.jpg,2,2,j,2,40,160,36,j,1,0.849765836349,03,03,60.023797767,PLT_learning_3,A,2014_Mrz_26_1451,P18,
stim_fb/ques.jpg,stim_fb/negf.jpg,stim_fb/posf.jpg,stim_03/b.jpg,stim_03/a.jpg,1,1,f,2,41,161,4,f,1,0.866443497416,03,03,60.023797767,PLT_learning_3,A,2014_Mrz_26_1451,P18,
stim_fb/ques.jpg,stim_fb/negf.jpg,stim_fb/posf.jpg,stim_03/f.jpg,stim_03/e.jpg,1,3,f,2,42,162,42,f,1,0.683153074038,03,03,60.023797767,PLT_learning_3,A,2014_Mrz_26_1451,P18,
stim_fb/ques.jpg,stim_fb/posf.jpg,stim_fb/negf.jpg,stim_03/d.jpg,stim_03/c.jpg,1,2,f,2,43,163,28,f,1,0.749783403131,03,03,60.023797767,PLT_learning_3,A,2014_Mrz_26_1451,P18,
stim_fb/ques.jpg,stim_fb/negf.jpg,stim_fb/posf.jpg,stim_03/e.jpg,stim_03/f.jpg,2,3,j,2,44,164,53,j,1,0.599879498652,03,03,60.023797767,PLT_learning_3,A,2014_Mrz_26_1451,P18,
stim_fb/ques.jpg,stim_fb/negf.jpg,stim_fb/posf.jpg,stim_03/b.jpg,stim_03/a.jpg,1,1,f,2,45,165,1,f,1,0.999764380718,03,03,60.023797767,PLT_learning_3,A,2014_Mrz_26_1451,P18,
stim_fb/ques.jpg,stim_fb/posf.jpg,stim_fb/negf.jpg,stim_03/c.jpg,stim_03/d.jpg,2,2,j,2,46,166,39,j,1,0.749782765542,03,03,60.023797767,PLT_learning_3,A,2014_Mrz_26_1451,P18,
stim_fb/ques.jpg,stim_fb/posf.jpg,stim_fb/negf.jpg,stim_03/b.jpg,stim_03/a.jpg,1,1,f,2,47,167,8,f,1,1.03304562823,03,03,60.023797767,PLT_learning_3,A,2014_Mrz_26_1451,P18,
stim_fb/ques.jpg,stim_fb/negf.jpg,stim_fb/posf.jpg,stim_03/a.jpg,stim_03/b.jpg,2,1,j,2,48,168,12,j,1,0.983060509319,03,03,60.023797767,PLT_learning_3,A,2014_Mrz_26_1451,P18,
stim_fb/ques.jpg,stim_fb/posf.jpg,stim_fb/negf.jpg,stim_03/d.jpg,stim_03/c.jpg,1,2,f,2,49,169,27,f,1,0.716497078971,03,03,60.023797767,PLT_learning_3,A,2014_Mrz_26_1451,P18,
stim_fb/ques.jpg,stim_fb/negf.jpg,stim_fb/posf.jpg,stim_03/d.jpg,stim_03/c.jpg,1,2,f,2,50,170,25,f,1,0.832122182543,03,03,60.023797767,PLT_learning_3,A,2014_Mrz_26_1451,P18,
stim_fb/ques.jpg,stim_fb/negf.jpg,stim_fb/posf.jpg,stim_03/d.jpg,stim_03/c.jpg,1,2,f,2,51,171,22,f,1,0.799789562487,03,03,60.023797767,PLT_learning_3,A,2014_Mrz_26_1451,P18,
stim_fb/ques.jpg,stim_fb/negf.jpg,stim_fb/posf.jpg,stim_03/e.jpg,stim_03/f.jpg,2,3,j,2,52,172,54,j,1,0.583152249983,03,03,60.023797767,PLT_learning_3,A,2014_Mrz_26_1451,P18,
stim_fb/ques.jpg,stim_fb/posf.jpg,stim_fb/negf.jpg,stim_03/f.jpg,stim_03/e.jpg,1,3,f,2,53,173,48,f,1,0.916404252603,03,03,60.023797767,PLT_learning_3,A,2014_Mrz_26_1451,P18,
stim_fb/ques.jpg,stim_fb/negf.jpg,stim_fb/posf.jpg,stim_03/a.jpg,stim_03/b.jpg,2,1,j,2,54,174,10,j,1,0.933043793655,03,03,60.023797767,PLT_learning_3,A,2014_Mrz_26_1451,P18,
stim_fb/ques.jpg,stim_fb/negf.jpg,stim_fb/posf.jpg,stim_03/f.jpg,stim_03/e.jpg,1,3,f,2,55,175,45,f,1,0.666490994805,03,03,60.023797767,PLT_learning_3,A,2014_Mrz_26_1451,P18,
stim_fb/ques.jpg,stim_fb/negf.jpg,stim_fb/posf.jpg,stim_03/c.jpg,stim_03/d.jpg,2,2,j,2,56,176,32,j,1,0.699840698944,03,03,60.023797767,PLT_learning_3,A,2014_Mrz_26_1451,P18,
stim_fb/ques.jpg,stim_fb/negf.jpg,stim_fb/posf.jpg,stim_03/d.jpg,stim_03/c.jpg,1,2,f,2,57,177,20,f,1,1.48287181901,03,03,60.023797767,PLT_learning_3,A,2014_Mrz_26_1451,P18,
stim_fb/ques.jpg,stim_fb/posf.jpg,stim_fb/negf.jpg,stim_03/f.jpg,stim_03/e.jpg,1,3,f,2,58,178,47,f,1,0.833115366051,03,03,60.023797767,PLT_learning_3,A,2014_Mrz_26_1451,P18,
stim_fb/ques.jpg,stim_fb/negf.jpg,stim_fb/posf.jpg,stim_03/d.jpg,stim_03/c.jpg,1,2,f,2,59,179,26,f,1,0.899767697989,03,03,60.023797767,PLT_learning_3,A,2014_Mrz_26_1451,P18,
stim_fb/ques.jpg,stim_fb/posf.jpg,stim_fb/negf.jpg,stim_03/f.jpg,stim_03/e.jpg,1,3,f,3,0,180,47,f,1,0.933070166389,03,03,60.023797767,PLT_learning_3,A,2014_Mrz_26_1451,P18,
stim_fb/ques.jpg,stim_fb/negf.jpg,stim_fb/posf.jpg,stim_03/b.jpg,stim_03/a.jpg,1,1,f,3,1,181,1,f,1,0.949737644078,03,03,60.023797767,PLT_learning_3,A,2014_Mrz_26_1451,P18,
stim_fb/ques.jpg,stim_fb/posf.jpg,stim_fb/negf.jpg,stim_03/d.jpg,stim_03/c.jpg,1,2,f,3,2,182,29,f,1,0.916423524635,03,03,60.023797767,PLT_learning_3,A,2014_Mrz_26_1451,P18,
stim_fb/ques.jpg,stim_fb/negf.jpg,stim_fb/posf.jpg,stim_03/c.jpg,stim_03/d.jpg,2,2,j,3,3,183,34,j,1,0.783133892226,03,03,60.023797767,PLT_learning_3,A,2014_Mrz_26_1451,P18,
stim_fb/ques.jpg,stim_fb/negf.jpg,stim_fb/posf.jpg,stim_03/a.jpg,stim_03/b.jpg,2,1,j,3,4,184,14,j,1,1.08302710205,03,03,60.023797767,PLT_learning_3,A,2014_Mrz_26_1451,P18,
stim_fb/ques.jpg,stim_fb/negf.jpg,stim_fb/posf.jpg,stim_03/f.jpg,stim_03/e.jpg,1,3,f,3,5,185,44,f,1,0.849726522356,03,03,60.023797767,PLT_learning_3,A,2014_Mrz_26_1451,P18,
stim_fb/ques.jpg,stim_fb/negf.jpg,stim_fb/posf.jpg,stim_03/d.jpg,stim_03/c.jpg,1,2,f,3,6,186,23,f,1,0.86643407794,03,03,60.023797767,PLT_learning_3,A,2014_Mrz_26_1451,P18,
stim_fb/ques.jpg,stim_fb/negf.jpg,stim_fb/posf.jpg,stim_03/d.jpg,stim_03/c.jpg,1,2,f,3,7,187,25,f,1,0.649833414787,03,03,60.023797767,PLT_learning_3,A,2014_Mrz_26_1451,P18,
stim_fb/ques.jpg,stim_fb/negf.jpg,stim_fb/posf.jpg,stim_03/c.jpg,stim_03/d.jpg,2,2,j,3,8,188,35,j,1,0.649856933407,03,03,60.023797767,PLT_learning_3,A,2014_Mrz_26_1451,P18,
stim_fb/ques.jpg,stim_fb/negf.jpg,stim_fb/posf.jpg,stim_03/a.jpg,stim_03/b.jpg,2,1,j,3,9,189,11,j,1,0.966370400223,03,03,60.023797767,PLT_learning_3,A,2014_Mrz_26_1451,P18,
stim_fb/ques.jpg,stim_fb/negf.jpg,stim_fb/posf.jpg,stim_03/e.jpg,stim_03/f.jpg,2,3,j,3,10,190,51,j,1,1.04966238149,03,03,60.023797767,PLT_learning_3,A,2014_Mrz_26_1451,P18,
stim_fb/ques.jpg,stim_fb/negf.jpg,stim_fb/posf.jpg,stim_03/b.jpg,stim_03/a.jpg,1,1,f,3,11,191,3,f,1,0.816447389119,03,03,60.023797767,PLT_learning_3,A,2014_Mrz_26_1451,P18,
stim_fb/ques.jpg,stim_fb/negf.jpg,stim_fb/posf.jpg,stim_03/b.jpg,stim_03/a.jpg,1,1,f,3,12,192,6,j,0,1.06637365434,03,03,60.023797767,PLT_learning_3,A,2014_Mrz_26_1451,P18,
stim_fb/ques.jpg,stim_fb/posf.jpg,stim_fb/negf.jpg,stim_03/e.jpg,stim_03/f.jpg,2,3,j,3,13,193,58,j,1,0.899730702775,03,03,60.023797767,PLT_learning_3,A,2014_Mrz_26_1451,P18,
stim_fb/ques.jpg,stim_fb/negf.jpg,stim_fb/posf.jpg,stim_03/a.jpg,stim_03/b.jpg,2,1,j,3,14,194,16,j,1,1.04970103984,03,03,60.023797767,PLT_learning_3,A,2014_Mrz_26_1451,P18,
stim_fb/ques.jpg,stim_fb/negf.jpg,stim_fb/posf.jpg,stim_03/f.jpg,stim_03/e.jpg,1,3,f,3,15,195,43,f,1,1.09968027308,03,03,60.023797767,PLT_learning_3,A,2014_Mrz_26_1451,P18,
stim_fb/ques.jpg,stim_fb/negf.jpg,stim_fb/posf.jpg,stim_03/b.jpg,stim_03/a.jpg,1,1,f,3,16,196,5,f,1,0.78309126999,03,03,60.023797767,PLT_learning_3,A,2014_Mrz_26_1451,P18,
stim_fb/ques.jpg,stim_fb/negf.jpg,stim_fb/posf.jpg,stim_03/b.jpg,stim_03/a.jpg,1,1,f,3,17,197,2,f,1,1.13297438365,03,03,60.023797767,PLT_learning_3,A,2014_Mrz_26_1451,P18,
stim_fb/ques.jpg,stim_fb/negf.jpg,stim_fb/posf.jpg,stim_03/e.jpg,stim_03/f.jpg,2,3,j,3,18,198,50,j,1,1.01638630085,03,03,60.023797767,PLT_learning_3,A,2014_Mrz_26_1451,P18,
stim_fb/ques.jpg,stim_fb/posf.jpg,stim_fb/negf.jpg,stim_03/c.jpg,stim_03/d.jpg,2,2,j,3,19,199,39,j,1,0.933104984175,03,03,60.023797767,PLT_learning_3,A,2014_Mrz_26_1451,P18,
stim_fb/ques.jpg,stim_fb/negf.jpg,stim_fb/posf.jpg,stim_03/b.jpg,stim_03/a.jpg,1,1,f,3,20,200,7,f,1,0.866421750212,03,03,60.023797767,PLT_learning_3,A,2014_Mrz_26_1451,P18,
stim_fb/ques.jpg,stim_fb/negf.jpg,stim_fb/posf.jpg,stim_03/f.jpg,stim_03/e.jpg,1,3,f,3,21,201,40,f,1,0.933072668624,03,03,60.023797767,PLT_learning_3,A,2014_Mrz_26_1451,P18,
stim_fb/ques.jpg,stim_fb/negf.jpg,stim_fb/posf.jpg,stim_03/d.jpg,stim_03/c.jpg,1,2,f,3,22,202,22,f,1,0.766423166744,03,03,60.023797767,PLT_learning_3,A,2014_Mrz_26_1451,P18,
stim_fb/ques.jpg,stim_fb/negf.jpg,stim_fb/posf.jpg,stim_03/d.jpg,stim_03/c.jpg,1,2,f,3,23,203,26,f,1,0.616512335997,03,03,60.023797767,PLT_learning_3,A,2014_Mrz_26_1451,P18,
stim_fb/ques.jpg,stim_fb/negf.jpg,stim_fb/posf.jpg,stim_03/b.jpg,stim_03/a.jpg,1,1,f,3,24,204,0,f,1,0.783135519283,03,03,60.023797767,PLT_learning_3,A,2014_Mrz_26_1451,P18,
stim_fb/ques.jpg,stim_fb/posf.jpg,stim_fb/negf.jpg,stim_03/f.jpg,stim_03/e.jpg,1,3,f,3,25,205,48,f,1,1.09969359629,03,03,60.023797767,PLT_learning_3,A,2014_Mrz_26_1451,P18,
stim_fb/ques.jpg,stim_fb/negf.jpg,stim_fb/posf.jpg,stim_03/a.jpg,stim_03/b.jpg,2,1,j,3,26,206,13,j,1,1.03302795016,03,03,60.023797767,PLT_learning_3,A,2014_Mrz_26_1451,P18,
stim_fb/ques.jpg,stim_fb/negf.jpg,stim_fb/posf.jpg,stim_03/c.jpg,stim_03/d.jpg,2,2,j,3,27,207,33,j,1,0.79977994752,03,03,60.023797767,PLT_learning_3,A,2014_Mrz_26_1451,P18,
stim_fb/ques.jpg,stim_fb/negf.jpg,stim_fb/posf.jpg,stim_03/f.jpg,stim_03/e.jpg,1,3,f,3,28,208,42,f,1,0.883088578281,03,03,60.023797767,PLT_learning_3,A,2014_Mrz_26_1451,P18,
stim_fb/ques.jpg,stim_fb/posf.jpg,stim_fb/negf.jpg,stim_03/e.jpg,stim_03/f.jpg,2,3,j,3,29,209,59,j,1,0.983049336472,03,03,60.023797767,PLT_learning_3,A,2014_Mrz_26_1451,P18,
stim_fb/ques.jpg,stim_fb/negf.jpg,stim_fb/posf.jpg,stim_03/b.jpg,stim_03/a.jpg,1,1,f,3,30,210,4,f,1,0.966400983449,03,03,60.023797767,PLT_learning_3,A,2014_Mrz_26_1451,P18,
stim_fb/ques.jpg,stim_fb/posf.jpg,stim_fb/negf.jpg,stim_03/a.jpg,stim_03/b.jpg,2,1,j,3,31,211,18,j,1,0.999728783994,03,03,60.023797767,PLT_learning_3,A,2014_Mrz_26_1451,P18,
stim_fb/ques.jpg,stim_fb/negf.jpg,stim_fb/posf.jpg,stim_03/a.jpg,stim_03/b.jpg,2,1,j,3,32,212,10,j,1,1.01639859249,03,03,60.023797767,PLT_learning_3,A,2014_Mrz_26_1451,P18,
stim_fb/ques.jpg,stim_fb/negf.jpg,stim_fb/posf.jpg,stim_03/e.jpg,stim_03/f.jpg,2,3,j,3,33,213,52,j,1,0.983060157443,03,03,60.023797767,PLT_learning_3,A,2014_Mrz_26_1451,P18,
stim_fb/ques.jpg,stim_fb/negf.jpg,stim_fb/posf.jpg,stim_03/d.jpg,stim_03/c.jpg,1,2,f,3,34,214,24,f,1,0.849767995729,03,03,60.023797767,PLT_learning_3,A,2014_Mrz_26_1451,P18,
stim_fb/ques.jpg,stim_fb/negf.jpg,stim_fb/posf.jpg,stim_03/e.jpg,stim_03/f.jpg,2,3,j,3,35,215,53,j,1,0.983051083826,03,03,60.023797767,PLT_learning_3,A,2014_Mrz_26_1451,P18,
stim_fb/ques.jpg,stim_fb/negf.jpg,stim_fb/posf.jpg,stim_03/d.jpg,stim_03/c.jpg,1,2,f,3,36,216,21,f,1,0.699828121593,03,03,60.023797767,PLT_learning_3,A,2014_Mrz_26_1451,P18,
stim_fb/ques.jpg,stim_fb/negf.jpg,stim_fb/posf.jpg,stim_03/e.jpg,stim_03/f.jpg,2,3,j,3,37,217,54,j,1,0.88310031654,03,03,60.023797767,PLT_learning_3,A,2014_Mrz_26_1451,P18,
stim_fb/ques.jpg,stim_fb/negf.jpg,stim_fb/posf.jpg,stim_03/a.jpg,stim_03/b.jpg,2,1,j,3,38,218,12,j,1,0.899699003767,03,03,60.023797767,PLT_learning_3,A,2014_Mrz_26_1451,P18,
stim_fb/ques.jpg,stim_fb/posf.jpg,stim_fb/negf.jpg,stim_03/e.jpg,stim_03/f.jpg,2,3,j,3,39,219,57,j,1,0.883079826468,03,03,60.023797767,PLT_learning_3,A,2014_Mrz_26_1451,P18,
stim_fb/ques.jpg,stim_fb/posf.jpg,stim_fb/negf.jpg,stim_03/f.jpg,stim_03/e.jpg,1,3,f,3,40,220,46,f,1,0.766462592012,03,03,60.023797767,PLT_learning_3,A,2014_Mrz_26_1451,P18,
stim_fb/ques.jpg,stim_fb/negf.jpg,stim_fb/posf.jpg,stim_03/a.jpg,stim_03/b.jpg,2,1,j,3,41,221,15,j,1,0.883090139174,03,03,60.023797767,PLT_learning_3,A,2014_Mrz_26_1451,P18,
stim_fb/ques.jpg,stim_fb/negf.jpg,stim_fb/posf.jpg,stim_03/f.jpg,stim_03/e.jpg,1,3,f,3,42,222,45,f,1,0.716500119546,03,03,60.023797767,PLT_learning_3,A,2014_Mrz_26_1451,P18,
stim_fb/ques.jpg,stim_fb/posf.jpg,stim_fb/negf.jpg,stim_03/c.jpg,stim_03/d.jpg,2,2,j,3,43,223,37,j,1,0.683209675117,03,03,60.023797767,PLT_learning_3,A,2014_Mrz_26_1451,P18,
stim_fb/ques.jpg,stim_fb/posf.jpg,stim_fb/negf.jpg,stim_03/b.jpg,stim_03/a.jpg,1,1,f,3,44,224,8,f,1,0.966400962399,03,03,60.023797767,PLT_learning_3,A,2014_Mrz_26_1451,P18,
stim_fb/ques.jpg,stim_fb/posf.jpg,stim_fb/negf.jpg,stim_03/d.jpg,stim_03/c.jpg,1,2,f,3,45,225,28,f,1,0.59984611845,03,03,60.023797767,PLT_learning_3,A,2014_Mrz_26_1451,P18,
stim_fb/ques.jpg,stim_fb/posf.jpg,stim_fb/negf.jpg,stim_03/e.jpg,stim_03/f.jpg,2,3,j,3,46,226,56,j,1,0.783127853174,03,03,60.023797767,PLT_learning_3,A,2014_Mrz_26_1451,P18,
stim_fb/ques.jpg,stim_fb/negf.jpg,stim_fb/posf.jpg,stim_03/c.jpg,stim_03/d.jpg,2,2,j,3,47,227,31,j,1,0.616499827822,03,03,60.023797767,PLT_learning_3,A,2014_Mrz_26_1451,P18,
stim_fb/ques.jpg,stim_fb/negf.jpg,stim_fb/posf.jpg,stim_03/c.jpg,stim_03/d.jpg,2,2,j,3,48,228,36,j,1,0.699789809099,03,03,60.023797767,PLT_learning_3,A,2014_Mrz_26_1451,P18,
stim_fb/ques.jpg,stim_fb/negf.jpg,stim_fb/posf.jpg,stim_03/d.jpg,stim_03/c.jpg,1,2,f,3,49,229,20,f,1,0.799797276712,03,03,60.023797767,PLT_learning_3,A,2014_Mrz_26_1451,P18,
stim_fb/ques.jpg,stim_fb/negf.jpg,stim_fb/posf.jpg,stim_03/c.jpg,stim_03/d.jpg,2,2,j,3,50,230,32,j,1,0.683150511653,03,03,60.023797767,PLT_learning_3,A,2014_Mrz_26_1451,P18,
stim_fb/ques.jpg,stim_fb/negf.jpg,stim_fb/posf.jpg,stim_03/c.jpg,stim_03/d.jpg,2,2,j,3,51,231,30,j,1,0.666504898461,03,03,60.023797767,PLT_learning_3,A,2014_Mrz_26_1451,P18,
stim_fb/ques.jpg,stim_fb/negf.jpg,stim_fb/posf.jpg,stim_03/f.jpg,stim_03/e.jpg,1,3,f,3,52,232,41,f,1,0.683168950611,03,03,60.023797767,PLT_learning_3,A,2014_Mrz_26_1451,P18,
stim_fb/ques.jpg,stim_fb/negf.jpg,stim_fb/posf.jpg,stim_03/a.jpg,stim_03/b.jpg,2,1,j,3,53,233,17,j,1,1.09965893189,03,03,60.023797767,PLT_learning_3,A,2014_Mrz_26_1451,P18,
stim_fb/ques.jpg,stim_fb/posf.jpg,stim_fb/negf.jpg,stim_03/b.jpg,stim_03/a.jpg,1,1,f,3,54,234,9,f,1,0.949730504279,03,03,60.023797767,PLT_learning_3,A,2014_Mrz_26_1451,P18,
stim_fb/ques.jpg,stim_fb/posf.jpg,stim_fb/negf.jpg,stim_03/f.jpg,stim_03/e.jpg,1,3,f,3,55,235,49,f,1,1.2496272028,03,03,60.023797767,PLT_learning_3,A,2014_Mrz_26_1451,P18,
stim_fb/ques.jpg,stim_fb/posf.jpg,stim_fb/negf.jpg,stim_03/d.jpg,stim_03/c.jpg,1,2,f,3,56,236,27,f,1,0.699828383244,03,03,60.023797767,PLT_learning_3,A,2014_Mrz_26_1451,P18,
stim_fb/ques.jpg,stim_fb/posf.jpg,stim_fb/negf.jpg,stim_03/c.jpg,stim_03/d.jpg,2,2,j,3,57,237,38,j,1,0.566522441182,03,03,60.023797767,PLT_learning_3,A,2014_Mrz_26_1451,P18,
stim_fb/ques.jpg,stim_fb/posf.jpg,stim_fb/negf.jpg,stim_03/a.jpg,stim_03/b.jpg,2,1,j,3,58,238,19,j,1,1.03303301479,03,03,60.023797767,PLT_learning_3,A,2014_Mrz_26_1451,P18,
stim_fb/ques.jpg,stim_fb/negf.jpg,stim_fb/posf.jpg,stim_03/e.jpg,stim_03/f.jpg,2,3,j,3,59,239,55,j,1,1.24962363892,03,03,60.023797767,PLT_learning_3,A,2014_Mrz_26_1451,P18,
stim_fb/ques.jpg,stim_fb/negf.jpg,stim_fb/posf.jpg,stim_03/d.jpg,stim_03/c.jpg,1,2,f,4,0,240,26,None,0,,03,03,60.023797767,PLT_learning_3,A,2014_Mrz_26_1451,P18,
stim_fb/ques.jpg,stim_fb/negf.jpg,stim_fb/posf.jpg,stim_03/f.jpg,stim_03/e.jpg,1,3,f,4,1,241,41,f,1,1.41624784475,03,03,60.023797767,PLT_learning_3,A,2014_Mrz_26_1451,P18,
stim_fb/ques.jpg,stim_fb/posf.jpg,stim_fb/negf.jpg,stim_03/e.jpg,stim_03/f.jpg,2,3,j,4,2,242,58,j,1,1.28294275381,03,03,60.023797767,PLT_learning_3,A,2014_Mrz_26_1451,P18,
stim_fb/ques.jpg,stim_fb/negf.jpg,stim_fb/posf.jpg,stim_03/a.jpg,stim_03/b.jpg,2,1,j,4,3,243,16,j,1,0.799799042114,03,03,60.023797767,PLT_learning_3,A,2014_Mrz_26_1451,P18,
stim_fb/ques.jpg,stim_fb/posf.jpg,stim_fb/negf.jpg,stim_03/e.jpg,stim_03/f.jpg,2,3,j,4,4,244,56,j,1,1.06638021669,03,03,60.023797767,PLT_learning_3,A,2014_Mrz_26_1451,P18,
stim_fb/ques.jpg,stim_fb/negf.jpg,stim_fb/posf.jpg,stim_03/a.jpg,stim_03/b.jpg,2,1,j,4,5,245,11,j,1,0.86647848061,03,03,60.023797767,PLT_learning_3,A,2014_Mrz_26_1451,P18,
stim_fb/ques.jpg,stim_fb/negf.jpg,stim_fb/posf.jpg,stim_03/c.jpg,stim_03/d.jpg,2,2,j,4,6,246,35,j,1,0.949751460517,03,03,60.023797767,PLT_learning_3,A,2014_Mrz_26_1451,P18,
stim_fb/ques.jpg,stim_fb/posf.jpg,stim_fb/negf.jpg,stim_03/d.jpg,stim_03/c.jpg,1,2,f,4,7,247,27,f,1,0.816503115013,03,03,60.023797767,PLT_learning_3,A,2014_Mrz_26_1451,P18,
stim_fb/ques.jpg,stim_fb/negf.jpg,stim_fb/posf.jpg,stim_03/b.jpg,stim_03/a.jpg,1,1,f,4,8,248,0,f,1,1.01632751032,03,03,60.023797767,PLT_learning_3,A,2014_Mrz_26_1451,P18,
stim_fb/ques.jpg,stim_fb/negf.jpg,stim_fb/posf.jpg,stim_03/b.jpg,stim_03/a.jpg,1,1,f,4,9,249,1,f,1,0.633181233225,03,03,60.023797767,PLT_learning_3,A,2014_Mrz_26_1451,P18,
stim_fb/ques.jpg,stim_fb/posf.jpg,stim_fb/negf.jpg,stim_03/a.jpg,stim_03/b.jpg,2,1,j,4,10,250,18,j,1,0.699784173052,03,03,60.023797767,PLT_learning_3,A,2014_Mrz_26_1451,P18,
stim_fb/ques.jpg,stim_fb/posf.jpg,stim_fb/negf.jpg,stim_03/f.jpg,stim_03/e.jpg,1,3,f,4,11,251,46,f,1,0.916349943232,03,03,60.023797767,PLT_learning_3,A,2014_Mrz_26_1451,P18,
stim_fb/ques.jpg,stim_fb/negf.jpg,stim_fb/posf.jpg,stim_03/b.jpg,stim_03/a.jpg,1,1,f,4,12,252,4,f,1,0.799760630372,03,03,60.023797767,PLT_learning_3,A,2014_Mrz_26_1451,P18,
stim_fb/ques.jpg,stim_fb/negf.jpg,stim_fb/posf.jpg,stim_03/a.jpg,stim_03/b.jpg,2,1,j,4,13,253,17,j,1,0.549864298762,03,03,60.023797767,PLT_learning_3,A,2014_Mrz_26_1451,P18,
stim_fb/ques.jpg,stim_fb/negf.jpg,stim_fb/posf.jpg,stim_03/a.jpg,stim_03/b.jpg,2,1,j,4,14,254,15,j,1,0.599832461412,03,03,60.023797767,PLT_learning_3,A,2014_Mrz_26_1451,P18,
stim_fb/ques.jpg,stim_fb/posf.jpg,stim_fb/negf.jpg,stim_03/b.jpg,stim_03/a.jpg,1,1,f,4,15,255,8,f,1,0.566507349566,03,03,60.023797767,PLT_learning_3,A,2014_Mrz_26_1451,P18,
stim_fb/ques.jpg,stim_fb/negf.jpg,stim_fb/posf.jpg,stim_03/b.jpg,stim_03/a.jpg,1,1,f,4,16,256,3,f,1,0.6165906512,03,03,60.023797767,PLT_learning_3,A,2014_Mrz_26_1451,P18,
stim_fb/ques.jpg,stim_fb/posf.jpg,stim_fb/negf.jpg,stim_03/c.jpg,stim_03/d.jpg,2,2,j,4,17,257,38,j,1,0.733149022941,03,03,60.023797767,PLT_learning_3,A,2014_Mrz_26_1451,P18,
stim_fb/ques.jpg,stim_fb/negf.jpg,stim_fb/posf.jpg,stim_03/f.jpg,stim_03/e.jpg,1,3,f,4,18,258,45,f,1,0.76647876031,03,03,60.023797767,PLT_learning_3,A,2014_Mrz_26_1451,P18,
stim_fb/ques.jpg,stim_fb/negf.jpg,stim_fb/posf.jpg,stim_03/b.jpg,stim_03/a.jpg,1,1,f,4,19,259,7,f,1,0.683175329508,03,03,60.023797767,PLT_learning_3,A,2014_Mrz_26_1451,P18,
stim_fb/ques.jpg,stim_fb/negf.jpg,stim_fb/posf.jpg,stim_03/f.jpg,stim_03/e.jpg,1,3,f,4,20,260,40,f,1,0.91642582537,03,03,60.023797767,PLT_learning_3,A,2014_Mrz_26_1451,P18,
stim_fb/ques.jpg,stim_fb/posf.jpg,stim_fb/negf.jpg,stim_03/e.jpg,stim_03/f.jpg,2,3,j,4,21,261,59,j,1,0.966398024073,03,03,60.023797767,PLT_learning_3,A,2014_Mrz_26_1451,P18,
stim_fb/ques.jpg,stim_fb/negf.jpg,stim_fb/posf.jpg,stim_03/a.jpg,stim_03/b.jpg,2,1,j,4,22,262,12,j,1,0.666540678641,03,03,60.023797767,PLT_learning_3,A,2014_Mrz_26_1451,P18,
stim_fb/ques.jpg,stim_fb/negf.jpg,stim_fb/posf.jpg,stim_03/e.jpg,stim_03/f.jpg,2,3,j,4,23,263,55,j,1,0.93311255705,03,03,60.023797767,PLT_learning_3,A,2014_Mrz_26_1451,P18,
stim_fb/ques.jpg,stim_fb/posf.jpg,stim_fb/negf.jpg,stim_03/d.jpg,stim_03/c.jpg,1,2,f,4,24,264,29,f,1,0.7664398794,03,03,60.023797767,PLT_learning_3,A,2014_Mrz_26_1451,P18,
stim_fb/ques.jpg,stim_fb/negf.jpg,stim_fb/posf.jpg,stim_03/b.jpg,stim_03/a.jpg,1,1,f,4,25,265,5,f,1,0.549851234202,03,03,60.023797767,PLT_learning_3,A,2014_Mrz_26_1451,P18,
stim_fb/ques.jpg,stim_fb/negf.jpg,stim_fb/posf.jpg,stim_03/c.jpg,stim_03/d.jpg,2,2,j,4,26,266,31,j,1,0.849761003297,03,03,60.023797767,PLT_learning_3,A,2014_Mrz_26_1451,P18,
stim_fb/ques.jpg,stim_fb/posf.jpg,stim_fb/negf.jpg,stim_03/e.jpg,stim_03/f.jpg,2,3,j,4,27,267,57,j,1,1.1996701288,03,03,60.023797767,PLT_learning_3,A,2014_Mrz_26_1451,P18,
stim_fb/ques.jpg,stim_fb/negf.jpg,stim_fb/posf.jpg,stim_03/c.jpg,stim_03/d.jpg,2,2,j,4,28,268,33,j,1,1.03305768227,03,03,60.023797767,PLT_learning_3,A,2014_Mrz_26_1451,P18,
stim_fb/ques.jpg,stim_fb/negf.jpg,stim_fb/posf.jpg,stim_03/f.jpg,stim_03/e.jpg,1,3,f,4,29,269,44,f,1,0.883077886632,03,03,60.023797767,PLT_learning_3,A,2014_Mrz_26_1451,P18,
stim_fb/ques.jpg,stim_fb/negf.jpg,stim_fb/posf.jpg,stim_03/d.jpg,stim_03/c.jpg,1,2,f,4,30,270,23,f,1,0.716517722423,03,03,60.023797767,PLT_learning_3,A,2014_Mrz_26_1451,P18,
stim_fb/ques.jpg,stim_fb/posf.jpg,stim_fb/negf.jpg,stim_03/b.jpg,stim_03/a.jpg,1,1,f,4,31,271,9,f,1,0.583186821154,03,03,60.023797767,PLT_learning_3,A,2014_Mrz_26_1451,P18,
stim_fb/ques.jpg,stim_fb/negf.jpg,stim_fb/posf.jpg,stim_03/d.jpg,stim_03/c.jpg,1,2,f,4,32,272,21,f,1,0.91638578958,03,03,60.023797767,PLT_learning_3,A,2014_Mrz_26_1451,P18,
stim_fb/ques.jpg,stim_fb/negf.jpg,stim_fb/posf.jpg,stim_03/d.jpg,stim_03/c.jpg,1,2,f,4,33,273,24,f,1,0.783089748198,03,03,60.023797767,PLT_learning_3,A,2014_Mrz_26_1451,P18,
stim_fb/ques.jpg,stim_fb/negf.jpg,stim_fb/posf.jpg,stim_03/b.jpg,stim_03/a.jpg,1,1,f,4,34,274,6,f,1,0.54986961,03,03,60.023797767,PLT_learning_3,A,2014_Mrz_26_1451,P18,
stim_fb/ques.jpg,stim_fb/negf.jpg,stim_fb/posf.jpg,stim_03/b.jpg,stim_03/a.jpg,1,1,f,4,35,275,2,f,1,0.533214712672,03,03,60.023797767,PLT_learning_3,A,2014_Mrz_26_1451,P18,
stim_fb/ques.jpg,stim_fb/negf.jpg,stim_fb/posf.jpg,stim_03/d.jpg,stim_03/c.jpg,1,2,f,4,36,276,22,f,1,0.733139973385,03,03,60.023797767,PLT_learning_3,A,2014_Mrz_26_1451,P18,
stim_fb/ques.jpg,stim_fb/negf.jpg,stim_fb/posf.jpg,stim_03/e.jpg,stim_03/f.jpg,2,3,j,4,37,277,54,j,1,0.94973046218,03,03,60.023797767,PLT_learning_3,A,2014_Mrz_26_1451,P18,
stim_fb/ques.jpg,stim_fb/negf.jpg,stim_fb/posf.jpg,stim_03/f.jpg,stim_03/e.jpg,1,3,f,4,38,278,43,f,1,0.949731827583,03,03,60.023797767,PLT_learning_3,A,2014_Mrz_26_1451,P18,
stim_fb/ques.jpg,stim_fb/posf.jpg,stim_fb/negf.jpg,stim_03/c.jpg,stim_03/d.jpg,2,2,j,4,39,279,39,j,1,0.849772934038,03,03,60.023797767,PLT_learning_3,A,2014_Mrz_26_1451,P18,
stim_fb/ques.jpg,stim_fb/posf.jpg,stim_fb/negf.jpg,stim_03/f.jpg,stim_03/e.jpg,1,3,f,4,40,280,49,f,1,0.849771782166,03,03,60.023797767,PLT_learning_3,A,2014_Mrz_26_1451,P18,
stim_fb/ques.jpg,stim_fb/negf.jpg,stim_fb/posf.jpg,stim_03/e.jpg,stim_03/f.jpg,2,3,j,4,41,281,52,j,1,0.949721349465,03,03,60.023797767,PLT_learning_3,A,2014_Mrz_26_1451,P18,
stim_fb/ques.jpg,stim_fb/negf.jpg,stim_fb/posf.jpg,stim_03/c.jpg,stim_03/d.jpg,2,2,j,4,42,282,32,j,1,0.933097125588,03,03,60.023797767,PLT_learning_3,A,2014_Mrz_26_1451,P18,
stim_fb/ques.jpg,stim_fb/negf.jpg,stim_fb/posf.jpg,stim_03/a.jpg,stim_03/b.jpg,2,1,j,4,43,283,10,j,1,0.799766501004,03,03,60.023797767,PLT_learning_3,A,2014_Mrz_26_1451,P18,
stim_fb/ques.jpg,stim_fb/negf.jpg,stim_fb/posf.jpg,stim_03/c.jpg,stim_03/d.jpg,2,2,j,4,44,284,36,j,1,0.683145720708,03,03,60.023797767,PLT_learning_3,A,2014_Mrz_26_1451,P18,
stim_fb/ques.jpg,stim_fb/negf.jpg,stim_fb/posf.jpg,stim_03/e.jpg,stim_03/f.jpg,2,3,j,4,45,285,50,j,1,0.949707662348,03,03,60.023797767,PLT_learning_3,A,2014_Mrz_26_1451,P18,
stim_fb/ques.jpg,stim_fb/posf.jpg,stim_fb/negf.jpg,stim_03/a.jpg,stim_03/b.jpg,2,1,j,4,46,286,19,j,1,0.766469924285,03,03,60.023797767,PLT_learning_3,A,2014_Mrz_26_1451,P18,
stim_fb/ques.jpg,stim_fb/posf.jpg,stim_fb/negf.jpg,stim_03/c.jpg,stim_03/d.jpg,2,2,j,4,47,287,37,j,1,1.24961509162,03,03,60.023797767,PLT_learning_3,A,2014_Mrz_26_1451,P18,
stim_fb/ques.jpg,stim_fb/posf.jpg,stim_fb/negf.jpg,stim_03/d.jpg,stim_03/c.jpg,1,2,f,4,48,288,28,f,1,0.883080885105,03,03,60.023797767,PLT_learning_3,A,2014_Mrz_26_1451,P18,
stim_fb/ques.jpg,stim_fb/negf.jpg,stim_fb/posf.jpg,stim_03/e.jpg,stim_03/f.jpg,2,3,j,4,49,289,53,j,1,1.08300502703,03,03,60.023797767,PLT_learning_3,A,2014_Mrz_26_1451,P18,
stim_fb/ques.jpg,stim_fb/posf.jpg,stim_fb/negf.jpg,stim_03/f.jpg,stim_03/e.jpg,1,3,f,4,50,290,48,f,1,0.93308193472,03,03,60.023797767,PLT_learning_3,A,2014_Mrz_26_1451,P18,
stim_fb/ques.jpg,stim_fb/negf.jpg,stim_fb/posf.jpg,stim_03/d.jpg,stim_03/c.jpg,1,2,f,4,51,291,20,f,1,0.64988568507,03,03,60.023797767,PLT_learning_3,A,2014_Mrz_26_1451,P18,
stim_fb/ques.jpg,stim_fb/negf.jpg,stim_fb/posf.jpg,stim_03/f.jpg,stim_03/e.jpg,1,3,f,4,52,292,42,f,1,1.16631924572,03,03,60.023797767,PLT_learning_3,A,2014_Mrz_26_1451,P18,
stim_fb/ques.jpg,stim_fb/negf.jpg,stim_fb/posf.jpg,stim_03/d.jpg,stim_03/c.jpg,1,2,f,4,53,293,25,f,1,1.18300153232,03,03,60.023797767,PLT_learning_3,A,2014_Mrz_26_1451,P18,
stim_fb/ques.jpg,stim_fb/negf.jpg,stim_fb/posf.jpg,stim_03/a.jpg,stim_03/b.jpg,2,1,j,4,54,294,14,j,1,0.849765294995,03,03,60.023797767,PLT_learning_3,A,2014_Mrz_26_1451,P18,
stim_fb/ques.jpg,stim_fb/negf.jpg,stim_fb/posf.jpg,stim_03/e.jpg,stim_03/f.jpg,2,3,j,4,55,295,51,j,1,0.866418084075,03,03,60.023797767,PLT_learning_3,A,2014_Mrz_26_1451,P18,
stim_fb/ques.jpg,stim_fb/negf.jpg,stim_fb/posf.jpg,stim_03/c.jpg,stim_03/d.jpg,2,2,j,4,56,296,30,j,1,0.749792175997,03,03,60.023797767,PLT_learning_3,A,2014_Mrz_26_1451,P18,
stim_fb/ques.jpg,stim_fb/negf.jpg,stim_fb/posf.jpg,stim_03/a.jpg,stim_03/b.jpg,2,1,j,4,57,297,13,j,1,0.716462958924,03,03,60.023797767,PLT_learning_3,A,2014_Mrz_26_1451,P18,
stim_fb/ques.jpg,stim_fb/posf.jpg,stim_fb/negf.jpg,stim_03/f.jpg,stim_03/e.jpg,1,3,f,4,58,298,47,f,1,0.91642647198,03,03,60.023797767,PLT_learning_3,A,2014_Mrz_26_1451,P18,
stim_fb/ques.jpg,stim_fb/negf.jpg,stim_fb/posf.jpg,stim_03/c.jpg,stim_03/d.jpg,2,2,j,4,59,299,34,j,1,0.733151019918,03,03,60.023797767,PLT_learning_3,A,2014_Mrz_26_1451,P18,
stim_fb/ques.jpg,stim_fb/negf.jpg,stim_fb/posf.jpg,stim_03/f.jpg,stim_03/e.jpg,1,3,f,5,0,300,43,f,1,0.833109026247,03,03,60.023797767,PLT_learning_3,A,2014_Mrz_26_1451,P18,
stim_fb/ques.jpg,stim_fb/posf.jpg,stim_fb/negf.jpg,stim_03/c.jpg,stim_03/d.jpg,2,2,j,5,1,301,37,j,1,0.883106611229,03,03,60.023797767,PLT_learning_3,A,2014_Mrz_26_1451,P18,
stim_fb/ques.jpg,stim_fb/posf.jpg,stim_fb/negf.jpg,stim_03/f.jpg,stim_03/e.jpg,1,3,f,5,2,302,46,f,1,0.549863068696,03,03,60.023797767,PLT_learning_3,A,2014_Mrz_26_1451,P18,
stim_fb/ques.jpg,stim_fb/negf.jpg,stim_fb/posf.jpg,stim_03/d.jpg,stim_03/c.jpg,1,2,f,5,3,303,22,f,1,0.799812966819,03,03,60.023797767,PLT_learning_3,A,2014_Mrz_26_1451,P18,
stim_fb/ques.jpg,stim_fb/negf.jpg,stim_fb/posf.jpg,stim_03/f.jpg,stim_03/e.jpg,1,3,f,5,4,304,40,f,1,0.616814778838,03,03,60.023797767,PLT_learning_3,A,2014_Mrz_26_1451,P18,
stim_fb/ques.jpg,stim_fb/negf.jpg,stim_fb/posf.jpg,stim_03/e.jpg,stim_03/f.jpg,2,3,j,5,5,305,53,j,1,0.616499211283,03,03,60.023797767,PLT_learning_3,A,2014_Mrz_26_1451,P18,
stim_fb/ques.jpg,stim_fb/negf.jpg,stim_fb/posf.jpg,stim_03/d.jpg,stim_03/c.jpg,1,2,f,5,6,306,21,f,1,0.716459380004,03,03,60.023797767,PLT_learning_3,A,2014_Mrz_26_1451,P18,
stim_fb/ques.jpg,stim_fb/negf.jpg,stim_fb/posf.jpg,stim_03/a.jpg,stim_03/b.jpg,2,1,j,5,7,307,17,j,1,0.849774428763,03,03,60.023797767,PLT_learning_3,A,2014_Mrz_26_1451,P18,
stim_fb/ques.jpg,stim_fb/negf.jpg,stim_fb/posf.jpg,stim_03/d.jpg,stim_03/c.jpg,1,2,f,5,8,308,24,f,1,0.766468447604,03,03,60.023797767,PLT_learning_3,A,2014_Mrz_26_1451,P18,
stim_fb/ques.jpg,stim_fb/negf.jpg,stim_fb/posf.jpg,stim_03/c.jpg,stim_03/d.jpg,2,2,j,5,9,309,34,j,1,0.766475873115,03,03,60.023797767,PLT_learning_3,A,2014_Mrz_26_1451,P18,
stim_fb/ques.jpg,stim_fb/negf.jpg,stim_fb/posf.jpg,stim_03/b.jpg,stim_03/a.jpg,1,1,f,5,10,310,1,f,1,0.799766278447,03,03,60.023797767,PLT_learning_3,A,2014_Mrz_26_1451,P18,
stim_fb/ques.jpg,stim_fb/posf.jpg,stim_fb/negf.jpg,stim_03/e.jpg,stim_03/f.jpg,2,3,j,5,11,311,57,j,1,0.649860939389,03,03,60.023797767,PLT_learning_3,A,2014_Mrz_26_1451,P18,
stim_fb/ques.jpg,stim_fb/negf.jpg,stim_fb/posf.jpg,stim_03/c.jpg,stim_03/d.jpg,2,2,j,5,12,312,32,j,1,0.799791511341,03,03,60.023797767,PLT_learning_3,A,2014_Mrz_26_1451,P18,
stim_fb/ques.jpg,stim_fb/posf.jpg,stim_fb/negf.jpg,stim_03/b.jpg,stim_03/a.jpg,1,1,f,5,13,313,8,f,1,0.666500083458,03,03,60.023797767,PLT_learning_3,A,2014_Mrz_26_1451,P18,
stim_fb/ques.jpg,stim_fb/posf.jpg,stim_fb/negf.jpg,stim_03/f.jpg,stim_03/e.jpg,1,3,f,5,14,314,47,f,1,0.583199918798,03,03,60.023797767,PLT_learning_3,A,2014_Mrz_26_1451,P18,
stim_fb/ques.jpg,stim_fb/negf.jpg,stim_fb/posf.jpg,stim_03/e.jpg,stim_03/f.jpg,2,3,j,5,15,315,54,j,1,0.549855273268,03,03,60.023797767,PLT_learning_3,A,2014_Mrz_26_1451,P18,
stim_fb/ques.jpg,stim_fb/posf.jpg,stim_fb/negf.jpg,stim_03/d.jpg,stim_03/c.jpg,1,2,f,5,16,316,29,f,1,0.883101847354,03,03,60.023797767,PLT_learning_3,A,2014_Mrz_26_1451,P18,
stim_fb/ques.jpg,stim_fb/negf.jpg,stim_fb/posf.jpg,stim_03/d.jpg,stim_03/c.jpg,1,2,f,5,17,317,25,f,1,0.566532705769,03,03,60.023797767,PLT_learning_3,A,2014_Mrz_26_1451,P18,
stim_fb/ques.jpg,stim_fb/posf.jpg,stim_fb/negf.jpg,stim_03/a.jpg,stim_03/b.jpg,2,1,j,5,18,318,18,j,1,0.849741755323,03,03,60.023797767,PLT_learning_3,A,2014_Mrz_26_1451,P18,
stim_fb/ques.jpg,stim_fb/negf.jpg,stim_fb/posf.jpg,stim_03/d.jpg,stim_03/c.jpg,1,2,f,5,19,319,26,f,1,0.53320961196,03,03,60.023797767,PLT_learning_3,A,2014_Mrz_26_1451,P18,
stim_fb/ques.jpg,stim_fb/posf.jpg,stim_fb/negf.jpg,stim_03/f.jpg,stim_03/e.jpg,1,3,f,5,20,320,48,f,1,0.533161296531,03,03,60.023797767,PLT_learning_3,A,2014_Mrz_26_1451,P18,
stim_fb/ques.jpg,stim_fb/negf.jpg,stim_fb/posf.jpg,stim_03/a.jpg,stim_03/b.jpg,2,1,j,5,21,321,11,j,1,0.883078394898,03,03,60.023797767,PLT_learning_3,A,2014_Mrz_26_1451,P18,
stim_fb/ques.jpg,stim_fb/negf.jpg,stim_fb/posf.jpg,stim_03/f.jpg,stim_03/e.jpg,1,3,f,5,22,322,42,f,1,0.549863814558,03,03,60.023797767,PLT_learning_3,A,2014_Mrz_26_1451,P18,
stim_fb/ques.jpg,stim_fb/posf.jpg,stim_fb/negf.jpg,stim_03/a.jpg,stim_03/b.jpg,2,1,j,5,23,323,19,j,1,0.783126629121,03,03,60.023797767,PLT_learning_3,A,2014_Mrz_26_1451,P18,
stim_fb/ques.jpg,stim_fb/negf.jpg,stim_fb/posf.jpg,stim_03/f.jpg,stim_03/e.jpg,1,3,f,5,24,324,45,f,1,0.56654616732,03,03,60.023797767,PLT_learning_3,A,2014_Mrz_26_1451,P18,
stim_fb/ques.jpg,stim_fb/posf.jpg,stim_fb/negf.jpg,stim_03/e.jpg,stim_03/f.jpg,2,3,j,5,25,325,59,j,1,0.549849110907,03,03,60.023797767,PLT_learning_3,A,2014_Mrz_26_1451,P18,
stim_fb/ques.jpg,stim_fb/negf.jpg,stim_fb/posf.jpg,stim_03/e.jpg,stim_03/f.jpg,2,3,j,5,26,326,50,j,1,0.633166803254,03,03,60.023797767,PLT_learning_3,A,2014_Mrz_26_1451,P18,
stim_fb/ques.jpg,stim_fb/negf.jpg,stim_fb/posf.jpg,stim_03/f.jpg,stim_03/e.jpg,1,3,f,5,27,327,41,f,1,0.566512618705,03,03,60.023797767,PLT_learning_3,A,2014_Mrz_26_1451,P18,
stim_fb/ques.jpg,stim_fb/negf.jpg,stim_fb/posf.jpg,stim_03/d.jpg,stim_03/c.jpg,1,2,f,5,28,328,20,f,1,0.84975592063,03,03,60.023797767,PLT_learning_3,A,2014_Mrz_26_1451,P18,
stim_fb/ques.jpg,stim_fb/posf.jpg,stim_fb/negf.jpg,stim_03/d.jpg,stim_03/c.jpg,1,2,f,5,29,329,28,f,1,0.533197121826,03,03,60.023797767,PLT_learning_3,A,2014_Mrz_26_1451,P18,
stim_fb/ques.jpg,stim_fb/negf.jpg,stim_fb/posf.jpg,stim_03/c.jpg,stim_03/d.jpg,2,2,j,5,30,330,35,j,1,0.683153819897,03,03,60.023797767,PLT_learning_3,A,2014_Mrz_26_1451,P18,
stim_fb/ques.jpg,stim_fb/negf.jpg,stim_fb/posf.jpg,stim_03/a.jpg,stim_03/b.jpg,2,1,j,5,31,331,16,j,1,1.14966397546,03,03,60.023797767,PLT_learning_3,A,2014_Mrz_26_1451,P18,
stim_fb/ques.jpg,stim_fb/negf.jpg,stim_fb/posf.jpg,stim_03/b.jpg,stim_03/a.jpg,1,1,f,5,32,332,2,f,1,0.883086166268,03,03,60.023797767,PLT_learning_3,A,2014_Mrz_26_1451,P18,
stim_fb/ques.jpg,stim_fb/negf.jpg,stim_fb/posf.jpg,stim_03/c.jpg,stim_03/d.jpg,2,2,j,5,33,333,30,j,1,0.766426574235,03,03,60.023797767,PLT_learning_3,A,2014_Mrz_26_1451,P18,
stim_fb/ques.jpg,stim_fb/posf.jpg,stim_fb/negf.jpg,stim_03/e.jpg,stim_03/f.jpg,2,3,j,5,34,334,58,j,1,0.66651512996,03,03,60.023797767,PLT_learning_3,A,2014_Mrz_26_1451,P18,
stim_fb/ques.jpg,stim_fb/negf.jpg,stim_fb/posf.jpg,stim_03/b.jpg,stim_03/a.jpg,1,1,f,5,35,335,5,f,1,0.666481912165,03,03,60.023797767,PLT_learning_3,A,2014_Mrz_26_1451,P18,
stim_fb/ques.jpg,stim_fb/posf.jpg,stim_fb/negf.jpg,stim_03/d.jpg,stim_03/c.jpg,1,2,f,5,36,336,27,f,1,0.683154640945,03,03,60.023797767,PLT_learning_3,A,2014_Mrz_26_1451,P18,
stim_fb/ques.jpg,stim_fb/negf.jpg,stim_fb/posf.jpg,stim_03/b.jpg,stim_03/a.jpg,1,1,f,5,37,337,7,f,1,0.766464733348,03,03,60.023797767,PLT_learning_3,A,2014_Mrz_26_1451,P18,
stim_fb/ques.jpg,stim_fb/negf.jpg,stim_fb/posf.jpg,stim_03/b.jpg,stim_03/a.jpg,1,1,f,5,38,338,6,f,1,1.09969166247,03,03,60.023797767,PLT_learning_3,A,2014_Mrz_26_1451,P18,
stim_fb/ques.jpg,stim_fb/negf.jpg,stim_fb/posf.jpg,stim_03/a.jpg,stim_03/b.jpg,2,1,j,5,39,339,13,j,1,0.866431217812,03,03,60.023797767,PLT_learning_3,A,2014_Mrz_26_1451,P18,
stim_fb/ques.jpg,stim_fb/negf.jpg,stim_fb/posf.jpg,stim_03/c.jpg,stim_03/d.jpg,2,2,j,5,40,340,31,j,1,0.649844184631,03,03,60.023797767,PLT_learning_3,A,2014_Mrz_26_1451,P18,
stim_fb/ques.jpg,stim_fb/negf.jpg,stim_fb/posf.jpg,stim_03/b.jpg,stim_03/a.jpg,1,1,f,5,41,341,4,f,1,0.766444637258,03,03,60.023797767,PLT_learning_3,A,2014_Mrz_26_1451,P18,
stim_fb/ques.jpg,stim_fb/negf.jpg,stim_fb/posf.jpg,stim_03/d.jpg,stim_03/c.jpg,1,2,f,5,42,342,23,f,1,0.916403738316,03,03,60.023797767,PLT_learning_3,A,2014_Mrz_26_1451,P18,
stim_fb/ques.jpg,stim_fb/posf.jpg,stim_fb/negf.jpg,stim_03/f.jpg,stim_03/e.jpg,1,3,f,5,43,343,49,f,1,0.749728994517,03,03,60.023797767,PLT_learning_3,A,2014_Mrz_26_1451,P18,
stim_fb/ques.jpg,stim_fb/posf.jpg,stim_fb/negf.jpg,stim_03/e.jpg,stim_03/f.jpg,2,3,j,5,44,344,56,j,1,0.483211160819,03,03,60.023797767,PLT_learning_3,A,2014_Mrz_26_1451,P18,
stim_fb/ques.jpg,stim_fb/negf.jpg,stim_fb/posf.jpg,stim_03/a.jpg,stim_03/b.jpg,2,1,j,5,45,345,15,j,1,1.0163948632,03,03,60.023797767,PLT_learning_3,A,2014_Mrz_26_1451,P18,
stim_fb/ques.jpg,stim_fb/negf.jpg,stim_fb/posf.jpg,stim_03/b.jpg,stim_03/a.jpg,1,1,f,5,46,346,0,f,1,0.83308627153,03,03,60.023797767,PLT_learning_3,A,2014_Mrz_26_1451,P18,
stim_fb/ques.jpg,stim_fb/negf.jpg,stim_fb/posf.jpg,stim_03/e.jpg,stim_03/f.jpg,2,3,j,5,47,347,51,j,1,0.583162015322,03,03,60.023797767,PLT_learning_3,A,2014_Mrz_26_1451,P18,
stim_fb/ques.jpg,stim_fb/negf.jpg,stim_fb/posf.jpg,stim_03/a.jpg,stim_03/b.jpg,2,1,j,5,48,348,14,j,1,0.766455822137,03,03,60.023797767,PLT_learning_3,A,2014_Mrz_26_1451,P18,
stim_fb/ques.jpg,stim_fb/negf.jpg,stim_fb/posf.jpg,stim_03/e.jpg,stim_03/f.jpg,2,3,j,5,49,349,55,j,1,0.549889297075,03,03,60.023797767,PLT_learning_3,A,2014_Mrz_26_1451,P18,
stim_fb/ques.jpg,stim_fb/negf.jpg,stim_fb/posf.jpg,stim_03/a.jpg,stim_03/b.jpg,2,1,j,5,50,350,10,j,1,0.86641860738,03,03,60.023797767,PLT_learning_3,A,2014_Mrz_26_1451,P18,
stim_fb/ques.jpg,stim_fb/posf.jpg,stim_fb/negf.jpg,stim_03/c.jpg,stim_03/d.jpg,2,2,j,5,51,351,38,j,1,0.933095847398,03,03,60.023797767,PLT_learning_3,A,2014_Mrz_26_1451,P18,
stim_fb/ques.jpg,stim_fb/negf.jpg,stim_fb/posf.jpg,stim_03/c.jpg,stim_03/d.jpg,2,2,j,5,52,352,33,j,1,0.799768804744,03,03,60.023797767,PLT_learning_3,A,2014_Mrz_26_1451,P18,
stim_fb/ques.jpg,stim_fb/negf.jpg,stim_fb/posf.jpg,stim_03/e.jpg,stim_03/f.jpg,2,3,j,5,53,353,52,j,1,0.516519535944,03,03,60.023797767,PLT_learning_3,A,2014_Mrz_26_1451,P18,
stim_fb/ques.jpg,stim_fb/negf.jpg,stim_fb/posf.jpg,stim_03/f.jpg,stim_03/e.jpg,1,3,f,5,54,354,44,f,1,0.649866686716,03,03,60.023797767,PLT_learning_3,A,2014_Mrz_26_1451,P18,
stim_fb/ques.jpg,stim_fb/posf.jpg,stim_fb/negf.jpg,stim_03/c.jpg,stim_03/d.jpg,2,2,j,5,55,355,39,j,1,0.566522248704,03,03,60.023797767,PLT_learning_3,A,2014_Mrz_26_1451,P18,
stim_fb/ques.jpg,stim_fb/negf.jpg,stim_fb/posf.jpg,stim_03/b.jpg,stim_03/a.jpg,1,1,f,5,56,356,3,f,1,0.78314489064,03,03,60.023797767,PLT_learning_3,A,2014_Mrz_26_1451,P18,
stim_fb/ques.jpg,stim_fb/negf.jpg,stim_fb/posf.jpg,stim_03/a.jpg,stim_03/b.jpg,2,1,j,5,57,357,12,j,1,0.699820278041,03,03,60.023797767,PLT_learning_3,A,2014_Mrz_26_1451,P18,
stim_fb/ques.jpg,stim_fb/negf.jpg,stim_fb/posf.jpg,stim_03/c.jpg,stim_03/d.jpg,2,2,j,5,58,358,36,j,1,0.783179431735,03,03,60.023797767,PLT_learning_3,A,2014_Mrz_26_1451,P18,
stim_fb/ques.jpg,stim_fb/posf.jpg,stim_fb/negf.jpg,stim_03/b.jpg,stim_03/a.jpg,1,1,f,5,59,359,9,f,1,0.699845002669,03,03,60.023797767,PLT_learning_3,A,2014_Mrz_26_1451,P18,
