Fb3,Fb2,Fb1,Symbol2,Symbol1,PosCond,Pair,Correct,trials.thisRepN,trials.thisTrialN,trials.thisN,trials.thisIndex,Response.keys,Response.corr,Response.rt,Version,Session Number,frameRate,expName,StimCondition,date,Participant,
stim_fb/ques.jpg,stim_fb/negf.jpg,stim_fb/posf.jpg,stim_03/e.jpg,stim_03/f.jpg,2,3,j,0,0,0,55,None,0,,03,02,60.0233448439,PLT_learning_3,A,2014_Mrz_10_1422,P19,
stim_fb/ques.jpg,stim_fb/negf.jpg,stim_fb/posf.jpg,stim_03/b.jpg,stim_03/a.jpg,1,1,f,0,1,1,6,j,0,1.61618887076,03,02,60.0233448439,PLT_learning_3,A,2014_Mrz_10_1422,P19,
stim_fb/ques.jpg,stim_fb/posf.jpg,stim_fb/negf.jpg,stim_03/f.jpg,stim_03/e.jpg,1,3,f,0,2,2,46,f,1,1.13298649484,03,02,60.0233448439,PLT_learning_3,A,2014_Mrz_10_1422,P19,
stim_fb/ques.jpg,stim_fb/posf.jpg,stim_fb/negf.jpg,stim_03/f.jpg,stim_03/e.jpg,1,3,f,0,3,3,48,j,0,1.04972402012,03,02,60.0233448439,PLT_learning_3,A,2014_Mrz_10_1422,P19,
stim_fb/ques.jpg,stim_fb/posf.jpg,stim_fb/negf.jpg,stim_03/c.jpg,stim_03/d.jpg,2,2,j,0,4,4,38,j,1,1.49956560327,03,02,60.0233448439,PLT_learning_3,A,2014_Mrz_10_1422,P19,
stim_fb/ques.jpg,stim_fb/negf.jpg,stim_fb/posf.jpg,stim_03/b.jpg,stim_03/a.jpg,1,1,f,0,5,5,0,f,1,1.34961095029,03,02,60.0233448439,PLT_learning_3,A,2014_Mrz_10_1422,P19,
stim_fb/ques.jpg,stim_fb/posf.jpg,stim_fb/negf.jpg,stim_03/a.jpg,stim_03/b.jpg,2,1,j,0,6,6,19,j,1,1.18299355042,03,02,60.0233448439,PLT_learning_3,A,2014_Mrz_10_1422,P19,
stim_fb/ques.jpg,stim_fb/posf.jpg,stim_fb/negf.jpg,stim_03/f.jpg,stim_03/e.jpg,1,3,f,0,7,7,47,f,1,0.866452354494,03,02,60.0233448439,PLT_learning_3,A,2014_Mrz_10_1422,P19,
stim_fb/ques.jpg,stim_fb/negf.jpg,stim_fb/posf.jpg,stim_03/f.jpg,stim_03/e.jpg,1,3,f,0,8,8,41,j,0,1.16632223216,03,02,60.0233448439,PLT_learning_3,A,2014_Mrz_10_1422,P19,
stim_fb/ques.jpg,stim_fb/negf.jpg,stim_fb/posf.jpg,stim_03/d.jpg,stim_03/c.jpg,1,2,f,0,9,9,26,f,1,1.36625970632,03,02,60.0233448439,PLT_learning_3,A,2014_Mrz_10_1422,P19,
stim_fb/ques.jpg,stim_fb/negf.jpg,stim_fb/posf.jpg,stim_03/b.jpg,stim_03/a.jpg,1,1,f,0,10,10,5,j,0,1.08301536981,03,02,60.0233448439,PLT_learning_3,A,2014_Mrz_10_1422,P19,
stim_fb/ques.jpg,stim_fb/negf.jpg,stim_fb/posf.jpg,stim_03/e.jpg,stim_03/f.jpg,2,3,j,0,11,11,54,f,0,0.849755842437,03,02,60.0233448439,PLT_learning_3,A,2014_Mrz_10_1422,P19,
stim_fb/ques.jpg,stim_fb/negf.jpg,stim_fb/posf.jpg,stim_03/c.jpg,stim_03/d.jpg,2,2,j,0,12,12,35,j,1,1.06636415666,03,02,60.0233448439,PLT_learning_3,A,2014_Mrz_10_1422,P19,
stim_fb/ques.jpg,stim_fb/negf.jpg,stim_fb/posf.jpg,stim_03/b.jpg,stim_03/a.jpg,1,1,f,0,13,13,1,f,1,0.94973373734,03,02,60.0233448439,PLT_learning_3,A,2014_Mrz_10_1422,P19,
stim_fb/ques.jpg,stim_fb/negf.jpg,stim_fb/posf.jpg,stim_03/c.jpg,stim_03/d.jpg,2,2,j,0,14,14,34,j,1,1.08303036519,03,02,60.0233448439,PLT_learning_3,A,2014_Mrz_10_1422,P19,
stim_fb/ques.jpg,stim_fb/negf.jpg,stim_fb/posf.jpg,stim_03/f.jpg,stim_03/e.jpg,1,3,f,0,15,15,40,f,1,1.43289177375,03,02,60.0233448439,PLT_learning_3,A,2014_Mrz_10_1422,P19,
stim_fb/ques.jpg,stim_fb/negf.jpg,stim_fb/posf.jpg,stim_03/f.jpg,stim_03/e.jpg,1,3,f,0,16,16,44,f,1,0.883129044142,03,02,60.0233448439,PLT_learning_3,A,2014_Mrz_10_1422,P19,
stim_fb/ques.jpg,stim_fb/negf.jpg,stim_fb/posf.jpg,stim_03/c.jpg,stim_03/d.jpg,2,2,j,0,17,17,30,j,1,0.783117092353,03,02,60.0233448439,PLT_learning_3,A,2014_Mrz_10_1422,P19,
stim_fb/ques.jpg,stim_fb/negf.jpg,stim_fb/posf.jpg,stim_03/f.jpg,stim_03/e.jpg,1,3,f,0,18,18,45,f,1,1.01638261366,03,02,60.0233448439,PLT_learning_3,A,2014_Mrz_10_1422,P19,
stim_fb/ques.jpg,stim_fb/posf.jpg,stim_fb/negf.jpg,stim_03/f.jpg,stim_03/e.jpg,1,3,f,0,19,19,49,f,1,0.899748651514,03,02,60.0233448439,PLT_learning_3,A,2014_Mrz_10_1422,P19,
stim_fb/ques.jpg,stim_fb/posf.jpg,stim_fb/negf.jpg,stim_03/e.jpg,stim_03/f.jpg,2,3,j,0,20,20,57,j,1,1.03307630168,03,02,60.0233448439,PLT_learning_3,A,2014_Mrz_10_1422,P19,
stim_fb/ques.jpg,stim_fb/negf.jpg,stim_fb/posf.jpg,stim_03/a.jpg,stim_03/b.jpg,2,1,j,0,21,21,17,j,1,1.14965547627,03,02,60.0233448439,PLT_learning_3,A,2014_Mrz_10_1422,P19,
stim_fb/ques.jpg,stim_fb/posf.jpg,stim_fb/negf.jpg,stim_03/b.jpg,stim_03/a.jpg,1,1,f,0,22,22,8,f,1,1.1829489673,03,02,60.0233448439,PLT_learning_3,A,2014_Mrz_10_1422,P19,
stim_fb/ques.jpg,stim_fb/negf.jpg,stim_fb/posf.jpg,stim_03/a.jpg,stim_03/b.jpg,2,1,j,0,23,23,15,j,1,1.11633796738,03,02,60.0233448439,PLT_learning_3,A,2014_Mrz_10_1422,P19,
stim_fb/ques.jpg,stim_fb/negf.jpg,stim_fb/posf.jpg,stim_03/a.jpg,stim_03/b.jpg,2,1,j,0,24,24,11,j,1,0.999723069751,03,02,60.0233448439,PLT_learning_3,A,2014_Mrz_10_1422,P19,
stim_fb/ques.jpg,stim_fb/posf.jpg,stim_fb/negf.jpg,stim_03/c.jpg,stim_03/d.jpg,2,2,j,0,25,25,39,j,1,0.949729310306,03,02,60.0233448439,PLT_learning_3,A,2014_Mrz_10_1422,P19,
stim_fb/ques.jpg,stim_fb/negf.jpg,stim_fb/posf.jpg,stim_03/a.jpg,stim_03/b.jpg,2,1,j,0,26,26,14,f,0,1.16630483079,03,02,60.0233448439,PLT_learning_3,A,2014_Mrz_10_1422,P19,
stim_fb/ques.jpg,stim_fb/negf.jpg,stim_fb/posf.jpg,stim_03/d.jpg,stim_03/c.jpg,1,2,f,0,27,27,23,f,1,1.29961247509,03,02,60.0233448439,PLT_learning_3,A,2014_Mrz_10_1422,P19,
stim_fb/ques.jpg,stim_fb/posf.jpg,stim_fb/negf.jpg,stim_03/d.jpg,stim_03/c.jpg,1,2,f,0,28,28,29,f,1,1.6329076022,03,02,60.0233448439,PLT_learning_3,A,2014_Mrz_10_1422,P19,
stim_fb/ques.jpg,stim_fb/negf.jpg,stim_fb/posf.jpg,stim_03/d.jpg,stim_03/c.jpg,1,2,f,0,29,29,21,j,0,1.38292150886,03,02,60.0233448439,PLT_learning_3,A,2014_Mrz_10_1422,P19,
stim_fb/ques.jpg,stim_fb/negf.jpg,stim_fb/posf.jpg,stim_03/a.jpg,stim_03/b.jpg,2,1,j,0,30,30,12,f,0,1.31629786242,03,02,60.0233448439,PLT_learning_3,A,2014_Mrz_10_1422,P19,
stim_fb/ques.jpg,stim_fb/negf.jpg,stim_fb/posf.jpg,stim_03/d.jpg,stim_03/c.jpg,1,2,f,0,31,31,20,f,1,1.11636127247,03,02,60.0233448439,PLT_learning_3,A,2014_Mrz_10_1422,P19,
stim_fb/ques.jpg,stim_fb/negf.jpg,stim_fb/posf.jpg,stim_03/a.jpg,stim_03/b.jpg,2,1,j,0,32,32,16,j,1,1.11639828573,03,02,60.0233448439,PLT_learning_3,A,2014_Mrz_10_1422,P19,
stim_fb/ques.jpg,stim_fb/posf.jpg,stim_fb/negf.jpg,stim_03/e.jpg,stim_03/f.jpg,2,3,j,0,33,33,59,f,0,0.799783953504,03,02,60.0233448439,PLT_learning_3,A,2014_Mrz_10_1422,P19,
stim_fb/ques.jpg,stim_fb/negf.jpg,stim_fb/posf.jpg,stim_03/c.jpg,stim_03/d.jpg,2,2,j,0,34,34,31,j,1,0.849750083082,03,02,60.0233448439,PLT_learning_3,A,2014_Mrz_10_1422,P19,
stim_fb/ques.jpg,stim_fb/posf.jpg,stim_fb/negf.jpg,stim_03/d.jpg,stim_03/c.jpg,1,2,f,0,35,35,27,f,1,0.733082256524,03,02,60.0233448439,PLT_learning_3,A,2014_Mrz_10_1422,P19,
stim_fb/ques.jpg,stim_fb/negf.jpg,stim_fb/posf.jpg,stim_03/d.jpg,stim_03/c.jpg,1,2,f,0,36,36,25,j,0,0.949717969038,03,02,60.0233448439,PLT_learning_3,A,2014_Mrz_10_1422,P19,
stim_fb/ques.jpg,stim_fb/negf.jpg,stim_fb/posf.jpg,stim_03/f.jpg,stim_03/e.jpg,1,3,f,0,37,37,43,f,1,1.24962628552,03,02,60.0233448439,PLT_learning_3,A,2014_Mrz_10_1422,P19,
stim_fb/ques.jpg,stim_fb/negf.jpg,stim_fb/posf.jpg,stim_03/c.jpg,stim_03/d.jpg,2,2,j,0,38,38,33,j,1,0.699871240066,03,02,60.0233448439,PLT_learning_3,A,2014_Mrz_10_1422,P19,
stim_fb/ques.jpg,stim_fb/posf.jpg,stim_fb/negf.jpg,stim_03/e.jpg,stim_03/f.jpg,2,3,j,0,39,39,58,f,0,0.866406267622,03,02,60.0233448439,PLT_learning_3,A,2014_Mrz_10_1422,P19,
stim_fb/ques.jpg,stim_fb/posf.jpg,stim_fb/negf.jpg,stim_03/b.jpg,stim_03/a.jpg,1,1,f,0,40,40,9,j,0,0.999765021316,03,02,60.0233448439,PLT_learning_3,A,2014_Mrz_10_1422,P19,
stim_fb/ques.jpg,stim_fb/posf.jpg,stim_fb/negf.jpg,stim_03/d.jpg,stim_03/c.jpg,1,2,f,0,41,41,28,f,1,1.19963281479,03,02,60.0233448439,PLT_learning_3,A,2014_Mrz_10_1422,P19,
stim_fb/ques.jpg,stim_fb/negf.jpg,stim_fb/posf.jpg,stim_03/a.jpg,stim_03/b.jpg,2,1,j,0,42,42,13,f,0,1.11635501086,03,02,60.0233448439,PLT_learning_3,A,2014_Mrz_10_1422,P19,
stim_fb/ques.jpg,stim_fb/negf.jpg,stim_fb/posf.jpg,stim_03/c.jpg,stim_03/d.jpg,2,2,j,0,43,43,32,j,1,0.733068394974,03,02,60.0233448439,PLT_learning_3,A,2014_Mrz_10_1422,P19,
stim_fb/ques.jpg,stim_fb/posf.jpg,stim_fb/negf.jpg,stim_03/a.jpg,stim_03/b.jpg,2,1,j,0,44,44,18,f,0,0.916455172517,03,02,60.0233448439,PLT_learning_3,A,2014_Mrz_10_1422,P19,
stim_fb/ques.jpg,stim_fb/negf.jpg,stim_fb/posf.jpg,stim_03/f.jpg,stim_03/e.jpg,1,3,f,0,45,45,42,j,0,0.93304651544,03,02,60.0233448439,PLT_learning_3,A,2014_Mrz_10_1422,P19,
stim_fb/ques.jpg,stim_fb/negf.jpg,stim_fb/posf.jpg,stim_03/c.jpg,stim_03/d.jpg,2,2,j,0,46,46,36,j,1,1.03305259359,03,02,60.0233448439,PLT_learning_3,A,2014_Mrz_10_1422,P19,
stim_fb/ques.jpg,stim_fb/negf.jpg,stim_fb/posf.jpg,stim_03/e.jpg,stim_03/f.jpg,2,3,j,0,47,47,51,f,0,0.983053246216,03,02,60.0233448439,PLT_learning_3,A,2014_Mrz_10_1422,P19,
stim_fb/ques.jpg,stim_fb/negf.jpg,stim_fb/posf.jpg,stim_03/e.jpg,stim_03/f.jpg,2,3,j,0,48,48,53,f,0,1.38291738859,03,02,60.0233448439,PLT_learning_3,A,2014_Mrz_10_1422,P19,
stim_fb/ques.jpg,stim_fb/posf.jpg,stim_fb/negf.jpg,stim_03/c.jpg,stim_03/d.jpg,2,2,j,0,49,49,37,j,1,1.14965073947,03,02,60.0233448439,PLT_learning_3,A,2014_Mrz_10_1422,P19,
stim_fb/ques.jpg,stim_fb/posf.jpg,stim_fb/negf.jpg,stim_03/e.jpg,stim_03/f.jpg,2,3,j,0,50,50,56,f,0,0.733119615642,03,02,60.0233448439,PLT_learning_3,A,2014_Mrz_10_1422,P19,
stim_fb/ques.jpg,stim_fb/negf.jpg,stim_fb/posf.jpg,stim_03/d.jpg,stim_03/c.jpg,1,2,f,0,51,51,24,f,1,0.799761598785,03,02,60.0233448439,PLT_learning_3,A,2014_Mrz_10_1422,P19,
stim_fb/ques.jpg,stim_fb/negf.jpg,stim_fb/posf.jpg,stim_03/a.jpg,stim_03/b.jpg,2,1,j,0,52,52,10,f,0,1.08301574875,03,02,60.0233448439,PLT_learning_3,A,2014_Mrz_10_1422,P19,
stim_fb/ques.jpg,stim_fb/negf.jpg,stim_fb/posf.jpg,stim_03/e.jpg,stim_03/f.jpg,2,3,j,0,53,53,52,f,0,1.116315348,03,02,60.0233448439,PLT_learning_3,A,2014_Mrz_10_1422,P19,
stim_fb/ques.jpg,stim_fb/negf.jpg,stim_fb/posf.jpg,stim_03/b.jpg,stim_03/a.jpg,1,1,f,0,54,54,2,j,0,0.799732137352,03,02,60.0233448439,PLT_learning_3,A,2014_Mrz_10_1422,P19,
stim_fb/ques.jpg,stim_fb/negf.jpg,stim_fb/posf.jpg,stim_03/b.jpg,stim_03/a.jpg,1,1,f,0,55,55,4,f,1,0.816444649288,03,02,60.0233448439,PLT_learning_3,A,2014_Mrz_10_1422,P19,
stim_fb/ques.jpg,stim_fb/negf.jpg,stim_fb/posf.jpg,stim_03/e.jpg,stim_03/f.jpg,2,3,j,0,56,56,50,j,1,0.883099339103,03,02,60.0233448439,PLT_learning_3,A,2014_Mrz_10_1422,P19,
stim_fb/ques.jpg,stim_fb/negf.jpg,stim_fb/posf.jpg,stim_03/d.jpg,stim_03/c.jpg,1,2,f,0,57,57,22,f,1,0.666471470139,03,02,60.0233448439,PLT_learning_3,A,2014_Mrz_10_1422,P19,
stim_fb/ques.jpg,stim_fb/negf.jpg,stim_fb/posf.jpg,stim_03/b.jpg,stim_03/a.jpg,1,1,f,0,58,58,3,j,0,1.21629978421,03,02,60.0233448439,PLT_learning_3,A,2014_Mrz_10_1422,P19,
stim_fb/ques.jpg,stim_fb/negf.jpg,stim_fb/posf.jpg,stim_03/b.jpg,stim_03/a.jpg,1,1,f,0,59,59,7,j,0,1.36627018744,03,02,60.0233448439,PLT_learning_3,A,2014_Mrz_10_1422,P19,
stim_fb/ques.jpg,stim_fb/negf.jpg,stim_fb/posf.jpg,stim_03/a.jpg,stim_03/b.jpg,2,1,j,1,0,60,10,f,0,1.06635322441,03,02,60.0233448439,PLT_learning_3,A,2014_Mrz_10_1422,P19,
stim_fb/ques.jpg,stim_fb/negf.jpg,stim_fb/posf.jpg,stim_03/f.jpg,stim_03/e.jpg,1,3,f,1,1,61,41,f,1,0.883075020489,03,02,60.0233448439,PLT_learning_3,A,2014_Mrz_10_1422,P19,
stim_fb/ques.jpg,stim_fb/negf.jpg,stim_fb/posf.jpg,stim_03/a.jpg,stim_03/b.jpg,2,1,j,1,2,62,17,f,0,0.933062876219,03,02,60.0233448439,PLT_learning_3,A,2014_Mrz_10_1422,P19,
stim_fb/ques.jpg,stim_fb/posf.jpg,stim_fb/negf.jpg,stim_03/c.jpg,stim_03/d.jpg,2,2,j,1,3,63,38,j,1,0.766509286396,03,02,60.0233448439,PLT_learning_3,A,2014_Mrz_10_1422,P19,
stim_fb/ques.jpg,stim_fb/negf.jpg,stim_fb/posf.jpg,stim_03/b.jpg,stim_03/a.jpg,1,1,f,1,4,64,4,f,1,0.599792861708,03,02,60.0233448439,PLT_learning_3,A,2014_Mrz_10_1422,P19,
stim_fb/ques.jpg,stim_fb/negf.jpg,stim_fb/posf.jpg,stim_03/c.jpg,stim_03/d.jpg,2,2,j,1,5,65,32,j,1,0.599857282276,03,02,60.0233448439,PLT_learning_3,A,2014_Mrz_10_1422,P19,
stim_fb/ques.jpg,stim_fb/negf.jpg,stim_fb/posf.jpg,stim_03/b.jpg,stim_03/a.jpg,1,1,f,1,6,66,1,f,1,0.649833547116,03,02,60.0233448439,PLT_learning_3,A,2014_Mrz_10_1422,P19,
stim_fb/ques.jpg,stim_fb/negf.jpg,stim_fb/posf.jpg,stim_03/a.jpg,stim_03/b.jpg,2,1,j,1,7,67,12,f,0,0.966394336885,03,02,60.0233448439,PLT_learning_3,A,2014_Mrz_10_1422,P19,
stim_fb/ques.jpg,stim_fb/posf.jpg,stim_fb/negf.jpg,stim_03/d.jpg,stim_03/c.jpg,1,2,f,1,8,68,28,f,1,0.899744988383,03,02,60.0233448439,PLT_learning_3,A,2014_Mrz_10_1422,P19,
stim_fb/ques.jpg,stim_fb/posf.jpg,stim_fb/negf.jpg,stim_03/b.jpg,stim_03/a.jpg,1,1,f,1,9,69,9,j,0,0.933084488087,03,02,60.0233448439,PLT_learning_3,A,2014_Mrz_10_1422,P19,
stim_fb/ques.jpg,stim_fb/negf.jpg,stim_fb/posf.jpg,stim_03/f.jpg,stim_03/e.jpg,1,3,f,1,10,70,40,f,1,1.14964087488,03,02,60.0233448439,PLT_learning_3,A,2014_Mrz_10_1422,P19,
stim_fb/ques.jpg,stim_fb/negf.jpg,stim_fb/posf.jpg,stim_03/e.jpg,stim_03/f.jpg,2,3,j,1,11,71,52,f,0,1.08303648544,03,02,60.0233448439,PLT_learning_3,A,2014_Mrz_10_1422,P19,
stim_fb/ques.jpg,stim_fb/negf.jpg,stim_fb/posf.jpg,stim_03/b.jpg,stim_03/a.jpg,1,1,f,1,12,72,3,j,0,0.999721776528,03,02,60.0233448439,PLT_learning_3,A,2014_Mrz_10_1422,P19,
stim_fb/ques.jpg,stim_fb/negf.jpg,stim_fb/posf.jpg,stim_03/f.jpg,stim_03/e.jpg,1,3,f,1,13,73,44,f,1,0.766333362907,03,02,60.0233448439,PLT_learning_3,A,2014_Mrz_10_1422,P19,
stim_fb/ques.jpg,stim_fb/negf.jpg,stim_fb/posf.jpg,stim_03/b.jpg,stim_03/a.jpg,1,1,f,1,14,74,2,f,1,0.883092891031,03,02,60.0233448439,PLT_learning_3,A,2014_Mrz_10_1422,P19,
stim_fb/ques.jpg,stim_fb/negf.jpg,stim_fb/posf.jpg,stim_03/c.jpg,stim_03/d.jpg,2,2,j,1,15,75,34,j,1,0.566542711709,03,02,60.0233448439,PLT_learning_3,A,2014_Mrz_10_1422,P19,
stim_fb/ques.jpg,stim_fb/negf.jpg,stim_fb/posf.jpg,stim_03/a.jpg,stim_03/b.jpg,2,1,j,1,16,76,16,f,0,0.99984244329,03,02,60.0233448439,PLT_learning_3,A,2014_Mrz_10_1422,P19,
stim_fb/ques.jpg,stim_fb/posf.jpg,stim_fb/negf.jpg,stim_03/d.jpg,stim_03/c.jpg,1,2,f,1,17,77,29,f,1,1.19966099202,03,02,60.0233448439,PLT_learning_3,A,2014_Mrz_10_1422,P19,
stim_fb/ques.jpg,stim_fb/negf.jpg,stim_fb/posf.jpg,stim_03/e.jpg,stim_03/f.jpg,2,3,j,1,18,78,51,j,1,1.4495798197,03,02,60.0233448439,PLT_learning_3,A,2014_Mrz_10_1422,P19,
stim_fb/ques.jpg,stim_fb/negf.jpg,stim_fb/posf.jpg,stim_03/d.jpg,stim_03/c.jpg,1,2,f,1,19,79,21,f,1,1.01637244833,03,02,60.0233448439,PLT_learning_3,A,2014_Mrz_10_1422,P19,
stim_fb/ques.jpg,stim_fb/negf.jpg,stim_fb/posf.jpg,stim_03/b.jpg,stim_03/a.jpg,1,1,f,1,20,80,5,j,0,1.18299801054,03,02,60.0233448439,PLT_learning_3,A,2014_Mrz_10_1422,P19,
stim_fb/ques.jpg,stim_fb/negf.jpg,stim_fb/posf.jpg,stim_03/f.jpg,stim_03/e.jpg,1,3,f,1,21,81,43,j,0,1.13300970669,03,02,60.0233448439,PLT_learning_3,A,2014_Mrz_10_1422,P19,
stim_fb/ques.jpg,stim_fb/posf.jpg,stim_fb/negf.jpg,stim_03/f.jpg,stim_03/e.jpg,1,3,f,1,22,82,49,f,1,0.866425001316,03,02,60.0233448439,PLT_learning_3,A,2014_Mrz_10_1422,P19,
stim_fb/ques.jpg,stim_fb/negf.jpg,stim_fb/posf.jpg,stim_03/b.jpg,stim_03/a.jpg,1,1,f,1,23,83,6,j,0,0.549870560372,03,02,60.0233448439,PLT_learning_3,A,2014_Mrz_10_1422,P19,
stim_fb/ques.jpg,stim_fb/negf.jpg,stim_fb/posf.jpg,stim_03/a.jpg,stim_03/b.jpg,2,1,j,1,24,84,11,f,0,0.649853246216,03,02,60.0233448439,PLT_learning_3,A,2014_Mrz_10_1422,P19,
stim_fb/ques.jpg,stim_fb/posf.jpg,stim_fb/negf.jpg,stim_03/e.jpg,stim_03/f.jpg,2,3,j,1,25,85,59,j,1,0.633187356486,03,02,60.0233448439,PLT_learning_3,A,2014_Mrz_10_1422,P19,
stim_fb/ques.jpg,stim_fb/negf.jpg,stim_fb/posf.jpg,stim_03/a.jpg,stim_03/b.jpg,2,1,j,1,26,86,13,f,0,0.64981720739,03,02,60.0233448439,PLT_learning_3,A,2014_Mrz_10_1422,P19,
stim_fb/ques.jpg,stim_fb/negf.jpg,stim_fb/posf.jpg,stim_03/f.jpg,stim_03/e.jpg,1,3,f,1,27,87,42,j,0,0.633181416681,03,02,60.0233448439,PLT_learning_3,A,2014_Mrz_10_1422,P19,
stim_fb/ques.jpg,stim_fb/negf.jpg,stim_fb/posf.jpg,stim_03/e.jpg,stim_03/f.jpg,2,3,j,1,28,88,55,f,0,0.799803514259,03,02,60.0233448439,PLT_learning_3,A,2014_Mrz_10_1422,P19,
stim_fb/ques.jpg,stim_fb/posf.jpg,stim_fb/negf.jpg,stim_03/a.jpg,stim_03/b.jpg,2,1,j,1,29,89,18,j,1,0.766456369501,03,02,60.0233448439,PLT_learning_3,A,2014_Mrz_10_1422,P19,
stim_fb/ques.jpg,stim_fb/posf.jpg,stim_fb/negf.jpg,stim_03/e.jpg,stim_03/f.jpg,2,3,j,1,30,90,57,f,0,0.899747207916,03,02,60.0233448439,PLT_learning_3,A,2014_Mrz_10_1422,P19,
stim_fb/ques.jpg,stim_fb/negf.jpg,stim_fb/posf.jpg,stim_03/d.jpg,stim_03/c.jpg,1,2,f,1,31,91,22,f,1,0.849779619702,03,02,60.0233448439,PLT_learning_3,A,2014_Mrz_10_1422,P19,
stim_fb/ques.jpg,stim_fb/negf.jpg,stim_fb/posf.jpg,stim_03/d.jpg,stim_03/c.jpg,1,2,f,1,32,92,24,f,1,0.583196772956,03,02,60.0233448439,PLT_learning_3,A,2014_Mrz_10_1422,P19,
stim_fb/ques.jpg,stim_fb/negf.jpg,stim_fb/posf.jpg,stim_03/c.jpg,stim_03/d.jpg,2,2,j,1,33,93,33,j,1,0.683163681476,03,02,60.0233448439,PLT_learning_3,A,2014_Mrz_10_1422,P19,
stim_fb/ques.jpg,stim_fb/posf.jpg,stim_fb/negf.jpg,stim_03/b.jpg,stim_03/a.jpg,1,1,f,1,34,94,8,f,1,0.633173714483,03,02,60.0233448439,PLT_learning_3,A,2014_Mrz_10_1422,P19,
stim_fb/ques.jpg,stim_fb/posf.jpg,stim_fb/negf.jpg,stim_03/a.jpg,stim_03/b.jpg,2,1,j,1,35,95,19,f,0,0.983068686702,03,02,60.0233448439,PLT_learning_3,A,2014_Mrz_10_1422,P19,
stim_fb/ques.jpg,stim_fb/negf.jpg,stim_fb/posf.jpg,stim_03/c.jpg,stim_03/d.jpg,2,2,j,1,36,96,30,j,1,0.866430210299,03,02,60.0233448439,PLT_learning_3,A,2014_Mrz_10_1422,P19,
stim_fb/ques.jpg,stim_fb/posf.jpg,stim_fb/negf.jpg,stim_03/c.jpg,stim_03/d.jpg,2,2,j,1,37,97,39,j,1,0.683161314577,03,02,60.0233448439,PLT_learning_3,A,2014_Mrz_10_1422,P19,
stim_fb/ques.jpg,stim_fb/negf.jpg,stim_fb/posf.jpg,stim_03/e.jpg,stim_03/f.jpg,2,3,j,1,38,98,53,f,0,0.716464988985,03,02,60.0233448439,PLT_learning_3,A,2014_Mrz_10_1422,P19,
stim_fb/ques.jpg,stim_fb/posf.jpg,stim_fb/negf.jpg,stim_03/f.jpg,stim_03/e.jpg,1,3,f,1,39,99,47,j,0,0.633185714393,03,02,60.0233448439,PLT_learning_3,A,2014_Mrz_10_1422,P19,
stim_fb/ques.jpg,stim_fb/posf.jpg,stim_fb/negf.jpg,stim_03/d.jpg,stim_03/c.jpg,1,2,f,1,40,100,27,f,1,0.849772308479,03,02,60.0233448439,PLT_learning_3,A,2014_Mrz_10_1422,P19,
stim_fb/ques.jpg,stim_fb/posf.jpg,stim_fb/negf.jpg,stim_03/f.jpg,stim_03/e.jpg,1,3,f,1,41,101,46,j,0,0.716484315156,03,02,60.0233448439,PLT_learning_3,A,2014_Mrz_10_1422,P19,
stim_fb/ques.jpg,stim_fb/negf.jpg,stim_fb/posf.jpg,stim_03/a.jpg,stim_03/b.jpg,2,1,j,1,42,102,14,f,0,1.06643362681,03,02,60.0233448439,PLT_learning_3,A,2014_Mrz_10_1422,P19,
stim_fb/ques.jpg,stim_fb/negf.jpg,stim_fb/posf.jpg,stim_03/c.jpg,stim_03/d.jpg,2,2,j,1,43,103,31,j,1,0.616430923076,03,02,60.0233448439,PLT_learning_3,A,2014_Mrz_10_1422,P19,
stim_fb/ques.jpg,stim_fb/negf.jpg,stim_fb/posf.jpg,stim_03/d.jpg,stim_03/c.jpg,1,2,f,1,44,104,20,f,1,0.699797427087,03,02,60.0233448439,PLT_learning_3,A,2014_Mrz_10_1422,P19,
stim_fb/ques.jpg,stim_fb/posf.jpg,stim_fb/negf.jpg,stim_03/e.jpg,stim_03/f.jpg,2,3,j,1,45,105,56,f,0,0.933058241667,03,02,60.0233448439,PLT_learning_3,A,2014_Mrz_10_1422,P19,
stim_fb/ques.jpg,stim_fb/negf.jpg,stim_fb/posf.jpg,stim_03/d.jpg,stim_03/c.jpg,1,2,f,1,46,106,23,f,1,0.733154977782,03,02,60.0233448439,PLT_learning_3,A,2014_Mrz_10_1422,P19,
stim_fb/ques.jpg,stim_fb/negf.jpg,stim_fb/posf.jpg,stim_03/e.jpg,stim_03/f.jpg,2,3,j,1,47,107,50,f,0,0.716480423456,03,02,60.0233448439,PLT_learning_3,A,2014_Mrz_10_1422,P19,
stim_fb/ques.jpg,stim_fb/negf.jpg,stim_fb/posf.jpg,stim_03/a.jpg,stim_03/b.jpg,2,1,j,1,48,108,15,f,0,1.24964510643,03,02,60.0233448439,PLT_learning_3,A,2014_Mrz_10_1422,P19,
stim_fb/ques.jpg,stim_fb/negf.jpg,stim_fb/posf.jpg,stim_03/d.jpg,stim_03/c.jpg,1,2,f,1,49,109,26,f,1,0.833106533034,03,02,60.0233448439,PLT_learning_3,A,2014_Mrz_10_1422,P19,
stim_fb/ques.jpg,stim_fb/negf.jpg,stim_fb/posf.jpg,stim_03/e.jpg,stim_03/f.jpg,2,3,j,1,50,110,54,f,0,0.849757586785,03,02,60.0233448439,PLT_learning_3,A,2014_Mrz_10_1422,P19,
stim_fb/ques.jpg,stim_fb/posf.jpg,stim_fb/negf.jpg,stim_03/e.jpg,stim_03/f.jpg,2,3,j,1,51,111,58,j,1,1.1496639514,03,02,60.0233448439,PLT_learning_3,A,2014_Mrz_10_1422,P19,
stim_fb/ques.jpg,stim_fb/negf.jpg,stim_fb/posf.jpg,stim_03/c.jpg,stim_03/d.jpg,2,2,j,1,52,112,35,j,1,0.86643144638,03,02,60.0233448439,PLT_learning_3,A,2014_Mrz_10_1422,P19,
stim_fb/ques.jpg,stim_fb/posf.jpg,stim_fb/negf.jpg,stim_03/c.jpg,stim_03/d.jpg,2,2,j,1,53,113,37,j,1,0.73314705303,03,02,60.0233448439,PLT_learning_3,A,2014_Mrz_10_1422,P19,
stim_fb/ques.jpg,stim_fb/negf.jpg,stim_fb/posf.jpg,stim_03/f.jpg,stim_03/e.jpg,1,3,f,1,54,114,45,j,0,1.26627528214,03,02,60.0233448439,PLT_learning_3,A,2014_Mrz_10_1422,P19,
stim_fb/ques.jpg,stim_fb/posf.jpg,stim_fb/negf.jpg,stim_03/f.jpg,stim_03/e.jpg,1,3,f,1,55,115,48,j,0,1.39959063165,03,02,60.0233448439,PLT_learning_3,A,2014_Mrz_10_1422,P19,
stim_fb/ques.jpg,stim_fb/negf.jpg,stim_fb/posf.jpg,stim_03/c.jpg,stim_03/d.jpg,2,2,j,1,56,116,36,j,1,0.816454679288,03,02,60.0233448439,PLT_learning_3,A,2014_Mrz_10_1422,P19,
stim_fb/ques.jpg,stim_fb/negf.jpg,stim_fb/posf.jpg,stim_03/b.jpg,stim_03/a.jpg,1,1,f,1,57,117,0,j,0,0.916389735416,03,02,60.0233448439,PLT_learning_3,A,2014_Mrz_10_1422,P19,
stim_fb/ques.jpg,stim_fb/negf.jpg,stim_fb/posf.jpg,stim_03/b.jpg,stim_03/a.jpg,1,1,f,1,58,118,7,f,1,0.88310499921,03,02,60.0233448439,PLT_learning_3,A,2014_Mrz_10_1422,P19,
stim_fb/ques.jpg,stim_fb/negf.jpg,stim_fb/posf.jpg,stim_03/d.jpg,stim_03/c.jpg,1,2,f,1,59,119,25,f,1,0.816439951579,03,02,60.0233448439,PLT_learning_3,A,2014_Mrz_10_1422,P19,
stim_fb/ques.jpg,stim_fb/negf.jpg,stim_fb/posf.jpg,stim_03/f.jpg,stim_03/e.jpg,1,3,f,2,0,120,40,j,0,1.18294336434,03,02,60.0233448439,PLT_learning_3,A,2014_Mrz_10_1422,P19,
stim_fb/ques.jpg,stim_fb/posf.jpg,stim_fb/negf.jpg,stim_03/f.jpg,stim_03/e.jpg,1,3,f,2,1,121,46,j,0,1.19963545838,03,02,60.0233448439,PLT_learning_3,A,2014_Mrz_10_1422,P19,
stim_fb/ques.jpg,stim_fb/posf.jpg,stim_fb/negf.jpg,stim_03/e.jpg,stim_03/f.jpg,2,3,j,2,2,122,56,f,0,1.09964714852,03,02,60.0233448439,PLT_learning_3,A,2014_Mrz_10_1422,P19,
stim_fb/ques.jpg,stim_fb/posf.jpg,stim_fb/negf.jpg,stim_03/f.jpg,stim_03/e.jpg,1,3,f,2,3,123,48,j,0,1.14970213758,03,02,60.0233448439,PLT_learning_3,A,2014_Mrz_10_1422,P19,
stim_fb/ques.jpg,stim_fb/negf.jpg,stim_fb/posf.jpg,stim_03/b.jpg,stim_03/a.jpg,1,1,f,2,4,124,5,j,0,1.21631583221,03,02,60.0233448439,PLT_learning_3,A,2014_Mrz_10_1422,P19,
stim_fb/ques.jpg,stim_fb/negf.jpg,stim_fb/posf.jpg,stim_03/c.jpg,stim_03/d.jpg,2,2,j,2,5,125,34,j,1,0.816434962143,03,02,60.0233448439,PLT_learning_3,A,2014_Mrz_10_1422,P19,
stim_fb/ques.jpg,stim_fb/negf.jpg,stim_fb/posf.jpg,stim_03/e.jpg,stim_03/f.jpg,2,3,j,2,6,126,51,f,0,1.04971035105,03,02,60.0233448439,PLT_learning_3,A,2014_Mrz_10_1422,P19,
stim_fb/ques.jpg,stim_fb/negf.jpg,stim_fb/posf.jpg,stim_03/a.jpg,stim_03/b.jpg,2,1,j,2,7,127,16,j,1,0.883089606845,03,02,60.0233448439,PLT_learning_3,A,2014_Mrz_10_1422,P19,
stim_fb/ques.jpg,stim_fb/negf.jpg,stim_fb/posf.jpg,stim_03/a.jpg,stim_03/b.jpg,2,1,j,2,8,128,17,f,0,1.01641459237,03,02,60.0233448439,PLT_learning_3,A,2014_Mrz_10_1422,P19,
stim_fb/ques.jpg,stim_fb/negf.jpg,stim_fb/posf.jpg,stim_03/d.jpg,stim_03/c.jpg,1,2,f,2,9,129,22,f,1,0.949717102879,03,02,60.0233448439,PLT_learning_3,A,2014_Mrz_10_1422,P19,
stim_fb/ques.jpg,stim_fb/negf.jpg,stim_fb/posf.jpg,stim_03/a.jpg,stim_03/b.jpg,2,1,j,2,10,130,11,f,0,1.03322809001,03,02,60.0233448439,PLT_learning_3,A,2014_Mrz_10_1422,P19,
stim_fb/ques.jpg,stim_fb/posf.jpg,stim_fb/negf.jpg,stim_03/d.jpg,stim_03/c.jpg,1,2,f,2,11,131,29,f,1,0.799783523432,03,02,60.0233448439,PLT_learning_3,A,2014_Mrz_10_1422,P19,
stim_fb/ques.jpg,stim_fb/negf.jpg,stim_fb/posf.jpg,stim_03/f.jpg,stim_03/e.jpg,1,3,f,2,12,132,45,j,0,0.999721319389,03,02,60.0233448439,PLT_learning_3,A,2014_Mrz_10_1422,P19,
stim_fb/ques.jpg,stim_fb/negf.jpg,stim_fb/posf.jpg,stim_03/b.jpg,stim_03/a.jpg,1,1,f,2,13,133,1,f,1,0.599853754483,03,02,60.0233448439,PLT_learning_3,A,2014_Mrz_10_1422,P19,
stim_fb/ques.jpg,stim_fb/negf.jpg,stim_fb/posf.jpg,stim_03/d.jpg,stim_03/c.jpg,1,2,f,2,14,134,21,f,1,0.849779349027,03,02,60.0233448439,PLT_learning_3,A,2014_Mrz_10_1422,P19,
stim_fb/ques.jpg,stim_fb/negf.jpg,stim_fb/posf.jpg,stim_03/f.jpg,stim_03/e.jpg,1,3,f,2,15,135,42,j,0,1.08305279208,03,02,60.0233448439,PLT_learning_3,A,2014_Mrz_10_1422,P19,
stim_fb/ques.jpg,stim_fb/negf.jpg,stim_fb/posf.jpg,stim_03/a.jpg,stim_03/b.jpg,2,1,j,2,16,136,12,f,0,0.649839291434,03,02,60.0233448439,PLT_learning_3,A,2014_Mrz_10_1422,P19,
stim_fb/ques.jpg,stim_fb/posf.jpg,stim_fb/negf.jpg,stim_03/d.jpg,stim_03/c.jpg,1,2,f,2,17,137,27,f,1,0.899722621635,03,02,60.0233448439,PLT_learning_3,A,2014_Mrz_10_1422,P19,
stim_fb/ques.jpg,stim_fb/negf.jpg,stim_fb/posf.jpg,stim_03/e.jpg,stim_03/f.jpg,2,3,j,2,18,138,50,f,0,0.866453560499,03,02,60.0233448439,PLT_learning_3,A,2014_Mrz_10_1422,P19,
stim_fb/ques.jpg,stim_fb/negf.jpg,stim_fb/posf.jpg,stim_03/b.jpg,stim_03/a.jpg,1,1,f,2,19,139,2,j,0,0.849673166367,03,02,60.0233448439,PLT_learning_3,A,2014_Mrz_10_1422,P19,
stim_fb/ques.jpg,stim_fb/negf.jpg,stim_fb/posf.jpg,stim_03/c.jpg,stim_03/d.jpg,2,2,j,2,20,140,36,j,1,0.749790786536,03,02,60.0233448439,PLT_learning_3,A,2014_Mrz_10_1422,P19,
stim_fb/ques.jpg,stim_fb/posf.jpg,stim_fb/negf.jpg,stim_03/b.jpg,stim_03/a.jpg,1,1,f,2,21,141,9,j,0,0.916374243803,03,02,60.0233448439,PLT_learning_3,A,2014_Mrz_10_1422,P19,
stim_fb/ques.jpg,stim_fb/negf.jpg,stim_fb/posf.jpg,stim_03/e.jpg,stim_03/f.jpg,2,3,j,2,22,142,55,f,0,0.833117326937,03,02,60.0233448439,PLT_learning_3,A,2014_Mrz_10_1422,P19,
stim_fb/ques.jpg,stim_fb/negf.jpg,stim_fb/posf.jpg,stim_03/a.jpg,stim_03/b.jpg,2,1,j,2,23,143,15,f,0,0.983032635845,03,02,60.0233448439,PLT_learning_3,A,2014_Mrz_10_1422,P19,
stim_fb/ques.jpg,stim_fb/negf.jpg,stim_fb/posf.jpg,stim_03/d.jpg,stim_03/c.jpg,1,2,f,2,24,144,23,f,1,0.916419260005,03,02,60.0233448439,PLT_learning_3,A,2014_Mrz_10_1422,P19,
stim_fb/ques.jpg,stim_fb/posf.jpg,stim_fb/negf.jpg,stim_03/c.jpg,stim_03/d.jpg,2,2,j,2,25,145,39,j,1,0.733145543267,03,02,60.0233448439,PLT_learning_3,A,2014_Mrz_10_1422,P19,
stim_fb/ques.jpg,stim_fb/negf.jpg,stim_fb/posf.jpg,stim_03/b.jpg,stim_03/a.jpg,1,1,f,2,26,146,6,f,1,0.666515148006,03,02,60.0233448439,PLT_learning_3,A,2014_Mrz_10_1422,P19,
stim_fb/ques.jpg,stim_fb/negf.jpg,stim_fb/posf.jpg,stim_03/c.jpg,stim_03/d.jpg,2,2,j,2,27,147,33,j,1,0.633141522244,03,02,60.0233448439,PLT_learning_3,A,2014_Mrz_10_1422,P19,
stim_fb/ques.jpg,stim_fb/negf.jpg,stim_fb/posf.jpg,stim_03/b.jpg,stim_03/a.jpg,1,1,f,2,28,148,4,j,0,0.99970032105,03,02,60.0233448439,PLT_learning_3,A,2014_Mrz_10_1422,P19,
stim_fb/ques.jpg,stim_fb/negf.jpg,stim_fb/posf.jpg,stim_03/a.jpg,stim_03/b.jpg,2,1,j,2,29,149,14,f,0,0.933057760468,03,02,60.0233448439,PLT_learning_3,A,2014_Mrz_10_1422,P19,
stim_fb/ques.jpg,stim_fb/posf.jpg,stim_fb/negf.jpg,stim_03/c.jpg,stim_03/d.jpg,2,2,j,2,30,150,38,j,1,0.683161985248,03,02,60.0233448439,PLT_learning_3,A,2014_Mrz_10_1422,P19,
stim_fb/ques.jpg,stim_fb/negf.jpg,stim_fb/posf.jpg,stim_03/d.jpg,stim_03/c.jpg,1,2,f,2,31,151,24,f,1,0.716475003947,03,02,60.0233448439,PLT_learning_3,A,2014_Mrz_10_1422,P19,
stim_fb/ques.jpg,stim_fb/posf.jpg,stim_fb/negf.jpg,stim_03/c.jpg,stim_03/d.jpg,2,2,j,2,32,152,37,j,1,0.599876175367,03,02,60.0233448439,PLT_learning_3,A,2014_Mrz_10_1422,P19,
stim_fb/ques.jpg,stim_fb/negf.jpg,stim_fb/posf.jpg,stim_03/a.jpg,stim_03/b.jpg,2,1,j,2,33,153,13,f,0,1.04972091338,03,02,60.0233448439,PLT_learning_3,A,2014_Mrz_10_1422,P19,
stim_fb/ques.jpg,stim_fb/posf.jpg,stim_fb/negf.jpg,stim_03/e.jpg,stim_03/f.jpg,2,3,j,2,34,154,58,f,0,0.833133002007,03,02,60.0233448439,PLT_learning_3,A,2014_Mrz_10_1422,P19,
stim_fb/ques.jpg,stim_fb/negf.jpg,stim_fb/posf.jpg,stim_03/c.jpg,stim_03/d.jpg,2,2,j,2,35,155,35,j,1,0.649842686897,03,02,60.0233448439,PLT_learning_3,A,2014_Mrz_10_1422,P19,
stim_fb/ques.jpg,stim_fb/negf.jpg,stim_fb/posf.jpg,stim_03/a.jpg,stim_03/b.jpg,2,1,j,2,36,156,10,f,0,1.01638284524,03,02,60.0233448439,PLT_learning_3,A,2014_Mrz_10_1422,P19,
stim_fb/ques.jpg,stim_fb/negf.jpg,stim_fb/posf.jpg,stim_03/d.jpg,stim_03/c.jpg,1,2,f,2,37,157,25,f,1,0.966510726987,03,02,60.0233448439,PLT_learning_3,A,2014_Mrz_10_1422,P19,
stim_fb/ques.jpg,stim_fb/posf.jpg,stim_fb/negf.jpg,stim_03/b.jpg,stim_03/a.jpg,1,1,f,2,38,158,8,j,0,0.8664372719,03,02,60.0233448439,PLT_learning_3,A,2014_Mrz_10_1422,P19,
stim_fb/ques.jpg,stim_fb/negf.jpg,stim_fb/posf.jpg,stim_03/e.jpg,stim_03/f.jpg,2,3,j,2,39,159,54,f,0,1.04969848648,03,02,60.0233448439,PLT_learning_3,A,2014_Mrz_10_1422,P19,
stim_fb/ques.jpg,stim_fb/negf.jpg,stim_fb/posf.jpg,stim_03/c.jpg,stim_03/d.jpg,2,2,j,2,40,160,30,j,1,0.68316682431,03,02,60.0233448439,PLT_learning_3,A,2014_Mrz_10_1422,P19,
stim_fb/ques.jpg,stim_fb/negf.jpg,stim_fb/posf.jpg,stim_03/c.jpg,stim_03/d.jpg,2,2,j,2,41,161,31,j,1,0.633122962985,03,02,60.0233448439,PLT_learning_3,A,2014_Mrz_10_1422,P19,
stim_fb/ques.jpg,stim_fb/negf.jpg,stim_fb/posf.jpg,stim_03/b.jpg,stim_03/a.jpg,1,1,f,2,42,162,0,j,0,0.933065919805,03,02,60.0233448439,PLT_learning_3,A,2014_Mrz_10_1422,P19,
stim_fb/ques.jpg,stim_fb/negf.jpg,stim_fb/posf.jpg,stim_03/c.jpg,stim_03/d.jpg,2,2,j,2,43,163,32,j,1,0.599842521485,03,02,60.0233448439,PLT_learning_3,A,2014_Mrz_10_1422,P19,
stim_fb/ques.jpg,stim_fb/posf.jpg,stim_fb/negf.jpg,stim_03/a.jpg,stim_03/b.jpg,2,1,j,2,44,164,18,f,0,0.966422141187,03,02,60.0233448439,PLT_learning_3,A,2014_Mrz_10_1422,P19,
stim_fb/ques.jpg,stim_fb/negf.jpg,stim_fb/posf.jpg,stim_03/d.jpg,stim_03/c.jpg,1,2,f,2,45,165,26,f,1,1.09969597823,03,02,60.0233448439,PLT_learning_3,A,2014_Mrz_10_1422,P19,
stim_fb/ques.jpg,stim_fb/posf.jpg,stim_fb/negf.jpg,stim_03/f.jpg,stim_03/e.jpg,1,3,f,2,46,166,47,j,0,0.866397542876,03,02,60.0233448439,PLT_learning_3,A,2014_Mrz_10_1422,P19,
stim_fb/ques.jpg,stim_fb/posf.jpg,stim_fb/negf.jpg,stim_03/f.jpg,stim_03/e.jpg,1,3,f,2,47,167,49,j,0,0.716468883693,03,02,60.0233448439,PLT_learning_3,A,2014_Mrz_10_1422,P19,
stim_fb/ques.jpg,stim_fb/negf.jpg,stim_fb/posf.jpg,stim_03/b.jpg,stim_03/a.jpg,1,1,f,2,48,168,3,j,0,0.866404799964,03,02,60.0233448439,PLT_learning_3,A,2014_Mrz_10_1422,P19,
stim_fb/ques.jpg,stim_fb/negf.jpg,stim_fb/posf.jpg,stim_03/e.jpg,stim_03/f.jpg,2,3,j,2,49,169,52,f,0,1.09963243885,03,02,60.0233448439,PLT_learning_3,A,2014_Mrz_10_1422,P19,
stim_fb/ques.jpg,stim_fb/posf.jpg,stim_fb/negf.jpg,stim_03/d.jpg,stim_03/c.jpg,1,2,f,2,50,170,28,f,1,0.899752383817,03,02,60.0233448439,PLT_learning_3,A,2014_Mrz_10_1422,P19,
stim_fb/ques.jpg,stim_fb/negf.jpg,stim_fb/posf.jpg,stim_03/f.jpg,stim_03/e.jpg,1,3,f,2,51,171,44,j,0,0.833098376704,03,02,60.0233448439,PLT_learning_3,A,2014_Mrz_10_1422,P19,
stim_fb/ques.jpg,stim_fb/posf.jpg,stim_fb/negf.jpg,stim_03/e.jpg,stim_03/f.jpg,2,3,j,2,52,172,57,f,0,0.549848864294,03,02,60.0233448439,PLT_learning_3,A,2014_Mrz_10_1422,P19,
stim_fb/ques.jpg,stim_fb/posf.jpg,stim_fb/negf.jpg,stim_03/a.jpg,stim_03/b.jpg,2,1,j,2,53,173,19,f,0,0.716450050752,03,02,60.0233448439,PLT_learning_3,A,2014_Mrz_10_1422,P19,
stim_fb/ques.jpg,stim_fb/negf.jpg,stim_fb/posf.jpg,stim_03/f.jpg,stim_03/e.jpg,1,3,f,2,54,174,43,j,0,0.799807682649,03,02,60.0233448439,PLT_learning_3,A,2014_Mrz_10_1422,P19,
stim_fb/ques.jpg,stim_fb/negf.jpg,stim_fb/posf.jpg,stim_03/f.jpg,stim_03/e.jpg,1,3,f,2,55,175,41,j,0,0.883073321253,03,02,60.0233448439,PLT_learning_3,A,2014_Mrz_10_1422,P19,
stim_fb/ques.jpg,stim_fb/posf.jpg,stim_fb/negf.jpg,stim_03/e.jpg,stim_03/f.jpg,2,3,j,2,56,176,59,f,0,0.666490769242,03,02,60.0233448439,PLT_learning_3,A,2014_Mrz_10_1422,P19,
stim_fb/ques.jpg,stim_fb/negf.jpg,stim_fb/posf.jpg,stim_03/e.jpg,stim_03/f.jpg,2,3,j,2,57,177,53,f,0,1.04970456162,03,02,60.0233448439,PLT_learning_3,A,2014_Mrz_10_1422,P19,
stim_fb/ques.jpg,stim_fb/negf.jpg,stim_fb/posf.jpg,stim_03/b.jpg,stim_03/a.jpg,1,1,f,2,58,178,7,j,0,0.866409299178,03,02,60.0233448439,PLT_learning_3,A,2014_Mrz_10_1422,P19,
stim_fb/ques.jpg,stim_fb/negf.jpg,stim_fb/posf.jpg,stim_03/d.jpg,stim_03/c.jpg,1,2,f,2,59,179,20,f,1,0.766481827956,03,02,60.0233448439,PLT_learning_3,A,2014_Mrz_10_1422,P19,
stim_fb/ques.jpg,stim_fb/posf.jpg,stim_fb/negf.jpg,stim_03/e.jpg,stim_03/f.jpg,2,3,j,3,0,180,56,f,0,0.866441076383,03,02,60.0233448439,PLT_learning_3,A,2014_Mrz_10_1422,P19,
stim_fb/ques.jpg,stim_fb/negf.jpg,stim_fb/posf.jpg,stim_03/e.jpg,stim_03/f.jpg,2,3,j,3,1,181,52,f,0,0.666497927084,03,02,60.0233448439,PLT_learning_3,A,2014_Mrz_10_1422,P19,
stim_fb/ques.jpg,stim_fb/negf.jpg,stim_fb/posf.jpg,stim_03/c.jpg,stim_03/d.jpg,2,2,j,3,2,182,34,j,1,0.699793998541,03,02,60.0233448439,PLT_learning_3,A,2014_Mrz_10_1422,P19,
stim_fb/ques.jpg,stim_fb/negf.jpg,stim_fb/posf.jpg,stim_03/a.jpg,stim_03/b.jpg,2,1,j,3,3,183,13,f,0,0.849747340245,03,02,60.0233448439,PLT_learning_3,A,2014_Mrz_10_1422,P19,
stim_fb/ques.jpg,stim_fb/negf.jpg,stim_fb/posf.jpg,stim_03/f.jpg,stim_03/e.jpg,1,3,f,3,4,184,42,j,0,0.666476570853,03,02,60.0233448439,PLT_learning_3,A,2014_Mrz_10_1422,P19,
stim_fb/ques.jpg,stim_fb/negf.jpg,stim_fb/posf.jpg,stim_03/d.jpg,stim_03/c.jpg,1,2,f,3,5,185,26,f,1,0.916415596875,03,02,60.0233448439,PLT_learning_3,A,2014_Mrz_10_1422,P19,
stim_fb/ques.jpg,stim_fb/negf.jpg,stim_fb/posf.jpg,stim_03/d.jpg,stim_03/c.jpg,1,2,f,3,6,186,24,j,0,0.866446423711,03,02,60.0233448439,PLT_learning_3,A,2014_Mrz_10_1422,P19,
stim_fb/ques.jpg,stim_fb/negf.jpg,stim_fb/posf.jpg,stim_03/e.jpg,stim_03/f.jpg,2,3,j,3,7,187,50,f,0,0.683165076955,03,02,60.0233448439,PLT_learning_3,A,2014_Mrz_10_1422,P19,
stim_fb/ques.jpg,stim_fb/negf.jpg,stim_fb/posf.jpg,stim_03/f.jpg,stim_03/e.jpg,1,3,f,3,8,188,44,j,0,0.683167125059,03,02,60.0233448439,PLT_learning_3,A,2014_Mrz_10_1422,P19,
stim_fb/ques.jpg,stim_fb/negf.jpg,stim_fb/posf.jpg,stim_03/d.jpg,stim_03/c.jpg,1,2,f,3,9,189,20,f,1,0.633163070954,03,02,60.0233448439,PLT_learning_3,A,2014_Mrz_10_1422,P19,
stim_fb/ques.jpg,stim_fb/negf.jpg,stim_fb/posf.jpg,stim_03/f.jpg,stim_03/e.jpg,1,3,f,3,10,190,45,j,0,0.583179561056,03,02,60.0233448439,PLT_learning_3,A,2014_Mrz_10_1422,P19,
stim_fb/ques.jpg,stim_fb/posf.jpg,stim_fb/negf.jpg,stim_03/f.jpg,stim_03/e.jpg,1,3,f,3,11,191,47,j,0,0.78318806024,03,02,60.0233448439,PLT_learning_3,A,2014_Mrz_10_1422,P19,
stim_fb/ques.jpg,stim_fb/negf.jpg,stim_fb/posf.jpg,stim_03/c.jpg,stim_03/d.jpg,2,2,j,3,12,192,35,j,1,0.699816644988,03,02,60.0233448439,PLT_learning_3,A,2014_Mrz_10_1422,P19,
stim_fb/ques.jpg,stim_fb/negf.jpg,stim_fb/posf.jpg,stim_03/c.jpg,stim_03/d.jpg,2,2,j,3,13,193,30,j,1,1.5162051774,03,02,60.0233448439,PLT_learning_3,A,2014_Mrz_10_1422,P19,
stim_fb/ques.jpg,stim_fb/negf.jpg,stim_fb/posf.jpg,stim_03/a.jpg,stim_03/b.jpg,2,1,j,3,14,194,11,f,0,0.999731006534,03,02,60.0233448439,PLT_learning_3,A,2014_Mrz_10_1422,P19,
stim_fb/ques.jpg,stim_fb/posf.jpg,stim_fb/negf.jpg,stim_03/b.jpg,stim_03/a.jpg,1,1,f,3,15,195,9,j,0,0.666477797911,03,02,60.0233448439,PLT_learning_3,A,2014_Mrz_10_1422,P19,
stim_fb/ques.jpg,stim_fb/posf.jpg,stim_fb/negf.jpg,stim_03/e.jpg,stim_03/f.jpg,2,3,j,3,16,196,57,f,0,1.13301125255,03,02,60.0233448439,PLT_learning_3,A,2014_Mrz_10_1422,P19,
stim_fb/ques.jpg,stim_fb/negf.jpg,stim_fb/posf.jpg,stim_03/b.jpg,stim_03/a.jpg,1,1,f,3,17,197,6,j,0,0.866430959166,03,02,60.0233448439,PLT_learning_3,A,2014_Mrz_10_1422,P19,
stim_fb/ques.jpg,stim_fb/negf.jpg,stim_fb/posf.jpg,stim_03/f.jpg,stim_03/e.jpg,1,3,f,3,18,198,41,j,0,0.899766777693,03,02,60.0233448439,PLT_learning_3,A,2014_Mrz_10_1422,P19,
stim_fb/ques.jpg,stim_fb/negf.jpg,stim_fb/posf.jpg,stim_03/e.jpg,stim_03/f.jpg,2,3,j,3,19,199,54,f,0,0.966354334178,03,02,60.0233448439,PLT_learning_3,A,2014_Mrz_10_1422,P19,
stim_fb/ques.jpg,stim_fb/posf.jpg,stim_fb/negf.jpg,stim_03/c.jpg,stim_03/d.jpg,2,2,j,3,20,200,38,None,0,,03,02,60.0233448439,PLT_learning_3,A,2014_Mrz_10_1422,P19,
stim_fb/ques.jpg,stim_fb/negf.jpg,stim_fb/posf.jpg,stim_03/b.jpg,stim_03/a.jpg,1,1,f,3,21,201,1,j,0,0.749805793942,03,02,60.0233448439,PLT_learning_3,A,2014_Mrz_10_1422,P19,
stim_fb/ques.jpg,stim_fb/negf.jpg,stim_fb/posf.jpg,stim_03/a.jpg,stim_03/b.jpg,2,1,j,3,22,202,14,f,0,0.783084891091,03,02,60.0233448439,PLT_learning_3,A,2014_Mrz_10_1422,P19,
stim_fb/ques.jpg,stim_fb/posf.jpg,stim_fb/negf.jpg,stim_03/e.jpg,stim_03/f.jpg,2,3,j,3,23,203,59,f,0,0.716483458019,03,02,60.0233448439,PLT_learning_3,A,2014_Mrz_10_1422,P19,
stim_fb/ques.jpg,stim_fb/negf.jpg,stim_fb/posf.jpg,stim_03/a.jpg,stim_03/b.jpg,2,1,j,3,24,204,12,f,0,0.633168619785,03,02,60.0233448439,PLT_learning_3,A,2014_Mrz_10_1422,P19,
stim_fb/ques.jpg,stim_fb/negf.jpg,stim_fb/posf.jpg,stim_03/c.jpg,stim_03/d.jpg,2,2,j,3,25,205,32,j,1,0.683129925339,03,02,60.0233448439,PLT_learning_3,A,2014_Mrz_10_1422,P19,
stim_fb/ques.jpg,stim_fb/negf.jpg,stim_fb/posf.jpg,stim_03/f.jpg,stim_03/e.jpg,1,3,f,3,26,206,43,f,1,0.599849357524,03,02,60.0233448439,PLT_learning_3,A,2014_Mrz_10_1422,P19,
stim_fb/ques.jpg,stim_fb/negf.jpg,stim_fb/posf.jpg,stim_03/d.jpg,stim_03/c.jpg,1,2,f,3,27,207,23,f,1,0.899719499853,03,02,60.0233448439,PLT_learning_3,A,2014_Mrz_10_1422,P19,
stim_fb/ques.jpg,stim_fb/negf.jpg,stim_fb/posf.jpg,stim_03/a.jpg,stim_03/b.jpg,2,1,j,3,28,208,10,f,0,0.883060731874,03,02,60.0233448439,PLT_learning_3,A,2014_Mrz_10_1422,P19,
stim_fb/ques.jpg,stim_fb/negf.jpg,stim_fb/posf.jpg,stim_03/a.jpg,stim_03/b.jpg,2,1,j,3,29,209,17,j,1,0.883024103578,03,02,60.0233448439,PLT_learning_3,A,2014_Mrz_10_1422,P19,
stim_fb/ques.jpg,stim_fb/negf.jpg,stim_fb/posf.jpg,stim_03/b.jpg,stim_03/a.jpg,1,1,f,3,30,210,3,j,0,1.34965701611,03,02,60.0233448439,PLT_learning_3,A,2014_Mrz_10_1422,P19,
stim_fb/ques.jpg,stim_fb/posf.jpg,stim_fb/negf.jpg,stim_03/f.jpg,stim_03/e.jpg,1,3,f,3,31,211,46,f,1,0.849774690416,03,02,60.0233448439,PLT_learning_3,A,2014_Mrz_10_1422,P19,
stim_fb/ques.jpg,stim_fb/negf.jpg,stim_fb/posf.jpg,stim_03/d.jpg,stim_03/c.jpg,1,2,f,3,32,212,25,f,1,0.916422790806,03,02,60.0233448439,PLT_learning_3,A,2014_Mrz_10_1422,P19,
stim_fb/ques.jpg,stim_fb/negf.jpg,stim_fb/posf.jpg,stim_03/e.jpg,stim_03/f.jpg,2,3,j,3,33,213,55,f,0,0.86642171713,03,02,60.0233448439,PLT_learning_3,A,2014_Mrz_10_1422,P19,
stim_fb/ques.jpg,stim_fb/negf.jpg,stim_fb/posf.jpg,stim_03/b.jpg,stim_03/a.jpg,1,1,f,3,34,214,5,j,0,0.749784939963,03,02,60.0233448439,PLT_learning_3,A,2014_Mrz_10_1422,P19,
stim_fb/ques.jpg,stim_fb/posf.jpg,stim_fb/negf.jpg,stim_03/f.jpg,stim_03/e.jpg,1,3,f,3,35,215,48,f,1,0.816440592176,03,02,60.0233448439,PLT_learning_3,A,2014_Mrz_10_1422,P19,
stim_fb/ques.jpg,stim_fb/posf.jpg,stim_fb/negf.jpg,stim_03/a.jpg,stim_03/b.jpg,2,1,j,3,36,216,18,f,0,1.01640141653,03,02,60.0233448439,PLT_learning_3,A,2014_Mrz_10_1422,P19,
stim_fb/ques.jpg,stim_fb/posf.jpg,stim_fb/negf.jpg,stim_03/d.jpg,stim_03/c.jpg,1,2,f,3,37,217,27,f,1,0.866403443583,03,02,60.0233448439,PLT_learning_3,A,2014_Mrz_10_1422,P19,
stim_fb/ques.jpg,stim_fb/negf.jpg,stim_fb/posf.jpg,stim_03/b.jpg,stim_03/a.jpg,1,1,f,3,38,218,7,j,0,0.966399786468,03,02,60.0233448439,PLT_learning_3,A,2014_Mrz_10_1422,P19,
stim_fb/ques.jpg,stim_fb/negf.jpg,stim_fb/posf.jpg,stim_03/c.jpg,stim_03/d.jpg,2,2,j,3,39,219,33,j,1,0.79977534605,03,02,60.0233448439,PLT_learning_3,A,2014_Mrz_10_1422,P19,
stim_fb/ques.jpg,stim_fb/negf.jpg,stim_fb/posf.jpg,stim_03/c.jpg,stim_03/d.jpg,2,2,j,3,40,220,36,j,1,0.716463127345,03,02,60.0233448439,PLT_learning_3,A,2014_Mrz_10_1422,P19,
stim_fb/ques.jpg,stim_fb/posf.jpg,stim_fb/negf.jpg,stim_03/b.jpg,stim_03/a.jpg,1,1,f,3,41,221,8,j,0,0.883081480591,03,02,60.0233448439,PLT_learning_3,A,2014_Mrz_10_1422,P19,
stim_fb/ques.jpg,stim_fb/negf.jpg,stim_fb/posf.jpg,stim_03/d.jpg,stim_03/c.jpg,1,2,f,3,42,222,21,f,1,0.716465536349,03,02,60.0233448439,PLT_learning_3,A,2014_Mrz_10_1422,P19,
stim_fb/ques.jpg,stim_fb/posf.jpg,stim_fb/negf.jpg,stim_03/a.jpg,stim_03/b.jpg,2,1,j,3,43,223,19,f,0,0.849777183631,03,02,60.0233448439,PLT_learning_3,A,2014_Mrz_10_1422,P19,
stim_fb/ques.jpg,stim_fb/negf.jpg,stim_fb/posf.jpg,stim_03/e.jpg,stim_03/f.jpg,2,3,j,3,44,224,51,f,0,1.08303087646,03,02,60.0233448439,PLT_learning_3,A,2014_Mrz_10_1422,P19,
stim_fb/ques.jpg,stim_fb/negf.jpg,stim_fb/posf.jpg,stim_03/d.jpg,stim_03/c.jpg,1,2,f,3,45,225,22,f,1,0.883085904617,03,02,60.0233448439,PLT_learning_3,A,2014_Mrz_10_1422,P19,
stim_fb/ques.jpg,stim_fb/negf.jpg,stim_fb/posf.jpg,stim_03/b.jpg,stim_03/a.jpg,1,1,f,3,46,226,0,f,1,0.783154003354,03,02,60.0233448439,PLT_learning_3,A,2014_Mrz_10_1422,P19,
stim_fb/ques.jpg,stim_fb/negf.jpg,stim_fb/posf.jpg,stim_03/a.jpg,stim_03/b.jpg,2,1,j,3,47,227,15,f,0,1.01633891174,03,02,60.0233448439,PLT_learning_3,A,2014_Mrz_10_1422,P19,
stim_fb/ques.jpg,stim_fb/posf.jpg,stim_fb/negf.jpg,stim_03/d.jpg,stim_03/c.jpg,1,2,f,3,48,228,29,f,1,0.93309588349,03,02,60.0233448439,PLT_learning_3,A,2014_Mrz_10_1422,P19,
stim_fb/ques.jpg,stim_fb/posf.jpg,stim_fb/negf.jpg,stim_03/f.jpg,stim_03/e.jpg,1,3,f,3,49,229,49,j,0,0.833069597973,03,02,60.0233448439,PLT_learning_3,A,2014_Mrz_10_1422,P19,
stim_fb/ques.jpg,stim_fb/negf.jpg,stim_fb/posf.jpg,stim_03/e.jpg,stim_03/f.jpg,2,3,j,3,50,230,53,f,0,0.799810891648,03,02,60.0233448439,PLT_learning_3,A,2014_Mrz_10_1422,P19,
stim_fb/ques.jpg,stim_fb/negf.jpg,stim_fb/posf.jpg,stim_03/a.jpg,stim_03/b.jpg,2,1,j,3,51,231,16,f,0,0.983104394704,03,02,60.0233448439,PLT_learning_3,A,2014_Mrz_10_1422,P19,
stim_fb/ques.jpg,stim_fb/negf.jpg,stim_fb/posf.jpg,stim_03/b.jpg,stim_03/a.jpg,1,1,f,3,52,232,4,j,0,0.999586048225,03,02,60.0233448439,PLT_learning_3,A,2014_Mrz_10_1422,P19,
stim_fb/ques.jpg,stim_fb/posf.jpg,stim_fb/negf.jpg,stim_03/c.jpg,stim_03/d.jpg,2,2,j,3,53,233,37,j,1,0.666517096864,03,02,60.0233448439,PLT_learning_3,A,2014_Mrz_10_1422,P19,
stim_fb/ques.jpg,stim_fb/posf.jpg,stim_fb/negf.jpg,stim_03/c.jpg,stim_03/d.jpg,2,2,j,3,54,234,39,j,1,0.733157591296,03,02,60.0233448439,PLT_learning_3,A,2014_Mrz_10_1422,P19,
stim_fb/ques.jpg,stim_fb/negf.jpg,stim_fb/posf.jpg,stim_03/f.jpg,stim_03/e.jpg,1,3,f,3,55,235,40,j,0,1.36625553793,03,02,60.0233448439,PLT_learning_3,A,2014_Mrz_10_1422,P19,
stim_fb/ques.jpg,stim_fb/posf.jpg,stim_fb/negf.jpg,stim_03/d.jpg,stim_03/c.jpg,1,2,f,3,56,236,28,f,1,0.749857922873,03,02,60.0233448439,PLT_learning_3,A,2014_Mrz_10_1422,P19,
stim_fb/ques.jpg,stim_fb/negf.jpg,stim_fb/posf.jpg,stim_03/c.jpg,stim_03/d.jpg,2,2,j,3,57,237,31,None,0,,03,02,60.0233448439,PLT_learning_3,A,2014_Mrz_10_1422,P19,
stim_fb/ques.jpg,stim_fb/posf.jpg,stim_fb/negf.jpg,stim_03/e.jpg,stim_03/f.jpg,2,3,j,3,58,238,58,f,0,0.666496991752,03,02,60.0233448439,PLT_learning_3,A,2014_Mrz_10_1422,P19,
stim_fb/ques.jpg,stim_fb/negf.jpg,stim_fb/posf.jpg,stim_03/b.jpg,stim_03/a.jpg,1,1,f,3,59,239,2,j,0,0.866442375621,03,02,60.0233448439,PLT_learning_3,A,2014_Mrz_10_1422,P19,
stim_fb/ques.jpg,stim_fb/posf.jpg,stim_fb/negf.jpg,stim_03/f.jpg,stim_03/e.jpg,1,3,f,4,0,240,48,j,0,0.983071206983,03,02,60.0233448439,PLT_learning_3,A,2014_Mrz_10_1422,P19,
stim_fb/ques.jpg,stim_fb/negf.jpg,stim_fb/posf.jpg,stim_03/d.jpg,stim_03/c.jpg,1,2,f,4,1,241,21,f,1,0.733084542221,03,02,60.0233448439,PLT_learning_3,A,2014_Mrz_10_1422,P19,
stim_fb/ques.jpg,stim_fb/negf.jpg,stim_fb/posf.jpg,stim_03/a.jpg,stim_03/b.jpg,2,1,j,4,2,242,13,f,0,0.899725830633,03,02,60.0233448439,PLT_learning_3,A,2014_Mrz_10_1422,P19,
stim_fb/ques.jpg,stim_fb/negf.jpg,stim_fb/posf.jpg,stim_03/b.jpg,stim_03/a.jpg,1,1,f,4,3,243,0,j,0,1.01631793746,03,02,60.0233448439,PLT_learning_3,A,2014_Mrz_10_1422,P19,
stim_fb/ques.jpg,stim_fb/posf.jpg,stim_fb/negf.jpg,stim_03/f.jpg,stim_03/e.jpg,1,3,f,4,4,244,49,j,0,1.0996789558,03,02,60.0233448439,PLT_learning_3,A,2014_Mrz_10_1422,P19,
stim_fb/ques.jpg,stim_fb/posf.jpg,stim_fb/negf.jpg,stim_03/d.jpg,stim_03/c.jpg,1,2,f,4,5,245,29,f,1,0.749808049563,03,02,60.0233448439,PLT_learning_3,A,2014_Mrz_10_1422,P19,
stim_fb/ques.jpg,stim_fb/negf.jpg,stim_fb/posf.jpg,stim_03/f.jpg,stim_03/e.jpg,1,3,f,4,6,246,40,j,0,1.43289637522,03,02,60.0233448439,PLT_learning_3,A,2014_Mrz_10_1422,P19,
stim_fb/ques.jpg,stim_fb/posf.jpg,stim_fb/negf.jpg,stim_03/a.jpg,stim_03/b.jpg,2,1,j,4,7,247,18,f,0,0.699846530477,03,02,60.0233448439,PLT_learning_3,A,2014_Mrz_10_1422,P19,
stim_fb/ques.jpg,stim_fb/posf.jpg,stim_fb/negf.jpg,stim_03/e.jpg,stim_03/f.jpg,2,3,j,4,8,248,56,f,0,0.999701277434,03,02,60.0233448439,PLT_learning_3,A,2014_Mrz_10_1422,P19,
stim_fb/ques.jpg,stim_fb/negf.jpg,stim_fb/posf.jpg,stim_03/c.jpg,stim_03/d.jpg,2,2,j,4,9,249,31,j,1,0.999629178728,03,02,60.0233448439,PLT_learning_3,A,2014_Mrz_10_1422,P19,
stim_fb/ques.jpg,stim_fb/posf.jpg,stim_fb/negf.jpg,stim_03/f.jpg,stim_03/e.jpg,1,3,f,4,10,250,46,j,0,1.1163472004,03,02,60.0233448439,PLT_learning_3,A,2014_Mrz_10_1422,P19,
stim_fb/ques.jpg,stim_fb/posf.jpg,stim_fb/negf.jpg,stim_03/e.jpg,stim_03/f.jpg,2,3,j,4,11,251,59,f,0,1.26629374817,03,02,60.0233448439,PLT_learning_3,A,2014_Mrz_10_1422,P19,
stim_fb/ques.jpg,stim_fb/negf.jpg,stim_fb/posf.jpg,stim_03/c.jpg,stim_03/d.jpg,2,2,j,4,12,252,30,j,1,1.01633586214,03,02,60.0233448439,PLT_learning_3,A,2014_Mrz_10_1422,P19,
stim_fb/ques.jpg,stim_fb/negf.jpg,stim_fb/posf.jpg,stim_03/f.jpg,stim_03/e.jpg,1,3,f,4,13,253,42,j,0,1.08311323373,03,02,60.0233448439,PLT_learning_3,A,2014_Mrz_10_1422,P19,
stim_fb/ques.jpg,stim_fb/posf.jpg,stim_fb/negf.jpg,stim_03/c.jpg,stim_03/d.jpg,2,2,j,4,14,254,39,j,1,1.08300848264,03,02,60.0233448439,PLT_learning_3,A,2014_Mrz_10_1422,P19,
stim_fb/ques.jpg,stim_fb/posf.jpg,stim_fb/negf.jpg,stim_03/c.jpg,stim_03/d.jpg,2,2,j,4,15,255,37,j,1,1.19965977098,03,02,60.0233448439,PLT_learning_3,A,2014_Mrz_10_1422,P19,
stim_fb/ques.jpg,stim_fb/negf.jpg,stim_fb/posf.jpg,stim_03/b.jpg,stim_03/a.jpg,1,1,f,4,16,256,3,j,0,1.31627960993,03,02,60.0233448439,PLT_learning_3,A,2014_Mrz_10_1422,P19,
stim_fb/ques.jpg,stim_fb/negf.jpg,stim_fb/posf.jpg,stim_03/b.jpg,stim_03/a.jpg,1,1,f,4,17,257,7,j,0,1.09972845016,03,02,60.0233448439,PLT_learning_3,A,2014_Mrz_10_1422,P19,
stim_fb/ques.jpg,stim_fb/negf.jpg,stim_fb/posf.jpg,stim_03/f.jpg,stim_03/e.jpg,1,3,f,4,18,258,41,j,0,1.13301240141,03,02,60.0233448439,PLT_learning_3,A,2014_Mrz_10_1422,P19,
stim_fb/ques.jpg,stim_fb/negf.jpg,stim_fb/posf.jpg,stim_03/a.jpg,stim_03/b.jpg,2,1,j,4,19,259,15,f,0,1.11634612071,03,02,60.0233448439,PLT_learning_3,A,2014_Mrz_10_1422,P19,
stim_fb/ques.jpg,stim_fb/negf.jpg,stim_fb/posf.jpg,stim_03/d.jpg,stim_03/c.jpg,1,2,f,4,20,260,26,j,0,1.19964861317,03,02,60.0233448439,PLT_learning_3,A,2014_Mrz_10_1422,P19,
stim_fb/ques.jpg,stim_fb/negf.jpg,stim_fb/posf.jpg,stim_03/e.jpg,stim_03/f.jpg,2,3,j,4,21,261,52,f,0,0.883093056443,03,02,60.0233448439,PLT_learning_3,A,2014_Mrz_10_1422,P19,
stim_fb/ques.jpg,stim_fb/negf.jpg,stim_fb/posf.jpg,stim_03/d.jpg,stim_03/c.jpg,1,2,f,4,22,262,23,f,1,0.833115501387,03,02,60.0233448439,PLT_learning_3,A,2014_Mrz_10_1422,P19,
stim_fb/ques.jpg,stim_fb/negf.jpg,stim_fb/posf.jpg,stim_03/c.jpg,stim_03/d.jpg,2,2,j,4,23,263,34,None,0,,03,02,60.0233448439,PLT_learning_3,A,2014_Mrz_10_1422,P19,
stim_fb/ques.jpg,stim_fb/posf.jpg,stim_fb/negf.jpg,stim_03/e.jpg,stim_03/f.jpg,2,3,j,4,24,264,57,f,0,1.24960178345,03,02,60.0233448439,PLT_learning_3,A,2014_Mrz_10_1422,P19,
stim_fb/ques.jpg,stim_fb/negf.jpg,stim_fb/posf.jpg,stim_03/b.jpg,stim_03/a.jpg,1,1,f,4,25,265,1,j,0,0.866440183157,03,02,60.0233448439,PLT_learning_3,A,2014_Mrz_10_1422,P19,
stim_fb/ques.jpg,stim_fb/negf.jpg,stim_fb/posf.jpg,stim_03/c.jpg,stim_03/d.jpg,2,2,j,4,26,266,36,j,1,0.699813941249,03,02,60.0233448439,PLT_learning_3,A,2014_Mrz_10_1422,P19,
stim_fb/ques.jpg,stim_fb/negf.jpg,stim_fb/posf.jpg,stim_03/c.jpg,stim_03/d.jpg,2,2,j,4,27,267,35,j,1,0.7164764295,03,02,60.0233448439,PLT_learning_3,A,2014_Mrz_10_1422,P19,
stim_fb/ques.jpg,stim_fb/negf.jpg,stim_fb/posf.jpg,stim_03/a.jpg,stim_03/b.jpg,2,1,j,4,28,268,17,f,0,0.883041486906,03,02,60.0233448439,PLT_learning_3,A,2014_Mrz_10_1422,P19,
stim_fb/ques.jpg,stim_fb/posf.jpg,stim_fb/negf.jpg,stim_03/d.jpg,stim_03/c.jpg,1,2,f,4,29,269,28,f,1,0.883086467019,03,02,60.0233448439,PLT_learning_3,A,2014_Mrz_10_1422,P19,
stim_fb/ques.jpg,stim_fb/negf.jpg,stim_fb/posf.jpg,stim_03/b.jpg,stim_03/a.jpg,1,1,f,4,30,270,5,j,0,0.916396604537,03,02,60.0233448439,PLT_learning_3,A,2014_Mrz_10_1422,P19,
stim_fb/ques.jpg,stim_fb/negf.jpg,stim_fb/posf.jpg,stim_03/a.jpg,stim_03/b.jpg,2,1,j,4,31,271,14,f,0,0.683165840858,03,02,60.0233448439,PLT_learning_3,A,2014_Mrz_10_1422,P19,
stim_fb/ques.jpg,stim_fb/negf.jpg,stim_fb/posf.jpg,stim_03/e.jpg,stim_03/f.jpg,2,3,j,4,32,272,55,f,0,0.883100030827,03,02,60.0233448439,PLT_learning_3,A,2014_Mrz_10_1422,P19,
stim_fb/ques.jpg,stim_fb/negf.jpg,stim_fb/posf.jpg,stim_03/f.jpg,stim_03/e.jpg,1,3,f,4,33,273,45,j,0,0.733133005015,03,02,60.0233448439,PLT_learning_3,A,2014_Mrz_10_1422,P19,
stim_fb/ques.jpg,stim_fb/negf.jpg,stim_fb/posf.jpg,stim_03/a.jpg,stim_03/b.jpg,2,1,j,4,34,274,12,f,0,0.883104830791,03,02,60.0233448439,PLT_learning_3,A,2014_Mrz_10_1422,P19,
stim_fb/ques.jpg,stim_fb/negf.jpg,stim_fb/posf.jpg,stim_03/b.jpg,stim_03/a.jpg,1,1,f,4,35,275,2,j,0,0.899760919091,03,02,60.0233448439,PLT_learning_3,A,2014_Mrz_10_1422,P19,
stim_fb/ques.jpg,stim_fb/negf.jpg,stim_fb/posf.jpg,stim_03/d.jpg,stim_03/c.jpg,1,2,f,4,36,276,22,f,1,0.749811622469,03,02,60.0233448439,PLT_learning_3,A,2014_Mrz_10_1422,P19,
stim_fb/ques.jpg,stim_fb/posf.jpg,stim_fb/negf.jpg,stim_03/f.jpg,stim_03/e.jpg,1,3,f,4,37,277,47,j,0,0.766468164901,03,02,60.0233448439,PLT_learning_3,A,2014_Mrz_10_1422,P19,
stim_fb/ques.jpg,stim_fb/negf.jpg,stim_fb/posf.jpg,stim_03/f.jpg,stim_03/e.jpg,1,3,f,4,38,278,44,j,0,0.766452739453,03,02,60.0233448439,PLT_learning_3,A,2014_Mrz_10_1422,P19,
stim_fb/ques.jpg,stim_fb/negf.jpg,stim_fb/posf.jpg,stim_03/e.jpg,stim_03/f.jpg,2,3,j,4,39,279,50,f,0,0.733159555191,03,02,60.0233448439,PLT_learning_3,A,2014_Mrz_10_1422,P19,
stim_fb/ques.jpg,stim_fb/negf.jpg,stim_fb/posf.jpg,stim_03/c.jpg,stim_03/d.jpg,2,2,j,4,40,280,32,j,1,0.949736687694,03,02,60.0233448439,PLT_learning_3,A,2014_Mrz_10_1422,P19,
stim_fb/ques.jpg,stim_fb/negf.jpg,stim_fb/posf.jpg,stim_03/e.jpg,stim_03/f.jpg,2,3,j,4,41,281,53,f,0,0.799784780565,03,02,60.0233448439,PLT_learning_3,A,2014_Mrz_10_1422,P19,
stim_fb/ques.jpg,stim_fb/negf.jpg,stim_fb/posf.jpg,stim_03/d.jpg,stim_03/c.jpg,1,2,f,4,42,282,20,f,1,0.783118728431,03,02,60.0233448439,PLT_learning_3,A,2014_Mrz_10_1422,P19,
stim_fb/ques.jpg,stim_fb/negf.jpg,stim_fb/posf.jpg,stim_03/c.jpg,stim_03/d.jpg,2,2,j,4,43,283,33,j,1,0.749764720566,03,02,60.0233448439,PLT_learning_3,A,2014_Mrz_10_1422,P19,
stim_fb/ques.jpg,stim_fb/negf.jpg,stim_fb/posf.jpg,stim_03/a.jpg,stim_03/b.jpg,2,1,j,4,44,284,10,f,0,0.749732023067,03,02,60.0233448439,PLT_learning_3,A,2014_Mrz_10_1422,P19,
stim_fb/ques.jpg,stim_fb/posf.jpg,stim_fb/negf.jpg,stim_03/e.jpg,stim_03/f.jpg,2,3,j,4,45,285,58,f,0,1.03301242246,03,02,60.0233448439,PLT_learning_3,A,2014_Mrz_10_1422,P19,
stim_fb/ques.jpg,stim_fb/negf.jpg,stim_fb/posf.jpg,stim_03/e.jpg,stim_03/f.jpg,2,3,j,4,46,286,51,f,0,0.933087152728,03,02,60.0233448439,PLT_learning_3,A,2014_Mrz_10_1422,P19,
stim_fb/ques.jpg,stim_fb/posf.jpg,stim_fb/negf.jpg,stim_03/c.jpg,stim_03/d.jpg,2,2,j,4,47,287,38,j,1,0.666511117961,03,02,60.0233448439,PLT_learning_3,A,2014_Mrz_10_1422,P19,
stim_fb/ques.jpg,stim_fb/negf.jpg,stim_fb/posf.jpg,stim_03/b.jpg,stim_03/a.jpg,1,1,f,4,48,288,4,j,0,1.24962099834,03,02,60.0233448439,PLT_learning_3,A,2014_Mrz_10_1422,P19,
stim_fb/ques.jpg,stim_fb/posf.jpg,stim_fb/negf.jpg,stim_03/b.jpg,stim_03/a.jpg,1,1,f,4,49,289,8,j,0,0.833117760017,03,02,60.0233448439,PLT_learning_3,A,2014_Mrz_10_1422,P19,
stim_fb/ques.jpg,stim_fb/posf.jpg,stim_fb/negf.jpg,stim_03/d.jpg,stim_03/c.jpg,1,2,f,4,50,290,27,None,0,,03,02,60.0233448439,PLT_learning_3,A,2014_Mrz_10_1422,P19,
stim_fb/ques.jpg,stim_fb/negf.jpg,stim_fb/posf.jpg,stim_03/b.jpg,stim_03/a.jpg,1,1,f,4,51,291,6,j,0,0.766464591995,03,02,60.0233448439,PLT_learning_3,A,2014_Mrz_10_1422,P19,
stim_fb/ques.jpg,stim_fb/negf.jpg,stim_fb/posf.jpg,stim_03/a.jpg,stim_03/b.jpg,2,1,j,4,52,292,11,f,0,0.883057989038,03,02,60.0233448439,PLT_learning_3,A,2014_Mrz_10_1422,P19,
stim_fb/ques.jpg,stim_fb/negf.jpg,stim_fb/posf.jpg,stim_03/d.jpg,stim_03/c.jpg,1,2,f,4,53,293,24,f,1,0.866437723024,03,02,60.0233448439,PLT_learning_3,A,2014_Mrz_10_1422,P19,
stim_fb/ques.jpg,stim_fb/posf.jpg,stim_fb/negf.jpg,stim_03/a.jpg,stim_03/b.jpg,2,1,j,4,54,294,19,j,1,0.699836494462,03,02,60.0233448439,PLT_learning_3,A,2014_Mrz_10_1422,P19,
stim_fb/ques.jpg,stim_fb/negf.jpg,stim_fb/posf.jpg,stim_03/a.jpg,stim_03/b.jpg,2,1,j,4,55,295,16,f,0,0.766473906211,03,02,60.0233448439,PLT_learning_3,A,2014_Mrz_10_1422,P19,
stim_fb/ques.jpg,stim_fb/posf.jpg,stim_fb/negf.jpg,stim_03/b.jpg,stim_03/a.jpg,1,1,f,4,56,296,9,j,0,0.783124135909,03,02,60.0233448439,PLT_learning_3,A,2014_Mrz_10_1422,P19,
stim_fb/ques.jpg,stim_fb/negf.jpg,stim_fb/posf.jpg,stim_03/d.jpg,stim_03/c.jpg,1,2,f,4,57,297,25,f,1,0.749773309975,03,02,60.0233448439,PLT_learning_3,A,2014_Mrz_10_1422,P19,
stim_fb/ques.jpg,stim_fb/negf.jpg,stim_fb/posf.jpg,stim_03/e.jpg,stim_03/f.jpg,2,3,j,4,58,298,54,f,0,0.799790936911,03,02,60.0233448439,PLT_learning_3,A,2014_Mrz_10_1422,P19,
stim_fb/ques.jpg,stim_fb/negf.jpg,stim_fb/posf.jpg,stim_03/f.jpg,stim_03/e.jpg,1,3,f,4,59,299,43,j,0,1.11635160036,03,02,60.0233448439,PLT_learning_3,A,2014_Mrz_10_1422,P19,
stim_fb/ques.jpg,stim_fb/negf.jpg,stim_fb/posf.jpg,stim_03/d.jpg,stim_03/c.jpg,1,2,f,5,0,300,20,f,1,0.949745114699,03,02,60.0233448439,PLT_learning_3,A,2014_Mrz_10_1422,P19,
stim_fb/ques.jpg,stim_fb/posf.jpg,stim_fb/negf.jpg,stim_03/e.jpg,stim_03/f.jpg,2,3,j,5,1,301,59,f,0,0.683151558259,03,02,60.0233448439,PLT_learning_3,A,2014_Mrz_10_1422,P19,
stim_fb/ques.jpg,stim_fb/posf.jpg,stim_fb/negf.jpg,stim_03/a.jpg,stim_03/b.jpg,2,1,j,5,2,302,18,f,0,0.766446291381,03,02,60.0233448439,PLT_learning_3,A,2014_Mrz_10_1422,P19,
stim_fb/ques.jpg,stim_fb/negf.jpg,stim_fb/posf.jpg,stim_03/b.jpg,stim_03/a.jpg,1,1,f,5,3,303,5,j,0,1.03306268374,03,02,60.0233448439,PLT_learning_3,A,2014_Mrz_10_1422,P19,
stim_fb/ques.jpg,stim_fb/negf.jpg,stim_fb/posf.jpg,stim_03/e.jpg,stim_03/f.jpg,2,3,j,5,4,304,54,f,0,0.650132826069,03,02,60.0233448439,PLT_learning_3,A,2014_Mrz_10_1422,P19,
stim_fb/ques.jpg,stim_fb/negf.jpg,stim_fb/posf.jpg,stim_03/b.jpg,stim_03/a.jpg,1,1,f,5,5,305,3,j,0,0.899743686138,03,02,60.0233448439,PLT_learning_3,A,2014_Mrz_10_1422,P19,
stim_fb/ques.jpg,stim_fb/posf.jpg,stim_fb/negf.jpg,stim_03/f.jpg,stim_03/e.jpg,1,3,f,5,6,306,47,j,0,1.26629110157,03,02,60.0233448439,PLT_learning_3,A,2014_Mrz_10_1422,P19,
stim_fb/ques.jpg,stim_fb/negf.jpg,stim_fb/posf.jpg,stim_03/a.jpg,stim_03/b.jpg,2,1,j,5,7,307,17,f,0,1.08293671476,03,02,60.0233448439,PLT_learning_3,A,2014_Mrz_10_1422,P19,
stim_fb/ques.jpg,stim_fb/negf.jpg,stim_fb/posf.jpg,stim_03/d.jpg,stim_03/c.jpg,1,2,f,5,8,308,23,f,1,0.783129871204,03,02,60.0233448439,PLT_learning_3,A,2014_Mrz_10_1422,P19,
stim_fb/ques.jpg,stim_fb/posf.jpg,stim_fb/negf.jpg,stim_03/c.jpg,stim_03/d.jpg,2,2,j,5,9,309,37,j,1,1.31628099638,03,02,60.0233448439,PLT_learning_3,A,2014_Mrz_10_1422,P19,
stim_fb/ques.jpg,stim_fb/negf.jpg,stim_fb/posf.jpg,stim_03/c.jpg,stim_03/d.jpg,2,2,j,5,10,310,36,j,1,1.49956818671,03,02,60.0233448439,PLT_learning_3,A,2014_Mrz_10_1422,P19,
stim_fb/ques.jpg,stim_fb/negf.jpg,stim_fb/posf.jpg,stim_03/d.jpg,stim_03/c.jpg,1,2,f,5,11,311,21,f,1,0.699815655521,03,02,60.0233448439,PLT_learning_3,A,2014_Mrz_10_1422,P19,
stim_fb/ques.jpg,stim_fb/posf.jpg,stim_fb/negf.jpg,stim_03/f.jpg,stim_03/e.jpg,1,3,f,5,12,312,48,j,0,0.733144821467,03,02,60.0233448439,PLT_learning_3,A,2014_Mrz_10_1422,P19,
stim_fb/ques.jpg,stim_fb/negf.jpg,stim_fb/posf.jpg,stim_03/b.jpg,stim_03/a.jpg,1,1,f,5,13,313,7,f,1,0.883075862588,03,02,60.0233448439,PLT_learning_3,A,2014_Mrz_10_1422,P19,
stim_fb/ques.jpg,stim_fb/negf.jpg,stim_fb/posf.jpg,stim_03/f.jpg,stim_03/e.jpg,1,3,f,5,14,314,43,j,0,0.699828356178,03,02,60.0233448439,PLT_learning_3,A,2014_Mrz_10_1422,P19,
stim_fb/ques.jpg,stim_fb/negf.jpg,stim_fb/posf.jpg,stim_03/a.jpg,stim_03/b.jpg,2,1,j,5,15,315,12,f,0,0.733131708784,03,02,60.0233448439,PLT_learning_3,A,2014_Mrz_10_1422,P19,
stim_fb/ques.jpg,stim_fb/negf.jpg,stim_fb/posf.jpg,stim_03/e.jpg,stim_03/f.jpg,2,3,j,5,16,316,51,f,0,1.01642224946,03,02,60.0233448439,PLT_learning_3,A,2014_Mrz_10_1422,P19,
stim_fb/ques.jpg,stim_fb/negf.jpg,stim_fb/posf.jpg,stim_03/a.jpg,stim_03/b.jpg,2,1,j,5,17,317,14,f,0,0.749819613386,03,02,60.0233448439,PLT_learning_3,A,2014_Mrz_10_1422,P19,
stim_fb/ques.jpg,stim_fb/negf.jpg,stim_fb/posf.jpg,stim_03/e.jpg,stim_03/f.jpg,2,3,j,5,18,318,52,f,0,0.83310184134,03,02,60.0233448439,PLT_learning_3,A,2014_Mrz_10_1422,P19,
stim_fb/ques.jpg,stim_fb/negf.jpg,stim_fb/posf.jpg,stim_03/b.jpg,stim_03/a.jpg,1,1,f,5,19,319,0,j,0,1.01638329336,03,02,60.0233448439,PLT_learning_3,A,2014_Mrz_10_1422,P19,
stim_fb/ques.jpg,stim_fb/posf.jpg,stim_fb/negf.jpg,stim_03/a.jpg,stim_03/b.jpg,2,1,j,5,20,320,19,f,0,0.666497887986,03,02,60.0233448439,PLT_learning_3,A,2014_Mrz_10_1422,P19,
stim_fb/ques.jpg,stim_fb/negf.jpg,stim_fb/posf.jpg,stim_03/c.jpg,stim_03/d.jpg,2,2,j,5,21,321,34,j,1,0.733188018135,03,02,60.0233448439,PLT_learning_3,A,2014_Mrz_10_1422,P19,
stim_fb/ques.jpg,stim_fb/posf.jpg,stim_fb/negf.jpg,stim_03/e.jpg,stim_03/f.jpg,2,3,j,5,22,322,58,f,0,0.683118845723,03,02,60.0233448439,PLT_learning_3,A,2014_Mrz_10_1422,P19,
stim_fb/ques.jpg,stim_fb/posf.jpg,stim_fb/negf.jpg,stim_03/f.jpg,stim_03/e.jpg,1,3,f,5,23,323,46,j,0,0.649842028256,03,02,60.0233448439,PLT_learning_3,A,2014_Mrz_10_1422,P19,
stim_fb/ques.jpg,stim_fb/negf.jpg,stim_fb/posf.jpg,stim_03/d.jpg,stim_03/c.jpg,1,2,f,5,24,324,22,f,1,0.649862331862,03,02,60.0233448439,PLT_learning_3,A,2014_Mrz_10_1422,P19,
stim_fb/ques.jpg,stim_fb/posf.jpg,stim_fb/negf.jpg,stim_03/d.jpg,stim_03/c.jpg,1,2,f,5,25,325,29,f,1,0.599859928873,03,02,60.0233448439,PLT_learning_3,A,2014_Mrz_10_1422,P19,
stim_fb/ques.jpg,stim_fb/negf.jpg,stim_fb/posf.jpg,stim_03/e.jpg,stim_03/f.jpg,2,3,j,5,26,326,53,f,0,0.616504023278,03,02,60.0233448439,PLT_learning_3,A,2014_Mrz_10_1422,P19,
stim_fb/ques.jpg,stim_fb/posf.jpg,stim_fb/negf.jpg,stim_03/f.jpg,stim_03/e.jpg,1,3,f,5,27,327,49,j,0,0.666452583063,03,02,60.0233448439,PLT_learning_3,A,2014_Mrz_10_1422,P19,
stim_fb/ques.jpg,stim_fb/negf.jpg,stim_fb/posf.jpg,stim_03/d.jpg,stim_03/c.jpg,1,2,f,5,28,328,25,f,1,0.699877955805,03,02,60.0233448439,PLT_learning_3,A,2014_Mrz_10_1422,P19,
stim_fb/ques.jpg,stim_fb/posf.jpg,stim_fb/negf.jpg,stim_03/e.jpg,stim_03/f.jpg,2,3,j,5,29,329,57,f,0,0.683083673056,03,02,60.0233448439,PLT_learning_3,A,2014_Mrz_10_1422,P19,
stim_fb/ques.jpg,stim_fb/negf.jpg,stim_fb/posf.jpg,stim_03/b.jpg,stim_03/a.jpg,1,1,f,5,30,330,6,j,0,1.01637227089,03,02,60.0233448439,PLT_learning_3,A,2014_Mrz_10_1422,P19,
stim_fb/ques.jpg,stim_fb/posf.jpg,stim_fb/negf.jpg,stim_03/b.jpg,stim_03/a.jpg,1,1,f,5,31,331,8,j,0,1.03305807325,03,02,60.0233448439,PLT_learning_3,A,2014_Mrz_10_1422,P19,
stim_fb/ques.jpg,stim_fb/negf.jpg,stim_fb/posf.jpg,stim_03/f.jpg,stim_03/e.jpg,1,3,f,5,32,332,41,j,0,1.06637765731,03,02,60.0233448439,PLT_learning_3,A,2014_Mrz_10_1422,P19,
stim_fb/ques.jpg,stim_fb/negf.jpg,stim_fb/posf.jpg,stim_03/c.jpg,stim_03/d.jpg,2,2,j,5,33,333,32,j,1,1.33295097631,03,02,60.0233448439,PLT_learning_3,A,2014_Mrz_10_1422,P19,
stim_fb/ques.jpg,stim_fb/posf.jpg,stim_fb/negf.jpg,stim_03/c.jpg,stim_03/d.jpg,2,2,j,5,34,334,38,j,1,0.799784383576,03,02,60.0233448439,PLT_learning_3,A,2014_Mrz_10_1422,P19,
stim_fb/ques.jpg,stim_fb/negf.jpg,stim_fb/posf.jpg,stim_03/a.jpg,stim_03/b.jpg,2,1,j,5,35,335,13,f,0,0.616481773821,03,02,60.0233448439,PLT_learning_3,A,2014_Mrz_10_1422,P19,
stim_fb/ques.jpg,stim_fb/posf.jpg,stim_fb/negf.jpg,stim_03/c.jpg,stim_03/d.jpg,2,2,j,5,36,336,39,j,1,0.766464363426,03,02,60.0233448439,PLT_learning_3,A,2014_Mrz_10_1422,P19,
stim_fb/ques.jpg,stim_fb/negf.jpg,stim_fb/posf.jpg,stim_03/f.jpg,stim_03/e.jpg,1,3,f,5,37,337,42,f,1,0.999750621424,03,02,60.0233448439,PLT_learning_3,A,2014_Mrz_10_1422,P19,
stim_fb/ques.jpg,stim_fb/posf.jpg,stim_fb/negf.jpg,stim_03/e.jpg,stim_03/f.jpg,2,3,j,5,38,338,56,j,1,0.883100238344,03,02,60.0233448439,PLT_learning_3,A,2014_Mrz_10_1422,P19,
stim_fb/ques.jpg,stim_fb/negf.jpg,stim_fb/posf.jpg,stim_03/f.jpg,stim_03/e.jpg,1,3,f,5,39,339,44,f,1,1.38293235088,03,02,60.0233448439,PLT_learning_3,A,2014_Mrz_10_1422,P19,
stim_fb/ques.jpg,stim_fb/posf.jpg,stim_fb/negf.jpg,stim_03/d.jpg,stim_03/c.jpg,1,2,f,5,40,340,27,f,1,1.08302936068,03,02,60.0233448439,PLT_learning_3,A,2014_Mrz_10_1422,P19,
stim_fb/ques.jpg,stim_fb/negf.jpg,stim_fb/posf.jpg,stim_03/c.jpg,stim_03/d.jpg,2,2,j,5,41,341,31,j,1,0.749800945858,03,02,60.0233448439,PLT_learning_3,A,2014_Mrz_10_1422,P19,
stim_fb/ques.jpg,stim_fb/negf.jpg,stim_fb/posf.jpg,stim_03/e.jpg,stim_03/f.jpg,2,3,j,5,42,342,55,f,0,0.699785385072,03,02,60.0233448439,PLT_learning_3,A,2014_Mrz_10_1422,P19,
stim_fb/ques.jpg,stim_fb/negf.jpg,stim_fb/posf.jpg,stim_03/f.jpg,stim_03/e.jpg,1,3,f,5,43,343,40,f,1,1.26631607883,03,02,60.0233448439,PLT_learning_3,A,2014_Mrz_10_1422,P19,
stim_fb/ques.jpg,stim_fb/negf.jpg,stim_fb/posf.jpg,stim_03/b.jpg,stim_03/a.jpg,1,1,f,5,44,344,4,j,0,1.03303120728,03,02,60.0233448439,PLT_learning_3,A,2014_Mrz_10_1422,P19,
stim_fb/ques.jpg,stim_fb/negf.jpg,stim_fb/posf.jpg,stim_03/c.jpg,stim_03/d.jpg,2,2,j,5,45,345,33,None,0,,03,02,60.0233448439,PLT_learning_3,A,2014_Mrz_10_1422,P19,
stim_fb/ques.jpg,stim_fb/negf.jpg,stim_fb/posf.jpg,stim_03/b.jpg,stim_03/a.jpg,1,1,f,5,46,346,2,j,0,0.866439004218,03,02,60.0233448439,PLT_learning_3,A,2014_Mrz_10_1422,P19,
stim_fb/ques.jpg,stim_fb/negf.jpg,stim_fb/posf.jpg,stim_03/e.jpg,stim_03/f.jpg,2,3,j,5,47,347,50,f,0,0.883089167751,03,02,60.0233448439,PLT_learning_3,A,2014_Mrz_10_1422,P19,
stim_fb/ques.jpg,stim_fb/negf.jpg,stim_fb/posf.jpg,stim_03/a.jpg,stim_03/b.jpg,2,1,j,5,48,348,15,f,0,0.999713250277,03,02,60.0233448439,PLT_learning_3,A,2014_Mrz_10_1422,P19,
stim_fb/ques.jpg,stim_fb/negf.jpg,stim_fb/posf.jpg,stim_03/d.jpg,stim_03/c.jpg,1,2,f,5,49,349,26,j,0,1.2162966083,03,02,60.0233448439,PLT_learning_3,A,2014_Mrz_10_1422,P19,
stim_fb/ques.jpg,stim_fb/posf.jpg,stim_fb/negf.jpg,stim_03/d.jpg,stim_03/c.jpg,1,2,f,5,50,350,28,f,1,0.599883315163,03,02,60.0233448439,PLT_learning_3,A,2014_Mrz_10_1422,P19,
stim_fb/ques.jpg,stim_fb/negf.jpg,stim_fb/posf.jpg,stim_03/a.jpg,stim_03/b.jpg,2,1,j,5,51,351,16,f,0,0.683182129458,03,02,60.0233448439,PLT_learning_3,A,2014_Mrz_10_1422,P19,
stim_fb/ques.jpg,stim_fb/negf.jpg,stim_fb/posf.jpg,stim_03/c.jpg,stim_03/d.jpg,2,2,j,5,52,352,30,j,1,0.633122587048,03,02,60.0233448439,PLT_learning_3,A,2014_Mrz_10_1422,P19,
stim_fb/ques.jpg,stim_fb/negf.jpg,stim_fb/posf.jpg,stim_03/d.jpg,stim_03/c.jpg,1,2,f,5,53,353,24,f,1,1.14971535252,03,02,60.0233448439,PLT_learning_3,A,2014_Mrz_10_1422,P19,
stim_fb/ques.jpg,stim_fb/negf.jpg,stim_fb/posf.jpg,stim_03/a.jpg,stim_03/b.jpg,2,1,j,5,54,354,10,f,0,1.58294958985,03,02,60.0233448439,PLT_learning_3,A,2014_Mrz_10_1422,P19,
stim_fb/ques.jpg,stim_fb/negf.jpg,stim_fb/posf.jpg,stim_03/a.jpg,stim_03/b.jpg,2,1,j,5,55,355,11,j,1,1.1163222081,03,02,60.0233448439,PLT_learning_3,A,2014_Mrz_10_1422,P19,
stim_fb/ques.jpg,stim_fb/negf.jpg,stim_fb/posf.jpg,stim_03/f.jpg,stim_03/e.jpg,1,3,f,5,56,356,45,f,1,1.31628796776,03,02,60.0233448439,PLT_learning_3,A,2014_Mrz_10_1422,P19,
stim_fb/ques.jpg,stim_fb/posf.jpg,stim_fb/negf.jpg,stim_03/b.jpg,stim_03/a.jpg,1,1,f,5,57,357,9,j,0,0.883085005376,03,02,60.0233448439,PLT_learning_3,A,2014_Mrz_10_1422,P19,
stim_fb/ques.jpg,stim_fb/negf.jpg,stim_fb/posf.jpg,stim_03/c.jpg,stim_03/d.jpg,2,2,j,5,58,358,35,j,1,0.899562298028,03,02,60.0233448439,PLT_learning_3,A,2014_Mrz_10_1422,P19,
stim_fb/ques.jpg,stim_fb/negf.jpg,stim_fb/posf.jpg,stim_03/b.jpg,stim_03/a.jpg,1,1,f,5,59,359,1,j,0,0.949754657484,03,02,60.0233448439,PLT_learning_3,A,2014_Mrz_10_1422,P19,
