Fb3,Fb2,Fb1,Symbol2,Symbol1,PosCond,Pair,Correct,trials.thisRepN,trials.thisTrialN,trials.thisN,trials.thisIndex,Response.keys,Response.corr,Response.rt,Version,Session Number,frameRate,expName,StimCondition,date,Participant,
stim_fb/ques.jpg,stim_fb/posf.jpg,stim_fb/negf.jpg,stim_01/f.jpg,stim_01/e.jpg,1,3,f,0,0,0,47,j,0,1.06636770262,01,02,60.0196385651,PLT_learning_01,A,2014_Mrz_07_1225,P21,
stim_fb/ques.jpg,stim_fb/posf.jpg,stim_fb/negf.jpg,stim_01/e.jpg,stim_01/f.jpg,2,3,j,0,1,1,59,f,0,0.699863345902,01,02,60.0196385651,PLT_learning_01,A,2014_Mrz_07_1225,P21,
stim_fb/ques.jpg,stim_fb/negf.jpg,stim_fb/posf.jpg,stim_01/e.jpg,stim_01/f.jpg,2,3,j,0,2,2,53,f,0,0.549816562971,01,02,60.0196385651,PLT_learning_01,A,2014_Mrz_07_1225,P21,
stim_fb/ques.jpg,stim_fb/negf.jpg,stim_fb/posf.jpg,stim_01/c.jpg,stim_01/d.jpg,2,2,j,0,3,3,31,f,0,0.866392150465,01,02,60.0196385651,PLT_learning_01,A,2014_Mrz_07_1225,P21,
stim_fb/ques.jpg,stim_fb/negf.jpg,stim_fb/posf.jpg,stim_01/e.jpg,stim_01/f.jpg,2,3,j,0,4,4,52,f,0,0.633125085055,01,02,60.0196385651,PLT_learning_01,A,2014_Mrz_07_1225,P21,
stim_fb/ques.jpg,stim_fb/negf.jpg,stim_fb/posf.jpg,stim_01/b.jpg,stim_01/a.jpg,1,1,f,0,5,5,7,j,0,1.24964888366,01,02,60.0196385651,PLT_learning_01,A,2014_Mrz_07_1225,P21,
stim_fb/ques.jpg,stim_fb/posf.jpg,stim_fb/negf.jpg,stim_01/d.jpg,stim_01/c.jpg,1,2,f,0,6,6,28,j,0,0.89974036383,01,02,60.0196385651,PLT_learning_01,A,2014_Mrz_07_1225,P21,
stim_fb/ques.jpg,stim_fb/negf.jpg,stim_fb/posf.jpg,stim_01/d.jpg,stim_01/c.jpg,1,2,f,0,7,7,25,j,0,0.649832559783,01,02,60.0196385651,PLT_learning_01,A,2014_Mrz_07_1225,P21,
stim_fb/ques.jpg,stim_fb/negf.jpg,stim_fb/posf.jpg,stim_01/a.jpg,stim_01/b.jpg,2,1,j,0,8,8,16,f,0,0.699781554343,01,02,60.0196385651,PLT_learning_01,A,2014_Mrz_07_1225,P21,
stim_fb/ques.jpg,stim_fb/negf.jpg,stim_fb/posf.jpg,stim_01/d.jpg,stim_01/c.jpg,1,2,f,0,9,9,22,f,1,1.11635679898,01,02,60.0196385651,PLT_learning_01,A,2014_Mrz_07_1225,P21,
stim_fb/ques.jpg,stim_fb/posf.jpg,stim_fb/negf.jpg,stim_01/f.jpg,stim_01/e.jpg,1,3,f,0,10,10,48,j,0,0.88309618463,01,02,60.0196385651,PLT_learning_01,A,2014_Mrz_07_1225,P21,
stim_fb/ques.jpg,stim_fb/posf.jpg,stim_fb/negf.jpg,stim_01/f.jpg,stim_01/e.jpg,1,3,f,0,11,11,46,f,1,0.949810749503,01,02,60.0196385651,PLT_learning_01,A,2014_Mrz_07_1225,P21,
stim_fb/ques.jpg,stim_fb/negf.jpg,stim_fb/posf.jpg,stim_01/f.jpg,stim_01/e.jpg,1,3,f,0,12,12,45,j,0,0.649841882986,01,02,60.0196385651,PLT_learning_01,A,2014_Mrz_07_1225,P21,
stim_fb/ques.jpg,stim_fb/negf.jpg,stim_fb/posf.jpg,stim_01/e.jpg,stim_01/f.jpg,2,3,j,0,13,13,55,f,0,0.683158430544,01,02,60.0196385651,PLT_learning_01,A,2014_Mrz_07_1225,P21,
stim_fb/ques.jpg,stim_fb/negf.jpg,stim_fb/posf.jpg,stim_01/f.jpg,stim_01/e.jpg,1,3,f,0,14,14,42,f,1,0.699808492386,01,02,60.0196385651,PLT_learning_01,A,2014_Mrz_07_1225,P21,
stim_fb/ques.jpg,stim_fb/negf.jpg,stim_fb/posf.jpg,stim_01/f.jpg,stim_01/e.jpg,1,3,f,0,15,15,43,f,1,0.566524239201,01,02,60.0196385651,PLT_learning_01,A,2014_Mrz_07_1225,P21,
stim_fb/ques.jpg,stim_fb/negf.jpg,stim_fb/posf.jpg,stim_01/b.jpg,stim_01/a.jpg,1,1,f,0,16,16,3,j,0,0.633182867862,01,02,60.0196385651,PLT_learning_01,A,2014_Mrz_07_1225,P21,
stim_fb/ques.jpg,stim_fb/negf.jpg,stim_fb/posf.jpg,stim_01/d.jpg,stim_01/c.jpg,1,2,f,0,17,17,24,j,0,0.816461068484,01,02,60.0196385651,PLT_learning_01,A,2014_Mrz_07_1225,P21,
stim_fb/ques.jpg,stim_fb/negf.jpg,stim_fb/posf.jpg,stim_01/b.jpg,stim_01/a.jpg,1,1,f,0,18,18,0,j,0,0.683162304185,01,02,60.0196385651,PLT_learning_01,A,2014_Mrz_07_1225,P21,
stim_fb/ques.jpg,stim_fb/negf.jpg,stim_fb/posf.jpg,stim_01/d.jpg,stim_01/c.jpg,1,2,f,0,19,19,21,f,1,1.16634198261,01,02,60.0196385651,PLT_learning_01,A,2014_Mrz_07_1225,P21,
stim_fb/ques.jpg,stim_fb/posf.jpg,stim_fb/negf.jpg,stim_01/c.jpg,stim_01/d.jpg,2,2,j,0,20,20,37,j,1,1.29961644342,01,02,60.0196385651,PLT_learning_01,A,2014_Mrz_07_1225,P21,
stim_fb/ques.jpg,stim_fb/posf.jpg,stim_fb/negf.jpg,stim_01/b.jpg,stim_01/a.jpg,1,1,f,0,21,21,9,f,1,1.24957101687,01,02,60.0196385651,PLT_learning_01,A,2014_Mrz_07_1225,P21,
stim_fb/ques.jpg,stim_fb/negf.jpg,stim_fb/posf.jpg,stim_01/a.jpg,stim_01/b.jpg,2,1,j,0,22,22,13,f,0,1.61627838784,01,02,60.0196385651,PLT_learning_01,A,2014_Mrz_07_1225,P21,
stim_fb/ques.jpg,stim_fb/negf.jpg,stim_fb/posf.jpg,stim_01/d.jpg,stim_01/c.jpg,1,2,f,0,23,23,26,j,0,0.566520100901,01,02,60.0196385651,PLT_learning_01,A,2014_Mrz_07_1225,P21,
stim_fb/ques.jpg,stim_fb/posf.jpg,stim_fb/negf.jpg,stim_01/d.jpg,stim_01/c.jpg,1,2,f,0,24,24,29,f,1,0.566526521881,01,02,60.0196385651,PLT_learning_01,A,2014_Mrz_07_1225,P21,
stim_fb/ques.jpg,stim_fb/negf.jpg,stim_fb/posf.jpg,stim_01/b.jpg,stim_01/a.jpg,1,1,f,0,25,25,2,f,1,1.29962156216,01,02,60.0196385651,PLT_learning_01,A,2014_Mrz_07_1225,P21,
stim_fb/ques.jpg,stim_fb/negf.jpg,stim_fb/posf.jpg,stim_01/c.jpg,stim_01/d.jpg,2,2,j,0,26,26,33,f,0,0.833106522859,01,02,60.0196385651,PLT_learning_01,A,2014_Mrz_07_1225,P21,
stim_fb/ques.jpg,stim_fb/negf.jpg,stim_fb/posf.jpg,stim_01/c.jpg,stim_01/d.jpg,2,2,j,0,27,27,34,j,1,0.566543282594,01,02,60.0196385651,PLT_learning_01,A,2014_Mrz_07_1225,P21,
stim_fb/ques.jpg,stim_fb/negf.jpg,stim_fb/posf.jpg,stim_01/a.jpg,stim_01/b.jpg,2,1,j,0,28,28,11,j,1,1.23294614271,01,02,60.0196385651,PLT_learning_01,A,2014_Mrz_07_1225,P21,
stim_fb/ques.jpg,stim_fb/negf.jpg,stim_fb/posf.jpg,stim_01/f.jpg,stim_01/e.jpg,1,3,f,0,29,29,41,j,0,1.36627635327,01,02,60.0196385651,PLT_learning_01,A,2014_Mrz_07_1225,P21,
stim_fb/ques.jpg,stim_fb/negf.jpg,stim_fb/posf.jpg,stim_01/d.jpg,stim_01/c.jpg,1,2,f,0,30,30,23,f,1,1.19966025947,01,02,60.0196385651,PLT_learning_01,A,2014_Mrz_07_1225,P21,
stim_fb/ques.jpg,stim_fb/posf.jpg,stim_fb/negf.jpg,stim_01/a.jpg,stim_01/b.jpg,2,1,j,0,31,31,19,f,0,1.14964221005,01,02,60.0196385651,PLT_learning_01,A,2014_Mrz_07_1225,P21,
stim_fb/ques.jpg,stim_fb/negf.jpg,stim_fb/posf.jpg,stim_01/b.jpg,stim_01/a.jpg,1,1,f,0,32,32,6,f,1,1.34971693402,01,02,60.0196385651,PLT_learning_01,A,2014_Mrz_07_1225,P21,
stim_fb/ques.jpg,stim_fb/negf.jpg,stim_fb/posf.jpg,stim_01/f.jpg,stim_01/e.jpg,1,3,f,0,33,33,40,f,1,1.33296145081,01,02,60.0196385651,PLT_learning_01,A,2014_Mrz_07_1225,P21,
stim_fb/ques.jpg,stim_fb/negf.jpg,stim_fb/posf.jpg,stim_01/b.jpg,stim_01/a.jpg,1,1,f,0,34,34,4,j,0,1.1163198009,01,02,60.0196385651,PLT_learning_01,A,2014_Mrz_07_1225,P21,
stim_fb/ques.jpg,stim_fb/posf.jpg,stim_fb/negf.jpg,stim_01/d.jpg,stim_01/c.jpg,1,2,f,0,35,35,27,f,1,1.29964386266,01,02,60.0196385651,PLT_learning_01,A,2014_Mrz_07_1225,P21,
stim_fb/ques.jpg,stim_fb/negf.jpg,stim_fb/posf.jpg,stim_01/c.jpg,stim_01/d.jpg,2,2,j,0,36,36,32,j,1,0.933078754751,01,02,60.0196385651,PLT_learning_01,A,2014_Mrz_07_1225,P21,
stim_fb/ques.jpg,stim_fb/negf.jpg,stim_fb/posf.jpg,stim_01/c.jpg,stim_01/d.jpg,2,2,j,0,37,37,30,j,1,0.599828702683,01,02,60.0196385651,PLT_learning_01,A,2014_Mrz_07_1225,P21,
stim_fb/ques.jpg,stim_fb/posf.jpg,stim_fb/negf.jpg,stim_01/e.jpg,stim_01/f.jpg,2,3,j,0,38,38,56,j,1,0.733112685196,01,02,60.0196385651,PLT_learning_01,A,2014_Mrz_07_1225,P21,
stim_fb/ques.jpg,stim_fb/posf.jpg,stim_fb/negf.jpg,stim_01/f.jpg,stim_01/e.jpg,1,3,f,0,39,39,49,f,1,0.999712255876,01,02,60.0196385651,PLT_learning_01,A,2014_Mrz_07_1225,P21,
stim_fb/ques.jpg,stim_fb/negf.jpg,stim_fb/posf.jpg,stim_01/c.jpg,stim_01/d.jpg,2,2,j,0,40,40,35,j,1,0.549865464675,01,02,60.0196385651,PLT_learning_01,A,2014_Mrz_07_1225,P21,
stim_fb/ques.jpg,stim_fb/posf.jpg,stim_fb/negf.jpg,stim_01/c.jpg,stim_01/d.jpg,2,2,j,0,41,41,39,j,1,0.583183765597,01,02,60.0196385651,PLT_learning_01,A,2014_Mrz_07_1225,P21,
stim_fb/ques.jpg,stim_fb/posf.jpg,stim_fb/negf.jpg,stim_01/b.jpg,stim_01/a.jpg,1,1,f,0,42,42,8,j,0,0.883092963612,01,02,60.0196385651,PLT_learning_01,A,2014_Mrz_07_1225,P21,
stim_fb/ques.jpg,stim_fb/negf.jpg,stim_fb/posf.jpg,stim_01/b.jpg,stim_01/a.jpg,1,1,f,0,43,43,1,f,1,0.883090052368,01,02,60.0196385651,PLT_learning_01,A,2014_Mrz_07_1225,P21,
stim_fb/ques.jpg,stim_fb/negf.jpg,stim_fb/posf.jpg,stim_01/e.jpg,stim_01/f.jpg,2,3,j,0,44,44,54,j,1,0.683151347917,01,02,60.0196385651,PLT_learning_01,A,2014_Mrz_07_1225,P21,
stim_fb/ques.jpg,stim_fb/negf.jpg,stim_fb/posf.jpg,stim_01/b.jpg,stim_01/a.jpg,1,1,f,0,45,45,5,f,1,0.766454357282,01,02,60.0196385651,PLT_learning_01,A,2014_Mrz_07_1225,P21,
stim_fb/ques.jpg,stim_fb/negf.jpg,stim_fb/posf.jpg,stim_01/a.jpg,stim_01/b.jpg,2,1,j,0,46,46,10,j,1,0.666501613891,01,02,60.0196385651,PLT_learning_01,A,2014_Mrz_07_1225,P21,
stim_fb/ques.jpg,stim_fb/posf.jpg,stim_fb/negf.jpg,stim_01/a.jpg,stim_01/b.jpg,2,1,j,0,47,47,18,j,1,0.599856224178,01,02,60.0196385651,PLT_learning_01,A,2014_Mrz_07_1225,P21,
stim_fb/ques.jpg,stim_fb/negf.jpg,stim_fb/posf.jpg,stim_01/d.jpg,stim_01/c.jpg,1,2,f,0,48,48,20,f,1,0.699821749378,01,02,60.0196385651,PLT_learning_01,A,2014_Mrz_07_1225,P21,
stim_fb/ques.jpg,stim_fb/negf.jpg,stim_fb/posf.jpg,stim_01/a.jpg,stim_01/b.jpg,2,1,j,0,49,49,12,j,1,0.983043385225,01,02,60.0196385651,PLT_learning_01,A,2014_Mrz_07_1225,P21,
stim_fb/ques.jpg,stim_fb/negf.jpg,stim_fb/posf.jpg,stim_01/f.jpg,stim_01/e.jpg,1,3,f,0,50,50,44,f,1,0.83306530227,01,02,60.0196385651,PLT_learning_01,A,2014_Mrz_07_1225,P21,
stim_fb/ques.jpg,stim_fb/posf.jpg,stim_fb/negf.jpg,stim_01/e.jpg,stim_01/f.jpg,2,3,j,0,51,51,58,j,1,0.516533395488,01,02,60.0196385651,PLT_learning_01,A,2014_Mrz_07_1225,P21,
stim_fb/ques.jpg,stim_fb/posf.jpg,stim_fb/negf.jpg,stim_01/e.jpg,stim_01/f.jpg,2,3,j,0,52,52,57,f,0,0.933072081141,01,02,60.0196385651,PLT_learning_01,A,2014_Mrz_07_1225,P21,
stim_fb/ques.jpg,stim_fb/negf.jpg,stim_fb/posf.jpg,stim_01/a.jpg,stim_01/b.jpg,2,1,j,0,53,53,15,j,1,1.11635754484,01,02,60.0196385651,PLT_learning_01,A,2014_Mrz_07_1225,P21,
stim_fb/ques.jpg,stim_fb/negf.jpg,stim_fb/posf.jpg,stim_01/e.jpg,stim_01/f.jpg,2,3,j,0,54,54,50,f,0,0.499869454104,01,02,60.0196385651,PLT_learning_01,A,2014_Mrz_07_1225,P21,
stim_fb/ques.jpg,stim_fb/negf.jpg,stim_fb/posf.jpg,stim_01/e.jpg,stim_01/f.jpg,2,3,j,0,55,55,51,f,0,0.999731386488,01,02,60.0196385651,PLT_learning_01,A,2014_Mrz_07_1225,P21,
stim_fb/ques.jpg,stim_fb/posf.jpg,stim_fb/negf.jpg,stim_01/c.jpg,stim_01/d.jpg,2,2,j,0,56,56,38,j,1,0.933070309733,01,02,60.0196385651,PLT_learning_01,A,2014_Mrz_07_1225,P21,
stim_fb/ques.jpg,stim_fb/negf.jpg,stim_fb/posf.jpg,stim_01/a.jpg,stim_01/b.jpg,2,1,j,0,57,57,14,j,1,1.13298832269,01,02,60.0196385651,PLT_learning_01,A,2014_Mrz_07_1225,P21,
stim_fb/ques.jpg,stim_fb/negf.jpg,stim_fb/posf.jpg,stim_01/c.jpg,stim_01/d.jpg,2,2,j,0,58,58,36,j,1,0.866426123014,01,02,60.0196385651,PLT_learning_01,A,2014_Mrz_07_1225,P21,
stim_fb/ques.jpg,stim_fb/negf.jpg,stim_fb/posf.jpg,stim_01/a.jpg,stim_01/b.jpg,2,1,j,0,59,59,17,j,1,0.783130984237,01,02,60.0196385651,PLT_learning_01,A,2014_Mrz_07_1225,P21,
stim_fb/ques.jpg,stim_fb/negf.jpg,stim_fb/posf.jpg,stim_01/b.jpg,stim_01/a.jpg,1,1,f,1,0,60,1,j,0,1.23296238012,01,02,60.0196385651,PLT_learning_01,A,2014_Mrz_07_1225,P21,
stim_fb/ques.jpg,stim_fb/negf.jpg,stim_fb/posf.jpg,stim_01/f.jpg,stim_01/e.jpg,1,3,f,1,1,61,45,j,0,0.816379553614,01,02,60.0196385651,PLT_learning_01,A,2014_Mrz_07_1225,P21,
stim_fb/ques.jpg,stim_fb/negf.jpg,stim_fb/posf.jpg,stim_01/f.jpg,stim_01/e.jpg,1,3,f,1,2,62,43,f,1,0.483179928046,01,02,60.0196385651,PLT_learning_01,A,2014_Mrz_07_1225,P21,
stim_fb/ques.jpg,stim_fb/posf.jpg,stim_fb/negf.jpg,stim_01/a.jpg,stim_01/b.jpg,2,1,j,1,3,63,19,j,1,0.76647408939,01,02,60.0196385651,PLT_learning_01,A,2014_Mrz_07_1225,P21,
stim_fb/ques.jpg,stim_fb/negf.jpg,stim_fb/posf.jpg,stim_01/a.jpg,stim_01/b.jpg,2,1,j,1,4,64,14,f,0,0.399914858103,01,02,60.0196385651,PLT_learning_01,A,2014_Mrz_07_1225,P21,
stim_fb/ques.jpg,stim_fb/negf.jpg,stim_fb/posf.jpg,stim_01/e.jpg,stim_01/f.jpg,2,3,j,1,5,65,51,f,0,1.2496188028,01,02,60.0196385651,PLT_learning_01,A,2014_Mrz_07_1225,P21,
stim_fb/ques.jpg,stim_fb/posf.jpg,stim_fb/negf.jpg,stim_01/d.jpg,stim_01/c.jpg,1,2,f,1,6,66,28,j,0,0.699834125179,01,02,60.0196385651,PLT_learning_01,A,2014_Mrz_07_1225,P21,
stim_fb/ques.jpg,stim_fb/negf.jpg,stim_fb/posf.jpg,stim_01/c.jpg,stim_01/d.jpg,2,2,j,1,7,67,32,j,1,0.616483332895,01,02,60.0196385651,PLT_learning_01,A,2014_Mrz_07_1225,P21,
stim_fb/ques.jpg,stim_fb/negf.jpg,stim_fb/posf.jpg,stim_01/e.jpg,stim_01/f.jpg,2,3,j,1,8,68,53,j,1,0.899760643301,01,02,60.0196385651,PLT_learning_01,A,2014_Mrz_07_1225,P21,
stim_fb/ques.jpg,stim_fb/posf.jpg,stim_fb/negf.jpg,stim_01/e.jpg,stim_01/f.jpg,2,3,j,1,9,69,56,j,1,0.6334294726,01,02,60.0196385651,PLT_learning_01,A,2014_Mrz_07_1225,P21,
stim_fb/ques.jpg,stim_fb/posf.jpg,stim_fb/negf.jpg,stim_01/a.jpg,stim_01/b.jpg,2,1,j,1,10,70,18,f,0,0.733146263764,01,02,60.0196385651,PLT_learning_01,A,2014_Mrz_07_1225,P21,
stim_fb/ques.jpg,stim_fb/negf.jpg,stim_fb/posf.jpg,stim_01/a.jpg,stim_01/b.jpg,2,1,j,1,11,71,10,f,0,1.03305953993,01,02,60.0196385651,PLT_learning_01,A,2014_Mrz_07_1225,P21,
stim_fb/ques.jpg,stim_fb/negf.jpg,stim_fb/posf.jpg,stim_01/b.jpg,stim_01/a.jpg,1,1,f,1,12,72,6,f,1,1.13301766371,01,02,60.0196385651,PLT_learning_01,A,2014_Mrz_07_1225,P21,
stim_fb/ques.jpg,stim_fb/negf.jpg,stim_fb/posf.jpg,stim_01/b.jpg,stim_01/a.jpg,1,1,f,1,13,73,5,f,1,0.483209287113,01,02,60.0196385651,PLT_learning_01,A,2014_Mrz_07_1225,P21,
stim_fb/ques.jpg,stim_fb/negf.jpg,stim_fb/posf.jpg,stim_01/d.jpg,stim_01/c.jpg,1,2,f,1,14,74,23,f,1,0.89976644474,01,02,60.0196385651,PLT_learning_01,A,2014_Mrz_07_1225,P21,
stim_fb/ques.jpg,stim_fb/negf.jpg,stim_fb/posf.jpg,stim_01/d.jpg,stim_01/c.jpg,1,2,f,1,15,75,22,f,1,0.583180869388,01,02,60.0196385651,PLT_learning_01,A,2014_Mrz_07_1225,P21,
stim_fb/ques.jpg,stim_fb/negf.jpg,stim_fb/posf.jpg,stim_01/a.jpg,stim_01/b.jpg,2,1,j,1,16,76,12,j,1,1.08299973459,01,02,60.0196385651,PLT_learning_01,A,2014_Mrz_07_1225,P21,
stim_fb/ques.jpg,stim_fb/posf.jpg,stim_fb/negf.jpg,stim_01/c.jpg,stim_01/d.jpg,2,2,j,1,17,77,37,j,1,0.683131889489,01,02,60.0196385651,PLT_learning_01,A,2014_Mrz_07_1225,P21,
stim_fb/ques.jpg,stim_fb/negf.jpg,stim_fb/posf.jpg,stim_01/b.jpg,stim_01/a.jpg,1,1,f,1,18,78,3,f,1,1.09969966053,01,02,60.0196385651,PLT_learning_01,A,2014_Mrz_07_1225,P21,
stim_fb/ques.jpg,stim_fb/negf.jpg,stim_fb/posf.jpg,stim_01/a.jpg,stim_01/b.jpg,2,1,j,1,19,79,13,j,1,1.04970351162,01,02,60.0196385651,PLT_learning_01,A,2014_Mrz_07_1225,P21,
stim_fb/ques.jpg,stim_fb/negf.jpg,stim_fb/posf.jpg,stim_01/a.jpg,stim_01/b.jpg,2,1,j,1,20,80,11,j,1,0.748837190558,01,02,60.0196385651,PLT_learning_01,A,2014_Mrz_07_1225,P21,
stim_fb/ques.jpg,stim_fb/negf.jpg,stim_fb/posf.jpg,stim_01/f.jpg,stim_01/e.jpg,1,3,f,1,21,81,42,j,0,1.44956951613,01,02,60.0196385651,PLT_learning_01,A,2014_Mrz_07_1225,P21,
stim_fb/ques.jpg,stim_fb/negf.jpg,stim_fb/posf.jpg,stim_01/d.jpg,stim_01/c.jpg,1,2,f,1,22,82,21,f,1,0.816444250629,01,02,60.0196385651,PLT_learning_01,A,2014_Mrz_07_1225,P21,
stim_fb/ques.jpg,stim_fb/negf.jpg,stim_fb/posf.jpg,stim_01/a.jpg,stim_01/b.jpg,2,1,j,1,23,83,17,j,1,1.16632988951,01,02,60.0196385651,PLT_learning_01,A,2014_Mrz_07_1225,P21,
stim_fb/ques.jpg,stim_fb/negf.jpg,stim_fb/posf.jpg,stim_01/f.jpg,stim_01/e.jpg,1,3,f,1,24,84,40,f,1,0.766427319993,01,02,60.0196385651,PLT_learning_01,A,2014_Mrz_07_1225,P21,
stim_fb/ques.jpg,stim_fb/posf.jpg,stim_fb/negf.jpg,stim_01/f.jpg,stim_01/e.jpg,1,3,f,1,25,85,48,f,1,0.499905330391,01,02,60.0196385651,PLT_learning_01,A,2014_Mrz_07_1225,P21,
stim_fb/ques.jpg,stim_fb/negf.jpg,stim_fb/posf.jpg,stim_01/d.jpg,stim_01/c.jpg,1,2,f,1,26,86,24,f,1,0.799780200975,01,02,60.0196385651,PLT_learning_01,A,2014_Mrz_07_1225,P21,
stim_fb/ques.jpg,stim_fb/negf.jpg,stim_fb/posf.jpg,stim_01/e.jpg,stim_01/f.jpg,2,3,j,1,27,87,54,j,1,0.949733189475,01,02,60.0196385651,PLT_learning_01,A,2014_Mrz_07_1225,P21,
stim_fb/ques.jpg,stim_fb/negf.jpg,stim_fb/posf.jpg,stim_01/c.jpg,stim_01/d.jpg,2,2,j,1,28,88,35,j,1,0.749804914983,01,02,60.0196385651,PLT_learning_01,A,2014_Mrz_07_1225,P21,
stim_fb/ques.jpg,stim_fb/negf.jpg,stim_fb/posf.jpg,stim_01/c.jpg,stim_01/d.jpg,2,2,j,1,29,89,33,j,1,0.783102828163,01,02,60.0196385651,PLT_learning_01,A,2014_Mrz_07_1225,P21,
stim_fb/ques.jpg,stim_fb/negf.jpg,stim_fb/posf.jpg,stim_01/c.jpg,stim_01/d.jpg,2,2,j,1,30,90,30,j,1,0.633154528333,01,02,60.0196385651,PLT_learning_01,A,2014_Mrz_07_1225,P21,
stim_fb/ques.jpg,stim_fb/negf.jpg,stim_fb/posf.jpg,stim_01/d.jpg,stim_01/c.jpg,1,2,f,1,31,91,26,f,1,0.549868156374,01,02,60.0196385651,PLT_learning_01,A,2014_Mrz_07_1225,P21,
stim_fb/ques.jpg,stim_fb/negf.jpg,stim_fb/posf.jpg,stim_01/d.jpg,stim_01/c.jpg,1,2,f,1,32,92,20,f,1,0.699867818032,01,02,60.0196385651,PLT_learning_01,A,2014_Mrz_07_1225,P21,
stim_fb/ques.jpg,stim_fb/posf.jpg,stim_fb/negf.jpg,stim_01/f.jpg,stim_01/e.jpg,1,3,f,1,33,93,47,f,1,0.833098321448,01,02,60.0196385651,PLT_learning_01,A,2014_Mrz_07_1225,P21,
stim_fb/ques.jpg,stim_fb/negf.jpg,stim_fb/posf.jpg,stim_01/e.jpg,stim_01/f.jpg,2,3,j,1,34,94,55,j,1,1.34958323327,01,02,60.0196385651,PLT_learning_01,A,2014_Mrz_07_1225,P21,
stim_fb/ques.jpg,stim_fb/posf.jpg,stim_fb/negf.jpg,stim_01/b.jpg,stim_01/a.jpg,1,1,f,1,35,95,8,f,1,0.849754870434,01,02,60.0196385651,PLT_learning_01,A,2014_Mrz_07_1225,P21,
stim_fb/ques.jpg,stim_fb/posf.jpg,stim_fb/negf.jpg,stim_01/d.jpg,stim_01/c.jpg,1,2,f,1,36,96,29,f,1,0.683166559776,01,02,60.0196385651,PLT_learning_01,A,2014_Mrz_07_1225,P21,
stim_fb/ques.jpg,stim_fb/posf.jpg,stim_fb/negf.jpg,stim_01/f.jpg,stim_01/e.jpg,1,3,f,1,37,97,49,f,1,0.766479710379,01,02,60.0196385651,PLT_learning_01,A,2014_Mrz_07_1225,P21,
stim_fb/ques.jpg,stim_fb/negf.jpg,stim_fb/posf.jpg,stim_01/e.jpg,stim_01/f.jpg,2,3,j,1,38,98,52,j,1,0.749776334854,01,02,60.0196385651,PLT_learning_01,A,2014_Mrz_07_1225,P21,
stim_fb/ques.jpg,stim_fb/negf.jpg,stim_fb/posf.jpg,stim_01/c.jpg,stim_01/d.jpg,2,2,j,1,39,99,31,j,1,0.816400031578,01,02,60.0196385651,PLT_learning_01,A,2014_Mrz_07_1225,P21,
stim_fb/ques.jpg,stim_fb/posf.jpg,stim_fb/negf.jpg,stim_01/b.jpg,stim_01/a.jpg,1,1,f,1,40,100,9,f,1,0.616510069435,01,02,60.0196385651,PLT_learning_01,A,2014_Mrz_07_1225,P21,
stim_fb/ques.jpg,stim_fb/posf.jpg,stim_fb/negf.jpg,stim_01/f.jpg,stim_01/e.jpg,1,3,f,1,41,101,46,f,1,0.98304221832,01,02,60.0196385651,PLT_learning_01,A,2014_Mrz_07_1225,P21,
stim_fb/ques.jpg,stim_fb/negf.jpg,stim_fb/posf.jpg,stim_01/e.jpg,stim_01/f.jpg,2,3,j,1,42,102,50,j,1,0.749783462593,01,02,60.0196385651,PLT_learning_01,A,2014_Mrz_07_1225,P21,
stim_fb/ques.jpg,stim_fb/negf.jpg,stim_fb/posf.jpg,stim_01/a.jpg,stim_01/b.jpg,2,1,j,1,43,103,15,j,1,0.699817941902,01,02,60.0196385651,PLT_learning_01,A,2014_Mrz_07_1225,P21,
stim_fb/ques.jpg,stim_fb/posf.jpg,stim_fb/negf.jpg,stim_01/c.jpg,stim_01/d.jpg,2,2,j,1,44,104,39,j,1,0.89980248343,01,02,60.0196385651,PLT_learning_01,A,2014_Mrz_07_1225,P21,
stim_fb/ques.jpg,stim_fb/negf.jpg,stim_fb/posf.jpg,stim_01/b.jpg,stim_01/a.jpg,1,1,f,1,45,105,2,f,1,0.649789176814,01,02,60.0196385651,PLT_learning_01,A,2014_Mrz_07_1225,P21,
stim_fb/ques.jpg,stim_fb/negf.jpg,stim_fb/posf.jpg,stim_01/c.jpg,stim_01/d.jpg,2,2,j,1,46,106,34,j,1,0.933061870731,01,02,60.0196385651,PLT_learning_01,A,2014_Mrz_07_1225,P21,
stim_fb/ques.jpg,stim_fb/negf.jpg,stim_fb/posf.jpg,stim_01/b.jpg,stim_01/a.jpg,1,1,f,1,47,107,7,j,0,1.51623821085,01,02,60.0196385651,PLT_learning_01,A,2014_Mrz_07_1225,P21,
stim_fb/ques.jpg,stim_fb/negf.jpg,stim_fb/posf.jpg,stim_01/b.jpg,stim_01/a.jpg,1,1,f,1,48,108,4,f,1,0.583158623022,01,02,60.0196385651,PLT_learning_01,A,2014_Mrz_07_1225,P21,
stim_fb/ques.jpg,stim_fb/posf.jpg,stim_fb/negf.jpg,stim_01/d.jpg,stim_01/c.jpg,1,2,f,1,49,109,27,f,1,0.849763095905,01,02,60.0196385651,PLT_learning_01,A,2014_Mrz_07_1225,P21,
stim_fb/ques.jpg,stim_fb/negf.jpg,stim_fb/posf.jpg,stim_01/c.jpg,stim_01/d.jpg,2,2,j,1,50,110,36,j,1,0.599836687556,01,02,60.0196385651,PLT_learning_01,A,2014_Mrz_07_1225,P21,
stim_fb/ques.jpg,stim_fb/negf.jpg,stim_fb/posf.jpg,stim_01/a.jpg,stim_01/b.jpg,2,1,j,1,51,111,16,j,1,1.03296601317,01,02,60.0196385651,PLT_learning_01,A,2014_Mrz_07_1225,P21,
stim_fb/ques.jpg,stim_fb/posf.jpg,stim_fb/negf.jpg,stim_01/e.jpg,stim_01/f.jpg,2,3,j,1,52,112,59,j,1,0.916362816961,01,02,60.0196385651,PLT_learning_01,A,2014_Mrz_07_1225,P21,
stim_fb/ques.jpg,stim_fb/posf.jpg,stim_fb/negf.jpg,stim_01/e.jpg,stim_01/f.jpg,2,3,j,1,53,113,57,j,1,0.916397285745,01,02,60.0196385651,PLT_learning_01,A,2014_Mrz_07_1225,P21,
stim_fb/ques.jpg,stim_fb/negf.jpg,stim_fb/posf.jpg,stim_01/d.jpg,stim_01/c.jpg,1,2,f,1,54,114,25,j,0,1.39955954181,01,02,60.0196385651,PLT_learning_01,A,2014_Mrz_07_1225,P21,
stim_fb/ques.jpg,stim_fb/negf.jpg,stim_fb/posf.jpg,stim_01/b.jpg,stim_01/a.jpg,1,1,f,1,55,115,0,f,1,1.24968813134,01,02,60.0196385651,PLT_learning_01,A,2014_Mrz_07_1225,P21,
stim_fb/ques.jpg,stim_fb/posf.jpg,stim_fb/negf.jpg,stim_01/c.jpg,stim_01/d.jpg,2,2,j,1,56,116,38,f,0,0.883102371026,01,02,60.0196385651,PLT_learning_01,A,2014_Mrz_07_1225,P21,
stim_fb/ques.jpg,stim_fb/negf.jpg,stim_fb/posf.jpg,stim_01/f.jpg,stim_01/e.jpg,1,3,f,1,57,117,41,f,1,1.44955881851,01,02,60.0196385651,PLT_learning_01,A,2014_Mrz_07_1225,P21,
stim_fb/ques.jpg,stim_fb/negf.jpg,stim_fb/posf.jpg,stim_01/f.jpg,stim_01/e.jpg,1,3,f,1,58,118,44,j,0,0.816464250403,01,02,60.0196385651,PLT_learning_01,A,2014_Mrz_07_1225,P21,
stim_fb/ques.jpg,stim_fb/posf.jpg,stim_fb/negf.jpg,stim_01/e.jpg,stim_01/f.jpg,2,3,j,1,59,119,58,f,0,1.48285169415,01,02,60.0196385651,PLT_learning_01,A,2014_Mrz_07_1225,P21,
stim_fb/ques.jpg,stim_fb/negf.jpg,stim_fb/posf.jpg,stim_01/e.jpg,stim_01/f.jpg,2,3,j,2,0,120,50,j,1,1.16632937523,01,02,60.0196385651,PLT_learning_01,A,2014_Mrz_07_1225,P21,
stim_fb/ques.jpg,stim_fb/negf.jpg,stim_fb/posf.jpg,stim_01/d.jpg,stim_01/c.jpg,1,2,f,2,1,121,21,j,0,1.38291693552,01,02,60.0196385651,PLT_learning_01,A,2014_Mrz_07_1225,P21,
stim_fb/ques.jpg,stim_fb/negf.jpg,stim_fb/posf.jpg,stim_01/b.jpg,stim_01/a.jpg,1,1,f,2,2,122,0,f,1,1.36625752943,01,02,60.0196385651,PLT_learning_01,A,2014_Mrz_07_1225,P21,
stim_fb/ques.jpg,stim_fb/negf.jpg,stim_fb/posf.jpg,stim_01/b.jpg,stim_01/a.jpg,1,1,f,2,3,123,5,f,1,1.08302035992,01,02,60.0196385651,PLT_learning_01,A,2014_Mrz_07_1225,P21,
stim_fb/ques.jpg,stim_fb/posf.jpg,stim_fb/negf.jpg,stim_01/e.jpg,stim_01/f.jpg,2,3,j,2,4,124,57,f,0,1.33293819092,01,02,60.0196385651,PLT_learning_01,A,2014_Mrz_07_1225,P21,
stim_fb/ques.jpg,stim_fb/negf.jpg,stim_fb/posf.jpg,stim_01/e.jpg,stim_01/f.jpg,2,3,j,2,5,125,53,f,0,0.866431494382,01,02,60.0196385651,PLT_learning_01,A,2014_Mrz_07_1225,P21,
stim_fb/ques.jpg,stim_fb/posf.jpg,stim_fb/negf.jpg,stim_01/a.jpg,stim_01/b.jpg,2,1,j,2,6,126,19,j,1,1.08302066668,01,02,60.0196385651,PLT_learning_01,A,2014_Mrz_07_1225,P21,
stim_fb/ques.jpg,stim_fb/negf.jpg,stim_fb/posf.jpg,stim_01/a.jpg,stim_01/b.jpg,2,1,j,2,7,127,15,j,1,0.74982211178,01,02,60.0196385651,PLT_learning_01,A,2014_Mrz_07_1225,P21,
stim_fb/ques.jpg,stim_fb/negf.jpg,stim_fb/posf.jpg,stim_01/b.jpg,stim_01/a.jpg,1,1,f,2,8,128,7,f,1,0.549878739714,01,02,60.0196385651,PLT_learning_01,A,2014_Mrz_07_1225,P21,
stim_fb/ques.jpg,stim_fb/negf.jpg,stim_fb/posf.jpg,stim_01/a.jpg,stim_01/b.jpg,2,1,j,2,9,129,12,j,1,1.01639643162,01,02,60.0196385651,PLT_learning_01,A,2014_Mrz_07_1225,P21,
stim_fb/ques.jpg,stim_fb/negf.jpg,stim_fb/posf.jpg,stim_01/b.jpg,stim_01/a.jpg,1,1,f,2,10,130,3,f,1,0.60001839077,01,02,60.0196385651,PLT_learning_01,A,2014_Mrz_07_1225,P21,
stim_fb/ques.jpg,stim_fb/posf.jpg,stim_fb/negf.jpg,stim_01/c.jpg,stim_01/d.jpg,2,2,j,2,11,131,38,j,1,0.799711543103,01,02,60.0196385651,PLT_learning_01,A,2014_Mrz_07_1225,P21,
stim_fb/ques.jpg,stim_fb/negf.jpg,stim_fb/posf.jpg,stim_01/c.jpg,stim_01/d.jpg,2,2,j,2,12,132,35,j,1,0.783004597693,01,02,60.0196385651,PLT_learning_01,A,2014_Mrz_07_1225,P21,
stim_fb/ques.jpg,stim_fb/negf.jpg,stim_fb/posf.jpg,stim_01/b.jpg,stim_01/a.jpg,1,1,f,2,13,133,1,f,1,0.549878736706,01,02,60.0196385651,PLT_learning_01,A,2014_Mrz_07_1225,P21,
stim_fb/ques.jpg,stim_fb/posf.jpg,stim_fb/negf.jpg,stim_01/f.jpg,stim_01/e.jpg,1,3,f,2,14,134,49,f,1,0.883060082781,01,02,60.0196385651,PLT_learning_01,A,2014_Mrz_07_1225,P21,
stim_fb/ques.jpg,stim_fb/negf.jpg,stim_fb/posf.jpg,stim_01/c.jpg,stim_01/d.jpg,2,2,j,2,15,135,34,j,1,1.09966659023,01,02,60.0196385651,PLT_learning_01,A,2014_Mrz_07_1225,P21,
stim_fb/ques.jpg,stim_fb/posf.jpg,stim_fb/negf.jpg,stim_01/e.jpg,stim_01/f.jpg,2,3,j,2,16,136,56,f,0,0.516538685653,01,02,60.0196385651,PLT_learning_01,A,2014_Mrz_07_1225,P21,
stim_fb/ques.jpg,stim_fb/negf.jpg,stim_fb/posf.jpg,stim_01/e.jpg,stim_01/f.jpg,2,3,j,2,17,137,51,j,1,1.0496869103,01,02,60.0196385651,PLT_learning_01,A,2014_Mrz_07_1225,P21,
stim_fb/ques.jpg,stim_fb/negf.jpg,stim_fb/posf.jpg,stim_01/c.jpg,stim_01/d.jpg,2,2,j,2,18,138,33,f,0,0.833121620433,01,02,60.0196385651,PLT_learning_01,A,2014_Mrz_07_1225,P21,
stim_fb/ques.jpg,stim_fb/posf.jpg,stim_fb/negf.jpg,stim_01/e.jpg,stim_01/f.jpg,2,3,j,2,19,139,59,f,0,1.03304854156,01,02,60.0196385651,PLT_learning_01,A,2014_Mrz_07_1225,P21,
stim_fb/ques.jpg,stim_fb/posf.jpg,stim_fb/negf.jpg,stim_01/d.jpg,stim_01/c.jpg,1,2,f,2,20,140,27,f,1,0.833100919914,01,02,60.0196385651,PLT_learning_01,A,2014_Mrz_07_1225,P21,
stim_fb/ques.jpg,stim_fb/posf.jpg,stim_fb/negf.jpg,stim_01/c.jpg,stim_01/d.jpg,2,2,j,2,21,141,37,j,1,0.499861703815,01,02,60.0196385651,PLT_learning_01,A,2014_Mrz_07_1225,P21,
stim_fb/ques.jpg,stim_fb/posf.jpg,stim_fb/negf.jpg,stim_01/c.jpg,stim_01/d.jpg,2,2,j,2,22,142,39,j,1,0.69979820378,01,02,60.0196385651,PLT_learning_01,A,2014_Mrz_07_1225,P21,
stim_fb/ques.jpg,stim_fb/negf.jpg,stim_fb/posf.jpg,stim_01/f.jpg,stim_01/e.jpg,1,3,f,2,23,143,43,f,1,0.566488934335,01,02,60.0196385651,PLT_learning_01,A,2014_Mrz_07_1225,P21,
stim_fb/ques.jpg,stim_fb/posf.jpg,stim_fb/negf.jpg,stim_01/e.jpg,stim_01/f.jpg,2,3,j,2,24,144,58,j,1,1.53286817668,01,02,60.0196385651,PLT_learning_01,A,2014_Mrz_07_1225,P21,
stim_fb/ques.jpg,stim_fb/negf.jpg,stim_fb/posf.jpg,stim_01/a.jpg,stim_01/b.jpg,2,1,j,2,25,145,14,j,1,0.699768059759,01,02,60.0196385651,PLT_learning_01,A,2014_Mrz_07_1225,P21,
stim_fb/ques.jpg,stim_fb/posf.jpg,stim_fb/negf.jpg,stim_01/f.jpg,stim_01/e.jpg,1,3,f,2,26,146,48,f,1,0.883070079661,01,02,60.0196385651,PLT_learning_01,A,2014_Mrz_07_1225,P21,
stim_fb/ques.jpg,stim_fb/negf.jpg,stim_fb/posf.jpg,stim_01/c.jpg,stim_01/d.jpg,2,2,j,2,27,147,31,j,1,0.549826589926,01,02,60.0196385651,PLT_learning_01,A,2014_Mrz_07_1225,P21,
stim_fb/ques.jpg,stim_fb/negf.jpg,stim_fb/posf.jpg,stim_01/f.jpg,stim_01/e.jpg,1,3,f,2,28,148,45,f,1,0.533204939794,01,02,60.0196385651,PLT_learning_01,A,2014_Mrz_07_1225,P21,
stim_fb/ques.jpg,stim_fb/negf.jpg,stim_fb/posf.jpg,stim_01/d.jpg,stim_01/c.jpg,1,2,f,2,29,149,25,f,1,0.699809987106,01,02,60.0196385651,PLT_learning_01,A,2014_Mrz_07_1225,P21,
stim_fb/ques.jpg,stim_fb/posf.jpg,stim_fb/negf.jpg,stim_01/d.jpg,stim_01/c.jpg,1,2,f,2,30,150,29,f,1,0.699815054717,01,02,60.0196385651,PLT_learning_01,A,2014_Mrz_07_1225,P21,
stim_fb/ques.jpg,stim_fb/negf.jpg,stim_fb/posf.jpg,stim_01/b.jpg,stim_01/a.jpg,1,1,f,2,31,151,2,f,1,0.849758951591,01,02,60.0196385651,PLT_learning_01,A,2014_Mrz_07_1225,P21,
stim_fb/ques.jpg,stim_fb/negf.jpg,stim_fb/posf.jpg,stim_01/d.jpg,stim_01/c.jpg,1,2,f,2,32,152,26,j,0,0.583207229994,01,02,60.0196385651,PLT_learning_01,A,2014_Mrz_07_1225,P21,
stim_fb/ques.jpg,stim_fb/negf.jpg,stim_fb/posf.jpg,stim_01/c.jpg,stim_01/d.jpg,2,2,j,2,33,153,32,j,1,0.716493702703,01,02,60.0196385651,PLT_learning_01,A,2014_Mrz_07_1225,P21,
stim_fb/ques.jpg,stim_fb/negf.jpg,stim_fb/posf.jpg,stim_01/c.jpg,stim_01/d.jpg,2,2,j,2,34,154,30,j,1,0.649848367124,01,02,60.0196385651,PLT_learning_01,A,2014_Mrz_07_1225,P21,
stim_fb/ques.jpg,stim_fb/posf.jpg,stim_fb/negf.jpg,stim_01/f.jpg,stim_01/e.jpg,1,3,f,2,35,155,47,f,1,0.68314328485,01,02,60.0196385651,PLT_learning_01,A,2014_Mrz_07_1225,P21,
stim_fb/ques.jpg,stim_fb/negf.jpg,stim_fb/posf.jpg,stim_01/f.jpg,stim_01/e.jpg,1,3,f,2,36,156,40,j,0,0.933089819287,01,02,60.0196385651,PLT_learning_01,A,2014_Mrz_07_1225,P21,
stim_fb/ques.jpg,stim_fb/negf.jpg,stim_fb/posf.jpg,stim_01/d.jpg,stim_01/c.jpg,1,2,f,2,37,157,22,f,1,0.633220819313,01,02,60.0196385651,PLT_learning_01,A,2014_Mrz_07_1225,P21,
stim_fb/ques.jpg,stim_fb/posf.jpg,stim_fb/negf.jpg,stim_01/d.jpg,stim_01/c.jpg,1,2,f,2,38,158,28,f,1,0.483222733578,01,02,60.0196385651,PLT_learning_01,A,2014_Mrz_07_1225,P21,
stim_fb/ques.jpg,stim_fb/negf.jpg,stim_fb/posf.jpg,stim_01/c.jpg,stim_01/d.jpg,2,2,j,2,39,159,36,j,1,0.533226704962,01,02,60.0196385651,PLT_learning_01,A,2014_Mrz_07_1225,P21,
stim_fb/ques.jpg,stim_fb/negf.jpg,stim_fb/posf.jpg,stim_01/d.jpg,stim_01/c.jpg,1,2,f,2,40,160,20,f,1,0.649833287594,01,02,60.0196385651,PLT_learning_01,A,2014_Mrz_07_1225,P21,
stim_fb/ques.jpg,stim_fb/negf.jpg,stim_fb/posf.jpg,stim_01/a.jpg,stim_01/b.jpg,2,1,j,2,41,161,16,j,1,1.19966977816,01,02,60.0196385651,PLT_learning_01,A,2014_Mrz_07_1225,P21,
stim_fb/ques.jpg,stim_fb/negf.jpg,stim_fb/posf.jpg,stim_01/e.jpg,stim_01/f.jpg,2,3,j,2,42,162,55,j,1,0.983061763965,01,02,60.0196385651,PLT_learning_01,A,2014_Mrz_07_1225,P21,
stim_fb/ques.jpg,stim_fb/posf.jpg,stim_fb/negf.jpg,stim_01/f.jpg,stim_01/e.jpg,1,3,f,2,43,163,46,f,1,0.633190437702,01,02,60.0196385651,PLT_learning_01,A,2014_Mrz_07_1225,P21,
stim_fb/ques.jpg,stim_fb/negf.jpg,stim_fb/posf.jpg,stim_01/a.jpg,stim_01/b.jpg,2,1,j,2,44,164,17,j,1,0.766431635734,01,02,60.0196385651,PLT_learning_01,A,2014_Mrz_07_1225,P21,
stim_fb/ques.jpg,stim_fb/negf.jpg,stim_fb/posf.jpg,stim_01/a.jpg,stim_01/b.jpg,2,1,j,2,45,165,11,j,1,0.699818853171,01,02,60.0196385651,PLT_learning_01,A,2014_Mrz_07_1225,P21,
stim_fb/ques.jpg,stim_fb/negf.jpg,stim_fb/posf.jpg,stim_01/a.jpg,stim_01/b.jpg,2,1,j,2,46,166,10,j,1,0.633166031962,01,02,60.0196385651,PLT_learning_01,A,2014_Mrz_07_1225,P21,
stim_fb/ques.jpg,stim_fb/negf.jpg,stim_fb/posf.jpg,stim_01/a.jpg,stim_01/b.jpg,2,1,j,2,47,167,13,j,1,0.54986504062,01,02,60.0196385651,PLT_learning_01,A,2014_Mrz_07_1225,P21,
stim_fb/ques.jpg,stim_fb/posf.jpg,stim_fb/negf.jpg,stim_01/b.jpg,stim_01/a.jpg,1,1,f,2,48,168,9,f,1,0.899602479671,01,02,60.0196385651,PLT_learning_01,A,2014_Mrz_07_1225,P21,
stim_fb/ques.jpg,stim_fb/negf.jpg,stim_fb/posf.jpg,stim_01/b.jpg,stim_01/a.jpg,1,1,f,2,49,169,6,j,0,0.883087553148,01,02,60.0196385651,PLT_learning_01,A,2014_Mrz_07_1225,P21,
stim_fb/ques.jpg,stim_fb/negf.jpg,stim_fb/posf.jpg,stim_01/f.jpg,stim_01/e.jpg,1,3,f,2,50,170,44,f,1,1.31627289617,01,02,60.0196385651,PLT_learning_01,A,2014_Mrz_07_1225,P21,
stim_fb/ques.jpg,stim_fb/posf.jpg,stim_fb/negf.jpg,stim_01/b.jpg,stim_01/a.jpg,1,1,f,2,51,171,8,j,0,0.53321671109,01,02,60.0196385651,PLT_learning_01,A,2014_Mrz_07_1225,P21,
stim_fb/ques.jpg,stim_fb/negf.jpg,stim_fb/posf.jpg,stim_01/d.jpg,stim_01/c.jpg,1,2,f,2,52,172,23,f,1,1.36625977903,01,02,60.0196385651,PLT_learning_01,A,2014_Mrz_07_1225,P21,
stim_fb/ques.jpg,stim_fb/negf.jpg,stim_fb/posf.jpg,stim_01/f.jpg,stim_01/e.jpg,1,3,f,2,53,173,41,f,1,1.51621059011,01,02,60.0196385651,PLT_learning_01,A,2014_Mrz_07_1225,P21,
stim_fb/ques.jpg,stim_fb/negf.jpg,stim_fb/posf.jpg,stim_01/b.jpg,stim_01/a.jpg,1,1,f,2,54,174,4,f,1,1.2996736909,01,02,60.0196385651,PLT_learning_01,A,2014_Mrz_07_1225,P21,
stim_fb/ques.jpg,stim_fb/posf.jpg,stim_fb/negf.jpg,stim_01/a.jpg,stim_01/b.jpg,2,1,j,2,55,175,18,j,1,0.733144576565,01,02,60.0196385651,PLT_learning_01,A,2014_Mrz_07_1225,P21,
stim_fb/ques.jpg,stim_fb/negf.jpg,stim_fb/posf.jpg,stim_01/e.jpg,stim_01/f.jpg,2,3,j,2,56,176,52,j,1,0.783123164776,01,02,60.0196385651,PLT_learning_01,A,2014_Mrz_07_1225,P21,
stim_fb/ques.jpg,stim_fb/negf.jpg,stim_fb/posf.jpg,stim_01/e.jpg,stim_01/f.jpg,2,3,j,2,57,177,54,j,1,0.466537168378,01,02,60.0196385651,PLT_learning_01,A,2014_Mrz_07_1225,P21,
stim_fb/ques.jpg,stim_fb/negf.jpg,stim_fb/posf.jpg,stim_01/d.jpg,stim_01/c.jpg,1,2,f,2,58,178,24,f,1,0.88311512577,01,02,60.0196385651,PLT_learning_01,A,2014_Mrz_07_1225,P21,
stim_fb/ques.jpg,stim_fb/negf.jpg,stim_fb/posf.jpg,stim_01/f.jpg,stim_01/e.jpg,1,3,f,2,59,179,42,f,1,1.01640187817,01,02,60.0196385651,PLT_learning_01,A,2014_Mrz_07_1225,P21,
stim_fb/ques.jpg,stim_fb/negf.jpg,stim_fb/posf.jpg,stim_01/a.jpg,stim_01/b.jpg,2,1,j,3,0,180,14,None,0,,01,02,60.0196385651,PLT_learning_01,A,2014_Mrz_07_1225,P21,
stim_fb/ques.jpg,stim_fb/negf.jpg,stim_fb/posf.jpg,stim_01/f.jpg,stim_01/e.jpg,1,3,f,3,1,181,42,f,1,0.749771201076,01,02,60.0196385651,PLT_learning_01,A,2014_Mrz_07_1225,P21,
stim_fb/ques.jpg,stim_fb/negf.jpg,stim_fb/posf.jpg,stim_01/e.jpg,stim_01/f.jpg,2,3,j,3,2,182,54,j,1,0.816425002726,01,02,60.0196385651,PLT_learning_01,A,2014_Mrz_07_1225,P21,
stim_fb/ques.jpg,stim_fb/negf.jpg,stim_fb/posf.jpg,stim_01/a.jpg,stim_01/b.jpg,2,1,j,3,3,183,11,j,1,0.916428590655,01,02,60.0196385651,PLT_learning_01,A,2014_Mrz_07_1225,P21,
stim_fb/ques.jpg,stim_fb/negf.jpg,stim_fb/posf.jpg,stim_01/a.jpg,stim_01/b.jpg,2,1,j,3,4,184,17,j,1,1.09966996162,01,02,60.0196385651,PLT_learning_01,A,2014_Mrz_07_1225,P21,
stim_fb/ques.jpg,stim_fb/negf.jpg,stim_fb/posf.jpg,stim_01/b.jpg,stim_01/a.jpg,1,1,f,3,5,185,4,f,1,0.549869251098,01,02,60.0196385651,PLT_learning_01,A,2014_Mrz_07_1225,P21,
stim_fb/ques.jpg,stim_fb/negf.jpg,stim_fb/posf.jpg,stim_01/e.jpg,stim_01/f.jpg,2,3,j,3,6,186,51,j,1,0.949736485678,01,02,60.0196385651,PLT_learning_01,A,2014_Mrz_07_1225,P21,
stim_fb/ques.jpg,stim_fb/negf.jpg,stim_fb/posf.jpg,stim_01/d.jpg,stim_01/c.jpg,1,2,f,3,7,187,21,f,1,0.666493755333,01,02,60.0196385651,PLT_learning_01,A,2014_Mrz_07_1225,P21,
stim_fb/ques.jpg,stim_fb/negf.jpg,stim_fb/posf.jpg,stim_01/a.jpg,stim_01/b.jpg,2,1,j,3,8,188,12,j,1,0.533215141183,01,02,60.0196385651,PLT_learning_01,A,2014_Mrz_07_1225,P21,
stim_fb/ques.jpg,stim_fb/posf.jpg,stim_fb/negf.jpg,stim_01/d.jpg,stim_01/c.jpg,1,2,f,3,9,189,29,f,1,0.616525055732,01,02,60.0196385651,PLT_learning_01,A,2014_Mrz_07_1225,P21,
stim_fb/ques.jpg,stim_fb/posf.jpg,stim_fb/negf.jpg,stim_01/c.jpg,stim_01/d.jpg,2,2,j,3,10,190,38,j,1,0.583155531328,01,02,60.0196385651,PLT_learning_01,A,2014_Mrz_07_1225,P21,
stim_fb/ques.jpg,stim_fb/posf.jpg,stim_fb/negf.jpg,stim_01/e.jpg,stim_01/f.jpg,2,3,j,3,11,191,57,j,1,0.583181299459,01,02,60.0196385651,PLT_learning_01,A,2014_Mrz_07_1225,P21,
stim_fb/ques.jpg,stim_fb/negf.jpg,stim_fb/posf.jpg,stim_01/f.jpg,stim_01/e.jpg,1,3,f,3,12,192,41,f,1,0.516524535437,01,02,60.0196385651,PLT_learning_01,A,2014_Mrz_07_1225,P21,
stim_fb/ques.jpg,stim_fb/negf.jpg,stim_fb/posf.jpg,stim_01/a.jpg,stim_01/b.jpg,2,1,j,3,13,193,15,f,0,0.816448536294,01,02,60.0196385651,PLT_learning_01,A,2014_Mrz_07_1225,P21,
stim_fb/ques.jpg,stim_fb/negf.jpg,stim_fb/posf.jpg,stim_01/a.jpg,stim_01/b.jpg,2,1,j,3,14,194,13,f,0,1.199654846,01,02,60.0196385651,PLT_learning_01,A,2014_Mrz_07_1225,P21,
stim_fb/ques.jpg,stim_fb/negf.jpg,stim_fb/posf.jpg,stim_01/b.jpg,stim_01/a.jpg,1,1,f,3,15,195,5,f,1,0.783134048865,01,02,60.0196385651,PLT_learning_01,A,2014_Mrz_07_1225,P21,
stim_fb/ques.jpg,stim_fb/posf.jpg,stim_fb/negf.jpg,stim_01/c.jpg,stim_01/d.jpg,2,2,j,3,16,196,39,j,1,0.616527479765,01,02,60.0196385651,PLT_learning_01,A,2014_Mrz_07_1225,P21,
stim_fb/ques.jpg,stim_fb/negf.jpg,stim_fb/posf.jpg,stim_01/d.jpg,stim_01/c.jpg,1,2,f,3,17,197,20,f,1,0.599843298009,01,02,60.0196385651,PLT_learning_01,A,2014_Mrz_07_1225,P21,
stim_fb/ques.jpg,stim_fb/posf.jpg,stim_fb/negf.jpg,stim_01/a.jpg,stim_01/b.jpg,2,1,j,3,18,198,18,f,0,0.683200634579,01,02,60.0196385651,PLT_learning_01,A,2014_Mrz_07_1225,P21,
stim_fb/ques.jpg,stim_fb/negf.jpg,stim_fb/posf.jpg,stim_01/b.jpg,stim_01/a.jpg,1,1,f,3,19,199,2,f,1,0.899718391146,01,02,60.0196385651,PLT_learning_01,A,2014_Mrz_07_1225,P21,
stim_fb/ques.jpg,stim_fb/negf.jpg,stim_fb/posf.jpg,stim_01/c.jpg,stim_01/d.jpg,2,2,j,3,20,200,36,j,1,0.666496696654,01,02,60.0196385651,PLT_learning_01,A,2014_Mrz_07_1225,P21,
stim_fb/ques.jpg,stim_fb/posf.jpg,stim_fb/negf.jpg,stim_01/c.jpg,stim_01/d.jpg,2,2,j,3,21,201,37,j,1,0.849780292703,01,02,60.0196385651,PLT_learning_01,A,2014_Mrz_07_1225,P21,
stim_fb/ques.jpg,stim_fb/posf.jpg,stim_fb/negf.jpg,stim_01/e.jpg,stim_01/f.jpg,2,3,j,3,22,202,59,f,0,0.549744386341,01,02,60.0196385651,PLT_learning_01,A,2014_Mrz_07_1225,P21,
stim_fb/ques.jpg,stim_fb/negf.jpg,stim_fb/posf.jpg,stim_01/f.jpg,stim_01/e.jpg,1,3,f,3,23,203,44,f,1,1.66616228839,01,02,60.0196385651,PLT_learning_01,A,2014_Mrz_07_1225,P21,
stim_fb/ques.jpg,stim_fb/posf.jpg,stim_fb/negf.jpg,stim_01/b.jpg,stim_01/a.jpg,1,1,f,3,24,204,8,j,0,0.599768336448,01,02,60.0196385651,PLT_learning_01,A,2014_Mrz_07_1225,P21,
stim_fb/ques.jpg,stim_fb/negf.jpg,stim_fb/posf.jpg,stim_01/b.jpg,stim_01/a.jpg,1,1,f,3,25,205,0,f,1,0.533236816126,01,02,60.0196385651,PLT_learning_01,A,2014_Mrz_07_1225,P21,
stim_fb/ques.jpg,stim_fb/posf.jpg,stim_fb/negf.jpg,stim_01/e.jpg,stim_01/f.jpg,2,3,j,3,26,206,58,j,1,0.983037565742,01,02,60.0196385651,PLT_learning_01,A,2014_Mrz_07_1225,P21,
stim_fb/ques.jpg,stim_fb/negf.jpg,stim_fb/posf.jpg,stim_01/d.jpg,stim_01/c.jpg,1,2,f,3,27,207,26,f,1,0.516551320097,01,02,60.0196385651,PLT_learning_01,A,2014_Mrz_07_1225,P21,
stim_fb/ques.jpg,stim_fb/posf.jpg,stim_fb/negf.jpg,stim_01/a.jpg,stim_01/b.jpg,2,1,j,3,28,208,19,j,1,1.0497082875,01,02,60.0196385651,PLT_learning_01,A,2014_Mrz_07_1225,P21,
stim_fb/ques.jpg,stim_fb/negf.jpg,stim_fb/posf.jpg,stim_01/e.jpg,stim_01/f.jpg,2,3,j,3,29,209,52,j,1,0.933061639154,01,02,60.0196385651,PLT_learning_01,A,2014_Mrz_07_1225,P21,
stim_fb/ques.jpg,stim_fb/negf.jpg,stim_fb/posf.jpg,stim_01/e.jpg,stim_01/f.jpg,2,3,j,3,30,210,55,j,1,1.01639091288,01,02,60.0196385651,PLT_learning_01,A,2014_Mrz_07_1225,P21,
stim_fb/ques.jpg,stim_fb/negf.jpg,stim_fb/posf.jpg,stim_01/b.jpg,stim_01/a.jpg,1,1,f,3,31,211,6,f,1,0.883094034278,01,02,60.0196385651,PLT_learning_01,A,2014_Mrz_07_1225,P21,
stim_fb/ques.jpg,stim_fb/negf.jpg,stim_fb/posf.jpg,stim_01/b.jpg,stim_01/a.jpg,1,1,f,3,32,212,7,f,1,0.866303110867,01,02,60.0196385651,PLT_learning_01,A,2014_Mrz_07_1225,P21,
stim_fb/ques.jpg,stim_fb/negf.jpg,stim_fb/posf.jpg,stim_01/f.jpg,stim_01/e.jpg,1,3,f,3,33,213,43,f,1,0.599836624399,01,02,60.0196385651,PLT_learning_01,A,2014_Mrz_07_1225,P21,
stim_fb/ques.jpg,stim_fb/negf.jpg,stim_fb/posf.jpg,stim_01/c.jpg,stim_01/d.jpg,2,2,j,3,34,214,31,j,1,0.666500657511,01,02,60.0196385651,PLT_learning_01,A,2014_Mrz_07_1225,P21,
stim_fb/ques.jpg,stim_fb/negf.jpg,stim_fb/posf.jpg,stim_01/c.jpg,stim_01/d.jpg,2,2,j,3,35,215,30,j,1,0.549890847848,01,02,60.0196385651,PLT_learning_01,A,2014_Mrz_07_1225,P21,
stim_fb/ques.jpg,stim_fb/posf.jpg,stim_fb/negf.jpg,stim_01/b.jpg,stim_01/a.jpg,1,1,f,3,36,216,9,f,1,0.883093874882,01,02,60.0196385651,PLT_learning_01,A,2014_Mrz_07_1225,P21,
stim_fb/ques.jpg,stim_fb/posf.jpg,stim_fb/negf.jpg,stim_01/e.jpg,stim_01/f.jpg,2,3,j,3,37,217,56,j,1,0.416557151611,01,02,60.0196385651,PLT_learning_01,A,2014_Mrz_07_1225,P21,
stim_fb/ques.jpg,stim_fb/negf.jpg,stim_fb/posf.jpg,stim_01/b.jpg,stim_01/a.jpg,1,1,f,3,38,218,3,j,0,1.43293117446,01,02,60.0196385651,PLT_learning_01,A,2014_Mrz_07_1225,P21,
stim_fb/ques.jpg,stim_fb/negf.jpg,stim_fb/posf.jpg,stim_01/a.jpg,stim_01/b.jpg,2,1,j,3,39,219,16,j,1,0.849779546847,01,02,60.0196385651,PLT_learning_01,A,2014_Mrz_07_1225,P21,
stim_fb/ques.jpg,stim_fb/negf.jpg,stim_fb/posf.jpg,stim_01/d.jpg,stim_01/c.jpg,1,2,f,3,40,220,23,f,1,0.566520524956,01,02,60.0196385651,PLT_learning_01,A,2014_Mrz_07_1225,P21,
stim_fb/ques.jpg,stim_fb/negf.jpg,stim_fb/posf.jpg,stim_01/c.jpg,stim_01/d.jpg,2,2,j,3,41,221,33,j,1,0.499875435991,01,02,60.0196385651,PLT_learning_01,A,2014_Mrz_07_1225,P21,
stim_fb/ques.jpg,stim_fb/negf.jpg,stim_fb/posf.jpg,stim_01/d.jpg,stim_01/c.jpg,1,2,f,3,42,222,22,f,1,0.483206950298,01,02,60.0196385651,PLT_learning_01,A,2014_Mrz_07_1225,P21,
stim_fb/ques.jpg,stim_fb/posf.jpg,stim_fb/negf.jpg,stim_01/f.jpg,stim_01/e.jpg,1,3,f,3,43,223,46,f,1,0.699790952734,01,02,60.0196385651,PLT_learning_01,A,2014_Mrz_07_1225,P21,
stim_fb/ques.jpg,stim_fb/negf.jpg,stim_fb/posf.jpg,stim_01/f.jpg,stim_01/e.jpg,1,3,f,3,44,224,45,f,1,0.799800564655,01,02,60.0196385651,PLT_learning_01,A,2014_Mrz_07_1225,P21,
stim_fb/ques.jpg,stim_fb/posf.jpg,stim_fb/negf.jpg,stim_01/d.jpg,stim_01/c.jpg,1,2,f,3,45,225,27,f,1,0.466552187758,01,02,60.0196385651,PLT_learning_01,A,2014_Mrz_07_1225,P21,
stim_fb/ques.jpg,stim_fb/negf.jpg,stim_fb/posf.jpg,stim_01/d.jpg,stim_01/c.jpg,1,2,f,3,46,226,25,f,1,0.56651671748,01,02,60.0196385651,PLT_learning_01,A,2014_Mrz_07_1225,P21,
stim_fb/ques.jpg,stim_fb/negf.jpg,stim_fb/posf.jpg,stim_01/c.jpg,stim_01/d.jpg,2,2,j,3,47,227,35,j,1,0.616559380158,01,02,60.0196385651,PLT_learning_01,A,2014_Mrz_07_1225,P21,
stim_fb/ques.jpg,stim_fb/posf.jpg,stim_fb/negf.jpg,stim_01/f.jpg,stim_01/e.jpg,1,3,f,3,48,228,48,f,1,0.499881402841,01,02,60.0196385651,PLT_learning_01,A,2014_Mrz_07_1225,P21,
stim_fb/ques.jpg,stim_fb/negf.jpg,stim_fb/posf.jpg,stim_01/f.jpg,stim_01/e.jpg,1,3,f,3,49,229,40,f,1,1.2163081469,01,02,60.0196385651,PLT_learning_01,A,2014_Mrz_07_1225,P21,
stim_fb/ques.jpg,stim_fb/posf.jpg,stim_fb/negf.jpg,stim_01/f.jpg,stim_01/e.jpg,1,3,f,3,50,230,49,f,1,0.733144720924,01,02,60.0196385651,PLT_learning_01,A,2014_Mrz_07_1225,P21,
stim_fb/ques.jpg,stim_fb/negf.jpg,stim_fb/posf.jpg,stim_01/c.jpg,stim_01/d.jpg,2,2,j,3,51,231,32,j,1,0.499884419349,01,02,60.0196385651,PLT_learning_01,A,2014_Mrz_07_1225,P21,
stim_fb/ques.jpg,stim_fb/posf.jpg,stim_fb/negf.jpg,stim_01/f.jpg,stim_01/e.jpg,1,3,f,3,52,232,47,f,1,0.483219428352,01,02,60.0196385651,PLT_learning_01,A,2014_Mrz_07_1225,P21,
stim_fb/ques.jpg,stim_fb/negf.jpg,stim_fb/posf.jpg,stim_01/c.jpg,stim_01/d.jpg,2,2,j,3,53,233,34,j,1,0.583164057548,01,02,60.0196385651,PLT_learning_01,A,2014_Mrz_07_1225,P21,
stim_fb/ques.jpg,stim_fb/negf.jpg,stim_fb/posf.jpg,stim_01/d.jpg,stim_01/c.jpg,1,2,f,3,54,234,24,f,1,0.816446942327,01,02,60.0196385651,PLT_learning_01,A,2014_Mrz_07_1225,P21,
stim_fb/ques.jpg,stim_fb/negf.jpg,stim_fb/posf.jpg,stim_01/b.jpg,stim_01/a.jpg,1,1,f,3,55,235,1,j,0,0.516530727848,01,02,60.0196385651,PLT_learning_01,A,2014_Mrz_07_1225,P21,
stim_fb/ques.jpg,stim_fb/negf.jpg,stim_fb/posf.jpg,stim_01/e.jpg,stim_01/f.jpg,2,3,j,3,56,236,53,j,1,0.799826080157,01,02,60.0196385651,PLT_learning_01,A,2014_Mrz_07_1225,P21,
stim_fb/ques.jpg,stim_fb/posf.jpg,stim_fb/negf.jpg,stim_01/d.jpg,stim_01/c.jpg,1,2,f,3,57,237,28,f,1,0.583221825318,01,02,60.0196385651,PLT_learning_01,A,2014_Mrz_07_1225,P21,
stim_fb/ques.jpg,stim_fb/negf.jpg,stim_fb/posf.jpg,stim_01/e.jpg,stim_01/f.jpg,2,3,j,3,58,238,50,j,1,0.799787888106,01,02,60.0196385651,PLT_learning_01,A,2014_Mrz_07_1225,P21,
stim_fb/ques.jpg,stim_fb/negf.jpg,stim_fb/posf.jpg,stim_01/a.jpg,stim_01/b.jpg,2,1,j,3,59,239,10,j,1,0.799788306147,01,02,60.0196385651,PLT_learning_01,A,2014_Mrz_07_1225,P21,
stim_fb/ques.jpg,stim_fb/negf.jpg,stim_fb/posf.jpg,stim_01/c.jpg,stim_01/d.jpg,2,2,j,4,0,240,34,j,1,0.733160119246,01,02,60.0196385651,PLT_learning_01,A,2014_Mrz_07_1225,P21,
stim_fb/ques.jpg,stim_fb/posf.jpg,stim_fb/negf.jpg,stim_01/f.jpg,stim_01/e.jpg,1,3,f,4,1,241,49,f,1,0.633165466555,01,02,60.0196385651,PLT_learning_01,A,2014_Mrz_07_1225,P21,
stim_fb/ques.jpg,stim_fb/negf.jpg,stim_fb/posf.jpg,stim_01/c.jpg,stim_01/d.jpg,2,2,j,4,2,242,32,j,1,0.516527554953,01,02,60.0196385651,PLT_learning_01,A,2014_Mrz_07_1225,P21,
stim_fb/ques.jpg,stim_fb/negf.jpg,stim_fb/posf.jpg,stim_01/f.jpg,stim_01/e.jpg,1,3,f,4,3,243,44,f,1,0.633165932715,01,02,60.0196385651,PLT_learning_01,A,2014_Mrz_07_1225,P21,
stim_fb/ques.jpg,stim_fb/posf.jpg,stim_fb/negf.jpg,stim_01/e.jpg,stim_01/f.jpg,2,3,j,4,4,244,59,j,1,0.499882308094,01,02,60.0196385651,PLT_learning_01,A,2014_Mrz_07_1225,P21,
stim_fb/ques.jpg,stim_fb/negf.jpg,stim_fb/posf.jpg,stim_01/f.jpg,stim_01/e.jpg,1,3,f,4,5,245,43,f,1,0.683167404879,01,02,60.0196385651,PLT_learning_01,A,2014_Mrz_07_1225,P21,
stim_fb/ques.jpg,stim_fb/negf.jpg,stim_fb/posf.jpg,stim_01/e.jpg,stim_01/f.jpg,2,3,j,4,6,246,50,j,1,0.49987862994,01,02,60.0196385651,PLT_learning_01,A,2014_Mrz_07_1225,P21,
stim_fb/ques.jpg,stim_fb/posf.jpg,stim_fb/negf.jpg,stim_01/b.jpg,stim_01/a.jpg,1,1,f,4,7,247,8,j,0,0.749802626287,01,02,60.0196385651,PLT_learning_01,A,2014_Mrz_07_1225,P21,
stim_fb/ques.jpg,stim_fb/posf.jpg,stim_fb/negf.jpg,stim_01/d.jpg,stim_01/c.jpg,1,2,f,4,8,248,28,f,1,0.699813463758,01,02,60.0196385651,PLT_learning_01,A,2014_Mrz_07_1225,P21,
stim_fb/ques.jpg,stim_fb/negf.jpg,stim_fb/posf.jpg,stim_01/c.jpg,stim_01/d.jpg,2,2,j,4,9,249,33,j,1,0.516536544324,01,02,60.0196385651,PLT_learning_01,A,2014_Mrz_07_1225,P21,
stim_fb/ques.jpg,stim_fb/negf.jpg,stim_fb/posf.jpg,stim_01/b.jpg,stim_01/a.jpg,1,1,f,4,10,250,1,f,1,1.09968379003,01,02,60.0196385651,PLT_learning_01,A,2014_Mrz_07_1225,P21,
stim_fb/ques.jpg,stim_fb/negf.jpg,stim_fb/posf.jpg,stim_01/a.jpg,stim_01/b.jpg,2,1,j,4,11,251,10,j,1,0.533209721695,01,02,60.0196385651,PLT_learning_01,A,2014_Mrz_07_1225,P21,
stim_fb/ques.jpg,stim_fb/posf.jpg,stim_fb/negf.jpg,stim_01/f.jpg,stim_01/e.jpg,1,3,f,4,12,252,46,f,1,0.916390921907,01,02,60.0196385651,PLT_learning_01,A,2014_Mrz_07_1225,P21,
stim_fb/ques.jpg,stim_fb/posf.jpg,stim_fb/negf.jpg,stim_01/d.jpg,stim_01/c.jpg,1,2,f,4,13,253,29,f,1,0.616509630342,01,02,60.0196385651,PLT_learning_01,A,2014_Mrz_07_1225,P21,
stim_fb/ques.jpg,stim_fb/posf.jpg,stim_fb/negf.jpg,stim_01/c.jpg,stim_01/d.jpg,2,2,j,4,14,254,39,j,1,0.549843861912,01,02,60.0196385651,PLT_learning_01,A,2014_Mrz_07_1225,P21,
stim_fb/ques.jpg,stim_fb/negf.jpg,stim_fb/posf.jpg,stim_01/f.jpg,stim_01/e.jpg,1,3,f,4,15,255,40,f,1,0.499873820972,01,02,60.0196385651,PLT_learning_01,A,2014_Mrz_07_1225,P21,
stim_fb/ques.jpg,stim_fb/negf.jpg,stim_fb/posf.jpg,stim_01/b.jpg,stim_01/a.jpg,1,1,f,4,16,256,0,j,0,0.716491435059,01,02,60.0196385651,PLT_learning_01,A,2014_Mrz_07_1225,P21,
stim_fb/ques.jpg,stim_fb/posf.jpg,stim_fb/negf.jpg,stim_01/e.jpg,stim_01/f.jpg,2,3,j,4,17,257,57,j,1,0.649805994669,01,02,60.0196385651,PLT_learning_01,A,2014_Mrz_07_1225,P21,
stim_fb/ques.jpg,stim_fb/negf.jpg,stim_fb/posf.jpg,stim_01/a.jpg,stim_01/b.jpg,2,1,j,4,18,258,16,j,1,1.3163078642,01,02,60.0196385651,PLT_learning_01,A,2014_Mrz_07_1225,P21,
stim_fb/ques.jpg,stim_fb/negf.jpg,stim_fb/posf.jpg,stim_01/e.jpg,stim_01/f.jpg,2,3,j,4,19,259,52,f,0,0.483203518757,01,02,60.0196385651,PLT_learning_01,A,2014_Mrz_07_1225,P21,
stim_fb/ques.jpg,stim_fb/negf.jpg,stim_fb/posf.jpg,stim_01/a.jpg,stim_01/b.jpg,2,1,j,4,20,260,12,j,1,0.84977965211,01,02,60.0196385651,PLT_learning_01,A,2014_Mrz_07_1225,P21,
stim_fb/ques.jpg,stim_fb/negf.jpg,stim_fb/posf.jpg,stim_01/b.jpg,stim_01/a.jpg,1,1,f,4,21,261,4,f,1,0.666480618639,01,02,60.0196385651,PLT_learning_01,A,2014_Mrz_07_1225,P21,
stim_fb/ques.jpg,stim_fb/negf.jpg,stim_fb/posf.jpg,stim_01/d.jpg,stim_01/c.jpg,1,2,f,4,22,262,25,f,1,1.11632376477,01,02,60.0196385651,PLT_learning_01,A,2014_Mrz_07_1225,P21,
stim_fb/ques.jpg,stim_fb/negf.jpg,stim_fb/posf.jpg,stim_01/b.jpg,stim_01/a.jpg,1,1,f,4,23,263,7,f,1,1.03304021985,01,02,60.0196385651,PLT_learning_01,A,2014_Mrz_07_1225,P21,
stim_fb/ques.jpg,stim_fb/negf.jpg,stim_fb/posf.jpg,stim_01/e.jpg,stim_01/f.jpg,2,3,j,4,24,264,54,j,1,0.699813397593,01,02,60.0196385651,PLT_learning_01,A,2014_Mrz_07_1225,P21,
stim_fb/ques.jpg,stim_fb/negf.jpg,stim_fb/posf.jpg,stim_01/a.jpg,stim_01/b.jpg,2,1,j,4,25,265,11,f,0,0.566542329221,01,02,60.0196385651,PLT_learning_01,A,2014_Mrz_07_1225,P21,
stim_fb/ques.jpg,stim_fb/negf.jpg,stim_fb/posf.jpg,stim_01/f.jpg,stim_01/e.jpg,1,3,f,4,26,266,45,f,1,0.666480119397,01,02,60.0196385651,PLT_learning_01,A,2014_Mrz_07_1225,P21,
stim_fb/ques.jpg,stim_fb/posf.jpg,stim_fb/negf.jpg,stim_01/b.jpg,stim_01/a.jpg,1,1,f,4,27,267,9,f,1,0.749790662511,01,02,60.0196385651,PLT_learning_01,A,2014_Mrz_07_1225,P21,
stim_fb/ques.jpg,stim_fb/negf.jpg,stim_fb/posf.jpg,stim_01/e.jpg,stim_01/f.jpg,2,3,j,4,28,268,53,j,1,0.849765204151,01,02,60.0196385651,PLT_learning_01,A,2014_Mrz_07_1225,P21,
stim_fb/ques.jpg,stim_fb/negf.jpg,stim_fb/posf.jpg,stim_01/a.jpg,stim_01/b.jpg,2,1,j,4,29,269,17,f,0,0.68315621102,01,02,60.0196385651,PLT_learning_01,A,2014_Mrz_07_1225,P21,
stim_fb/ques.jpg,stim_fb/posf.jpg,stim_fb/negf.jpg,stim_01/c.jpg,stim_01/d.jpg,2,2,j,4,30,270,38,j,1,0.616497395893,01,02,60.0196385651,PLT_learning_01,A,2014_Mrz_07_1225,P21,
stim_fb/ques.jpg,stim_fb/negf.jpg,stim_fb/posf.jpg,stim_01/a.jpg,stim_01/b.jpg,2,1,j,4,31,271,15,j,1,1.66615683883,01,02,60.0196385651,PLT_learning_01,A,2014_Mrz_07_1225,P21,
stim_fb/ques.jpg,stim_fb/posf.jpg,stim_fb/negf.jpg,stim_01/f.jpg,stim_01/e.jpg,1,3,f,4,32,272,47,f,1,0.816440665707,01,02,60.0196385651,PLT_learning_01,A,2014_Mrz_07_1225,P21,
stim_fb/ques.jpg,stim_fb/negf.jpg,stim_fb/posf.jpg,stim_01/d.jpg,stim_01/c.jpg,1,2,f,4,33,273,24,f,1,0.583185512945,01,02,60.0196385651,PLT_learning_01,A,2014_Mrz_07_1225,P21,
stim_fb/ques.jpg,stim_fb/negf.jpg,stim_fb/posf.jpg,stim_01/d.jpg,stim_01/c.jpg,1,2,f,4,34,274,20,f,1,0.566525785049,01,02,60.0196385651,PLT_learning_01,A,2014_Mrz_07_1225,P21,
stim_fb/ques.jpg,stim_fb/negf.jpg,stim_fb/posf.jpg,stim_01/b.jpg,stim_01/a.jpg,1,1,f,4,35,275,2,j,0,0.849771805581,01,02,60.0196385651,PLT_learning_01,A,2014_Mrz_07_1225,P21,
stim_fb/ques.jpg,stim_fb/negf.jpg,stim_fb/posf.jpg,stim_01/f.jpg,stim_01/e.jpg,1,3,f,4,36,276,41,f,1,0.616497272587,01,02,60.0196385651,PLT_learning_01,A,2014_Mrz_07_1225,P21,
stim_fb/ques.jpg,stim_fb/posf.jpg,stim_fb/negf.jpg,stim_01/d.jpg,stim_01/c.jpg,1,2,f,4,37,277,27,f,1,0.58319557599,01,02,60.0196385651,PLT_learning_01,A,2014_Mrz_07_1225,P21,
stim_fb/ques.jpg,stim_fb/negf.jpg,stim_fb/posf.jpg,stim_01/a.jpg,stim_01/b.jpg,2,1,j,4,38,278,14,j,1,1.19966016022,01,02,60.0196385651,PLT_learning_01,A,2014_Mrz_07_1225,P21,
stim_fb/ques.jpg,stim_fb/negf.jpg,stim_fb/posf.jpg,stim_01/d.jpg,stim_01/c.jpg,1,2,f,4,39,279,21,f,1,0.616509416812,01,02,60.0196385651,PLT_learning_01,A,2014_Mrz_07_1225,P21,
stim_fb/ques.jpg,stim_fb/posf.jpg,stim_fb/negf.jpg,stim_01/c.jpg,stim_01/d.jpg,2,2,j,4,40,280,37,j,1,0.516533948865,01,02,60.0196385651,PLT_learning_01,A,2014_Mrz_07_1225,P21,
stim_fb/ques.jpg,stim_fb/posf.jpg,stim_fb/negf.jpg,stim_01/e.jpg,stim_01/f.jpg,2,3,j,4,41,281,58,j,1,0.716463805296,01,02,60.0196385651,PLT_learning_01,A,2014_Mrz_07_1225,P21,
stim_fb/ques.jpg,stim_fb/negf.jpg,stim_fb/posf.jpg,stim_01/d.jpg,stim_01/c.jpg,1,2,f,4,42,282,23,f,1,0.499847246834,01,02,60.0196385651,PLT_learning_01,A,2014_Mrz_07_1225,P21,
stim_fb/ques.jpg,stim_fb/negf.jpg,stim_fb/posf.jpg,stim_01/b.jpg,stim_01/a.jpg,1,1,f,4,43,283,6,f,1,0.716479323917,01,02,60.0196385651,PLT_learning_01,A,2014_Mrz_07_1225,P21,
stim_fb/ques.jpg,stim_fb/negf.jpg,stim_fb/posf.jpg,stim_01/c.jpg,stim_01/d.jpg,2,2,j,4,44,284,36,j,1,0.616510421311,01,02,60.0196385651,PLT_learning_01,A,2014_Mrz_07_1225,P21,
stim_fb/ques.jpg,stim_fb/negf.jpg,stim_fb/posf.jpg,stim_01/b.jpg,stim_01/a.jpg,1,1,f,4,45,285,5,f,1,1.0996932997,01,02,60.0196385651,PLT_learning_01,A,2014_Mrz_07_1225,P21,
stim_fb/ques.jpg,stim_fb/negf.jpg,stim_fb/posf.jpg,stim_01/c.jpg,stim_01/d.jpg,2,2,j,4,46,286,35,j,1,0.583151853174,01,02,60.0196385651,PLT_learning_01,A,2014_Mrz_07_1225,P21,
stim_fb/ques.jpg,stim_fb/negf.jpg,stim_fb/posf.jpg,stim_01/e.jpg,stim_01/f.jpg,2,3,j,4,47,287,55,j,1,1.66615176821,01,02,60.0196385651,PLT_learning_01,A,2014_Mrz_07_1225,P21,
stim_fb/ques.jpg,stim_fb/negf.jpg,stim_fb/posf.jpg,stim_01/e.jpg,stim_01/f.jpg,2,3,j,4,48,288,51,j,1,0.899749720116,01,02,60.0196385651,PLT_learning_01,A,2014_Mrz_07_1225,P21,
stim_fb/ques.jpg,stim_fb/negf.jpg,stim_fb/posf.jpg,stim_01/f.jpg,stim_01/e.jpg,1,3,f,4,49,289,42,f,1,0.516547804347,01,02,60.0196385651,PLT_learning_01,A,2014_Mrz_07_1225,P21,
stim_fb/ques.jpg,stim_fb/negf.jpg,stim_fb/posf.jpg,stim_01/a.jpg,stim_01/b.jpg,2,1,j,4,50,290,13,j,1,0.999714225778,01,02,60.0196385651,PLT_learning_01,A,2014_Mrz_07_1225,P21,
stim_fb/ques.jpg,stim_fb/posf.jpg,stim_fb/negf.jpg,stim_01/a.jpg,stim_01/b.jpg,2,1,j,4,51,291,18,j,1,0.749808439754,01,02,60.0196385651,PLT_learning_01,A,2014_Mrz_07_1225,P21,
stim_fb/ques.jpg,stim_fb/negf.jpg,stim_fb/posf.jpg,stim_01/d.jpg,stim_01/c.jpg,1,2,f,4,52,292,26,f,1,0.466566395116,01,02,60.0196385651,PLT_learning_01,A,2014_Mrz_07_1225,P21,
stim_fb/ques.jpg,stim_fb/negf.jpg,stim_fb/posf.jpg,stim_01/c.jpg,stim_01/d.jpg,2,2,j,4,53,293,31,j,1,0.599810654769,01,02,60.0196385651,PLT_learning_01,A,2014_Mrz_07_1225,P21,
stim_fb/ques.jpg,stim_fb/negf.jpg,stim_fb/posf.jpg,stim_01/b.jpg,stim_01/a.jpg,1,1,f,4,54,294,3,j,0,0.649788229457,01,02,60.0196385651,PLT_learning_01,A,2014_Mrz_07_1225,P21,
stim_fb/ques.jpg,stim_fb/posf.jpg,stim_fb/negf.jpg,stim_01/f.jpg,stim_01/e.jpg,1,3,f,4,55,295,48,f,1,0.949750551687,01,02,60.0196385651,PLT_learning_01,A,2014_Mrz_07_1225,P21,
stim_fb/ques.jpg,stim_fb/negf.jpg,stim_fb/posf.jpg,stim_01/d.jpg,stim_01/c.jpg,1,2,f,4,56,296,22,f,1,0.583196403048,01,02,60.0196385651,PLT_learning_01,A,2014_Mrz_07_1225,P21,
stim_fb/ques.jpg,stim_fb/negf.jpg,stim_fb/posf.jpg,stim_01/c.jpg,stim_01/d.jpg,2,2,j,4,57,297,30,j,1,0.599861216604,01,02,60.0196385651,PLT_learning_01,A,2014_Mrz_07_1225,P21,
stim_fb/ques.jpg,stim_fb/posf.jpg,stim_fb/negf.jpg,stim_01/e.jpg,stim_01/f.jpg,2,3,j,4,58,298,56,j,1,0.816447823521,01,02,60.0196385651,PLT_learning_01,A,2014_Mrz_07_1225,P21,
stim_fb/ques.jpg,stim_fb/posf.jpg,stim_fb/negf.jpg,stim_01/a.jpg,stim_01/b.jpg,2,1,j,4,59,299,19,j,1,0.816419291512,01,02,60.0196385651,PLT_learning_01,A,2014_Mrz_07_1225,P21,
stim_fb/ques.jpg,stim_fb/posf.jpg,stim_fb/negf.jpg,stim_01/f.jpg,stim_01/e.jpg,1,3,f,5,0,300,48,f,1,1.04969182753,01,02,60.0196385651,PLT_learning_01,A,2014_Mrz_07_1225,P21,
stim_fb/ques.jpg,stim_fb/negf.jpg,stim_fb/posf.jpg,stim_01/a.jpg,stim_01/b.jpg,2,1,j,5,1,301,12,j,1,0.583190986568,01,02,60.0196385651,PLT_learning_01,A,2014_Mrz_07_1225,P21,
stim_fb/ques.jpg,stim_fb/negf.jpg,stim_fb/posf.jpg,stim_01/b.jpg,stim_01/a.jpg,1,1,f,5,2,302,6,f,1,0.566459918122,01,02,60.0196385651,PLT_learning_01,A,2014_Mrz_07_1225,P21,
stim_fb/ques.jpg,stim_fb/posf.jpg,stim_fb/negf.jpg,stim_01/e.jpg,stim_01/f.jpg,2,3,j,5,3,303,57,j,1,0.616366110156,01,02,60.0196385651,PLT_learning_01,A,2014_Mrz_07_1225,P21,
stim_fb/ques.jpg,stim_fb/negf.jpg,stim_fb/posf.jpg,stim_01/d.jpg,stim_01/c.jpg,1,2,f,5,4,304,25,f,1,0.483215726137,01,02,60.0196385651,PLT_learning_01,A,2014_Mrz_07_1225,P21,
stim_fb/ques.jpg,stim_fb/posf.jpg,stim_fb/negf.jpg,stim_01/c.jpg,stim_01/d.jpg,2,2,j,5,5,305,37,j,1,0.549854667805,01,02,60.0196385651,PLT_learning_01,A,2014_Mrz_07_1225,P21,
stim_fb/ques.jpg,stim_fb/negf.jpg,stim_fb/posf.jpg,stim_01/b.jpg,stim_01/a.jpg,1,1,f,5,6,306,7,f,1,0.899744348748,01,02,60.0196385651,PLT_learning_01,A,2014_Mrz_07_1225,P21,
stim_fb/ques.jpg,stim_fb/negf.jpg,stim_fb/posf.jpg,stim_01/e.jpg,stim_01/f.jpg,2,3,j,5,7,307,51,j,1,0.616511849867,01,02,60.0196385651,PLT_learning_01,A,2014_Mrz_07_1225,P21,
stim_fb/ques.jpg,stim_fb/negf.jpg,stim_fb/posf.jpg,stim_01/a.jpg,stim_01/b.jpg,2,1,j,5,8,308,16,j,1,1.14963967474,01,02,60.0196385651,PLT_learning_01,A,2014_Mrz_07_1225,P21,
stim_fb/ques.jpg,stim_fb/negf.jpg,stim_fb/posf.jpg,stim_01/c.jpg,stim_01/d.jpg,2,2,j,5,9,309,30,j,1,0.499875790874,01,02,60.0196385651,PLT_learning_01,A,2014_Mrz_07_1225,P21,
stim_fb/ques.jpg,stim_fb/posf.jpg,stim_fb/negf.jpg,stim_01/e.jpg,stim_01/f.jpg,2,3,j,5,10,310,56,j,1,1.13296550791,01,02,60.0196385651,PLT_learning_01,A,2014_Mrz_07_1225,P21,
stim_fb/ques.jpg,stim_fb/negf.jpg,stim_fb/posf.jpg,stim_01/f.jpg,stim_01/e.jpg,1,3,f,5,11,311,41,f,1,0.699820799015,01,02,60.0196385651,PLT_learning_01,A,2014_Mrz_07_1225,P21,
stim_fb/ques.jpg,stim_fb/negf.jpg,stim_fb/posf.jpg,stim_01/a.jpg,stim_01/b.jpg,2,1,j,5,12,312,14,j,1,0.53316427559,01,02,60.0196385651,PLT_learning_01,A,2014_Mrz_07_1225,P21,
stim_fb/ques.jpg,stim_fb/negf.jpg,stim_fb/posf.jpg,stim_01/e.jpg,stim_01/f.jpg,2,3,j,5,13,313,54,j,1,0.699810372063,01,02,60.0196385651,PLT_learning_01,A,2014_Mrz_07_1225,P21,
stim_fb/ques.jpg,stim_fb/posf.jpg,stim_fb/negf.jpg,stim_01/f.jpg,stim_01/e.jpg,1,3,f,5,14,314,47,f,1,0.733136173652,01,02,60.0196385651,PLT_learning_01,A,2014_Mrz_07_1225,P21,
stim_fb/ques.jpg,stim_fb/posf.jpg,stim_fb/negf.jpg,stim_01/b.jpg,stim_01/a.jpg,1,1,f,5,15,315,8,f,1,0.716471525509,01,02,60.0196385651,PLT_learning_01,A,2014_Mrz_07_1225,P21,
stim_fb/ques.jpg,stim_fb/posf.jpg,stim_fb/negf.jpg,stim_01/a.jpg,stim_01/b.jpg,2,1,j,5,16,316,18,j,1,0.666458483551,01,02,60.0196385651,PLT_learning_01,A,2014_Mrz_07_1225,P21,
stim_fb/ques.jpg,stim_fb/negf.jpg,stim_fb/posf.jpg,stim_01/d.jpg,stim_01/c.jpg,1,2,f,5,17,317,20,f,1,0.949753318571,01,02,60.0196385651,PLT_learning_01,A,2014_Mrz_07_1225,P21,
stim_fb/ques.jpg,stim_fb/negf.jpg,stim_fb/posf.jpg,stim_01/f.jpg,stim_01/e.jpg,1,3,f,5,18,318,40,f,1,0.716495125243,01,02,60.0196385651,PLT_learning_01,A,2014_Mrz_07_1225,P21,
stim_fb/ques.jpg,stim_fb/negf.jpg,stim_fb/posf.jpg,stim_01/d.jpg,stim_01/c.jpg,1,2,f,5,19,319,26,f,1,0.666562437267,01,02,60.0196385651,PLT_learning_01,A,2014_Mrz_07_1225,P21,
stim_fb/ques.jpg,stim_fb/posf.jpg,stim_fb/negf.jpg,stim_01/e.jpg,stim_01/f.jpg,2,3,j,5,20,320,59,j,1,0.899601887197,01,02,60.0196385651,PLT_learning_01,A,2014_Mrz_07_1225,P21,
stim_fb/ques.jpg,stim_fb/posf.jpg,stim_fb/negf.jpg,stim_01/f.jpg,stim_01/e.jpg,1,3,f,5,21,321,49,f,1,1.2329747078,01,02,60.0196385651,PLT_learning_01,A,2014_Mrz_07_1225,P21,
stim_fb/ques.jpg,stim_fb/negf.jpg,stim_fb/posf.jpg,stim_01/e.jpg,stim_01/f.jpg,2,3,j,5,22,322,53,j,1,0.866417037401,01,02,60.0196385651,PLT_learning_01,A,2014_Mrz_07_1225,P21,
stim_fb/ques.jpg,stim_fb/posf.jpg,stim_fb/negf.jpg,stim_01/e.jpg,stim_01/f.jpg,2,3,j,5,23,323,58,j,1,0.466572145428,01,02,60.0196385651,PLT_learning_01,A,2014_Mrz_07_1225,P21,
stim_fb/ques.jpg,stim_fb/negf.jpg,stim_fb/posf.jpg,stim_01/c.jpg,stim_01/d.jpg,2,2,j,5,24,324,31,j,1,0.566529306812,01,02,60.0196385651,PLT_learning_01,A,2014_Mrz_07_1225,P21,
stim_fb/ques.jpg,stim_fb/negf.jpg,stim_fb/posf.jpg,stim_01/e.jpg,stim_01/f.jpg,2,3,j,5,25,325,50,j,1,0.599828783887,01,02,60.0196385651,PLT_learning_01,A,2014_Mrz_07_1225,P21,
stim_fb/ques.jpg,stim_fb/posf.jpg,stim_fb/negf.jpg,stim_01/d.jpg,stim_01/c.jpg,1,2,f,5,26,326,28,f,1,0.916419568201,01,02,60.0196385651,PLT_learning_01,A,2014_Mrz_07_1225,P21,
stim_fb/ques.jpg,stim_fb/negf.jpg,stim_fb/posf.jpg,stim_01/c.jpg,stim_01/d.jpg,2,2,j,5,27,327,36,j,1,0.583218441898,01,02,60.0196385651,PLT_learning_01,A,2014_Mrz_07_1225,P21,
stim_fb/ques.jpg,stim_fb/negf.jpg,stim_fb/posf.jpg,stim_01/b.jpg,stim_01/a.jpg,1,1,f,5,28,328,2,f,1,0.649799754139,01,02,60.0196385651,PLT_learning_01,A,2014_Mrz_07_1225,P21,
stim_fb/ques.jpg,stim_fb/negf.jpg,stim_fb/posf.jpg,stim_01/c.jpg,stim_01/d.jpg,2,2,j,5,29,329,34,j,1,0.566489292225,01,02,60.0196385651,PLT_learning_01,A,2014_Mrz_07_1225,P21,
stim_fb/ques.jpg,stim_fb/posf.jpg,stim_fb/negf.jpg,stim_01/c.jpg,stim_01/d.jpg,2,2,j,5,30,330,39,j,1,0.449910498754,01,02,60.0196385651,PLT_learning_01,A,2014_Mrz_07_1225,P21,
stim_fb/ques.jpg,stim_fb/posf.jpg,stim_fb/negf.jpg,stim_01/f.jpg,stim_01/e.jpg,1,3,f,5,31,331,46,f,1,0.599843755146,01,02,60.0196385651,PLT_learning_01,A,2014_Mrz_07_1225,P21,
stim_fb/ques.jpg,stim_fb/negf.jpg,stim_fb/posf.jpg,stim_01/d.jpg,stim_01/c.jpg,1,2,f,5,32,332,23,f,1,0.866428273366,01,02,60.0196385651,PLT_learning_01,A,2014_Mrz_07_1225,P21,
stim_fb/ques.jpg,stim_fb/negf.jpg,stim_fb/posf.jpg,stim_01/d.jpg,stim_01/c.jpg,1,2,f,5,33,333,21,f,1,0.5831958617,01,02,60.0196385651,PLT_learning_01,A,2014_Mrz_07_1225,P21,
stim_fb/ques.jpg,stim_fb/negf.jpg,stim_fb/posf.jpg,stim_01/b.jpg,stim_01/a.jpg,1,1,f,5,34,334,0,f,1,0.833102068775,01,02,60.0196385651,PLT_learning_01,A,2014_Mrz_07_1225,P21,
stim_fb/ques.jpg,stim_fb/negf.jpg,stim_fb/posf.jpg,stim_01/c.jpg,stim_01/d.jpg,2,2,j,5,35,335,35,j,1,0.616581888175,01,02,60.0196385651,PLT_learning_01,A,2014_Mrz_07_1225,P21,
stim_fb/ques.jpg,stim_fb/negf.jpg,stim_fb/posf.jpg,stim_01/c.jpg,stim_01/d.jpg,2,2,j,5,36,336,32,j,1,0.699677522434,01,02,60.0196385651,PLT_learning_01,A,2014_Mrz_07_1225,P21,
stim_fb/ques.jpg,stim_fb/posf.jpg,stim_fb/negf.jpg,stim_01/a.jpg,stim_01/b.jpg,2,1,j,5,37,337,19,j,1,1.03304581678,01,02,60.0196385651,PLT_learning_01,A,2014_Mrz_07_1225,P21,
stim_fb/ques.jpg,stim_fb/negf.jpg,stim_fb/posf.jpg,stim_01/f.jpg,stim_01/e.jpg,1,3,f,5,38,338,44,None,0,,01,02,60.0196385651,PLT_learning_01,A,2014_Mrz_07_1225,P21,
stim_fb/ques.jpg,stim_fb/negf.jpg,stim_fb/posf.jpg,stim_01/d.jpg,stim_01/c.jpg,1,2,f,5,39,339,24,f,1,0.533198091751,01,02,60.0196385651,PLT_learning_01,A,2014_Mrz_07_1225,P21,
stim_fb/ques.jpg,stim_fb/negf.jpg,stim_fb/posf.jpg,stim_01/a.jpg,stim_01/b.jpg,2,1,j,5,40,340,11,f,0,0.599917255069,01,02,60.0196385651,PLT_learning_01,A,2014_Mrz_07_1225,P21,
stim_fb/ques.jpg,stim_fb/posf.jpg,stim_fb/negf.jpg,stim_01/c.jpg,stim_01/d.jpg,2,2,j,5,41,341,38,j,1,0.49989329143,01,02,60.0196385651,PLT_learning_01,A,2014_Mrz_07_1225,P21,
stim_fb/ques.jpg,stim_fb/negf.jpg,stim_fb/posf.jpg,stim_01/f.jpg,stim_01/e.jpg,1,3,f,5,42,342,42,f,1,0.716447829534,01,02,60.0196385651,PLT_learning_01,A,2014_Mrz_07_1225,P21,
stim_fb/ques.jpg,stim_fb/negf.jpg,stim_fb/posf.jpg,stim_01/b.jpg,stim_01/a.jpg,1,1,f,5,43,343,5,f,1,0.699787683598,01,02,60.0196385651,PLT_learning_01,A,2014_Mrz_07_1225,P21,
stim_fb/ques.jpg,stim_fb/negf.jpg,stim_fb/posf.jpg,stim_01/a.jpg,stim_01/b.jpg,2,1,j,5,44,344,15,j,1,0.61648139006,01,02,60.0196385651,PLT_learning_01,A,2014_Mrz_07_1225,P21,
stim_fb/ques.jpg,stim_fb/negf.jpg,stim_fb/posf.jpg,stim_01/a.jpg,stim_01/b.jpg,2,1,j,5,45,345,10,j,1,0.433225110994,01,02,60.0196385651,PLT_learning_01,A,2014_Mrz_07_1225,P21,
stim_fb/ques.jpg,stim_fb/posf.jpg,stim_fb/negf.jpg,stim_01/d.jpg,stim_01/c.jpg,1,2,f,5,46,346,29,f,1,0.516552056932,01,02,60.0196385651,PLT_learning_01,A,2014_Mrz_07_1225,P21,
stim_fb/ques.jpg,stim_fb/negf.jpg,stim_fb/posf.jpg,stim_01/c.jpg,stim_01/d.jpg,2,2,j,5,47,347,33,j,1,0.71647649688,01,02,60.0196385651,PLT_learning_01,A,2014_Mrz_07_1225,P21,
stim_fb/ques.jpg,stim_fb/negf.jpg,stim_fb/posf.jpg,stim_01/a.jpg,stim_01/b.jpg,2,1,j,5,48,348,17,j,1,0.616470533039,01,02,60.0196385651,PLT_learning_01,A,2014_Mrz_07_1225,P21,
stim_fb/ques.jpg,stim_fb/negf.jpg,stim_fb/posf.jpg,stim_01/f.jpg,stim_01/e.jpg,1,3,f,5,49,349,43,f,1,0.549852631739,01,02,60.0196385651,PLT_learning_01,A,2014_Mrz_07_1225,P21,
stim_fb/ques.jpg,stim_fb/negf.jpg,stim_fb/posf.jpg,stim_01/b.jpg,stim_01/a.jpg,1,1,f,5,50,350,4,f,1,0.749787348263,01,02,60.0196385651,PLT_learning_01,A,2014_Mrz_07_1225,P21,
stim_fb/ques.jpg,stim_fb/posf.jpg,stim_fb/negf.jpg,stim_01/d.jpg,stim_01/c.jpg,1,2,f,5,51,351,27,f,1,0.633143960029,01,02,60.0196385651,PLT_learning_01,A,2014_Mrz_07_1225,P21,
stim_fb/ques.jpg,stim_fb/negf.jpg,stim_fb/posf.jpg,stim_01/e.jpg,stim_01/f.jpg,2,3,j,5,52,352,52,j,1,0.466553832852,01,02,60.0196385651,PLT_learning_01,A,2014_Mrz_07_1225,P21,
stim_fb/ques.jpg,stim_fb/negf.jpg,stim_fb/posf.jpg,stim_01/f.jpg,stim_01/e.jpg,1,3,f,5,53,353,45,f,1,0.466560473378,01,02,60.0196385651,PLT_learning_01,A,2014_Mrz_07_1225,P21,
stim_fb/ques.jpg,stim_fb/negf.jpg,stim_fb/posf.jpg,stim_01/a.jpg,stim_01/b.jpg,2,1,j,5,54,354,13,j,1,0.649821272691,01,02,60.0196385651,PLT_learning_01,A,2014_Mrz_07_1225,P21,
stim_fb/ques.jpg,stim_fb/posf.jpg,stim_fb/negf.jpg,stim_01/b.jpg,stim_01/a.jpg,1,1,f,5,55,355,9,f,1,0.549848021263,01,02,60.0196385651,PLT_learning_01,A,2014_Mrz_07_1225,P21,
stim_fb/ques.jpg,stim_fb/negf.jpg,stim_fb/posf.jpg,stim_01/b.jpg,stim_01/a.jpg,1,1,f,5,56,356,1,f,1,0.449905401068,01,02,60.0196385651,PLT_learning_01,A,2014_Mrz_07_1225,P21,
stim_fb/ques.jpg,stim_fb/negf.jpg,stim_fb/posf.jpg,stim_01/b.jpg,stim_01/a.jpg,1,1,f,5,57,357,3,f,1,0.39991247016,01,02,60.0196385651,PLT_learning_01,A,2014_Mrz_07_1225,P21,
stim_fb/ques.jpg,stim_fb/negf.jpg,stim_fb/posf.jpg,stim_01/e.jpg,stim_01/f.jpg,2,3,j,5,58,358,55,j,1,0.649838237914,01,02,60.0196385651,PLT_learning_01,A,2014_Mrz_07_1225,P21,
stim_fb/ques.jpg,stim_fb/negf.jpg,stim_fb/posf.jpg,stim_01/d.jpg,stim_01/c.jpg,1,2,f,5,59,359,22,f,1,0.766447975398,01,02,60.0196385651,PLT_learning_01,A,2014_Mrz_07_1225,P21,
