Fb3,Fb2,Fb1,Symbol2,Symbol1,PosCond,Pair,Correct,trials.thisRepN,trials.thisTrialN,trials.thisN,trials.thisIndex,Response.keys,Response.corr,Response.rt,Version,Session Number,frameRate,expName,StimCondition,date,Participant,
stim_fb/ques.jpg,stim_fb/posf.jpg,stim_fb/negf.jpg,stim_02/b.jpg,stim_02/a.jpg,1,1,f,0,0,0,8,f,1,0.799827769715,02,03,60.0131742817,PLT_learning_02,A,2014_Mrz_24_1629,P22,
stim_fb/ques.jpg,stim_fb/negf.jpg,stim_fb/posf.jpg,stim_02/a.jpg,stim_02/b.jpg,2,1,j,0,1,1,14,f,0,0.76646824911,02,03,60.0131742817,PLT_learning_02,A,2014_Mrz_24_1629,P22,
stim_fb/ques.jpg,stim_fb/negf.jpg,stim_fb/posf.jpg,stim_02/f.jpg,stim_02/e.jpg,1,3,f,0,2,2,45,f,1,1.06636043037,02,03,60.0131742817,PLT_learning_02,A,2014_Mrz_24_1629,P22,
stim_fb/ques.jpg,stim_fb/negf.jpg,stim_fb/posf.jpg,stim_02/c.jpg,stim_02/d.jpg,2,2,j,0,3,3,36,j,1,1.11634859287,02,03,60.0131742817,PLT_learning_02,A,2014_Mrz_24_1629,P22,
stim_fb/ques.jpg,stim_fb/negf.jpg,stim_fb/posf.jpg,stim_02/f.jpg,stim_02/e.jpg,1,3,f,0,4,4,42,f,1,0.73315391012,02,03,60.0131742817,PLT_learning_02,A,2014_Mrz_24_1629,P22,
stim_fb/ques.jpg,stim_fb/posf.jpg,stim_fb/negf.jpg,stim_02/a.jpg,stim_02/b.jpg,2,1,j,0,5,5,18,f,0,1.0330216254,02,03,60.0131742817,PLT_learning_02,A,2014_Mrz_24_1629,P22,
stim_fb/ques.jpg,stim_fb/negf.jpg,stim_fb/posf.jpg,stim_02/d.jpg,stim_02/c.jpg,1,2,f,0,6,6,26,f,1,0.91645956647,02,03,60.0131742817,PLT_learning_02,A,2014_Mrz_24_1629,P22,
stim_fb/ques.jpg,stim_fb/negf.jpg,stim_fb/posf.jpg,stim_02/b.jpg,stim_02/a.jpg,1,1,f,0,7,7,3,j,0,1.01636406644,02,03,60.0131742817,PLT_learning_02,A,2014_Mrz_24_1629,P22,
stim_fb/ques.jpg,stim_fb/negf.jpg,stim_fb/posf.jpg,stim_02/a.jpg,stim_02/b.jpg,2,1,j,0,8,8,17,j,1,0.766452002617,02,03,60.0131742817,PLT_learning_02,A,2014_Mrz_24_1629,P22,
stim_fb/ques.jpg,stim_fb/negf.jpg,stim_fb/posf.jpg,stim_02/d.jpg,stim_02/c.jpg,1,2,f,0,9,9,23,f,1,0.716478185879,02,03,60.0131742817,PLT_learning_02,A,2014_Mrz_24_1629,P22,
stim_fb/ques.jpg,stim_fb/negf.jpg,stim_fb/posf.jpg,stim_02/d.jpg,stim_02/c.jpg,1,2,f,0,10,10,20,f,1,0.849758368735,02,03,60.0131742817,PLT_learning_02,A,2014_Mrz_24_1629,P22,
stim_fb/ques.jpg,stim_fb/negf.jpg,stim_fb/posf.jpg,stim_02/c.jpg,stim_02/d.jpg,2,2,j,0,11,11,30,j,1,0.716469175421,02,03,60.0131742817,PLT_learning_02,A,2014_Mrz_24_1629,P22,
stim_fb/ques.jpg,stim_fb/negf.jpg,stim_fb/posf.jpg,stim_02/d.jpg,stim_02/c.jpg,1,2,f,0,12,12,21,f,1,0.566535307253,02,03,60.0131742817,PLT_learning_02,A,2014_Mrz_24_1629,P22,
stim_fb/ques.jpg,stim_fb/negf.jpg,stim_fb/posf.jpg,stim_02/b.jpg,stim_02/a.jpg,1,1,f,0,13,13,1,f,1,0.699814043504,02,03,60.0131742817,PLT_learning_02,A,2014_Mrz_24_1629,P22,
stim_fb/ques.jpg,stim_fb/negf.jpg,stim_fb/posf.jpg,stim_02/e.jpg,stim_02/f.jpg,2,3,j,0,14,14,51,j,1,0.983052383064,02,03,60.0131742817,PLT_learning_02,A,2014_Mrz_24_1629,P22,
stim_fb/ques.jpg,stim_fb/negf.jpg,stim_fb/posf.jpg,stim_02/a.jpg,stim_02/b.jpg,2,1,j,0,15,15,11,j,1,1.06637235209,02,03,60.0131742817,PLT_learning_02,A,2014_Mrz_24_1629,P22,
stim_fb/ques.jpg,stim_fb/posf.jpg,stim_fb/negf.jpg,stim_02/a.jpg,stim_02/b.jpg,2,1,j,0,16,16,19,j,1,0.916415395372,02,03,60.0131742817,PLT_learning_02,A,2014_Mrz_24_1629,P22,
stim_fb/ques.jpg,stim_fb/negf.jpg,stim_fb/posf.jpg,stim_02/e.jpg,stim_02/f.jpg,2,3,j,0,17,17,50,j,1,0.699831661415,02,03,60.0131742817,PLT_learning_02,A,2014_Mrz_24_1629,P22,
stim_fb/ques.jpg,stim_fb/negf.jpg,stim_fb/posf.jpg,stim_02/a.jpg,stim_02/b.jpg,2,1,j,0,18,18,13,j,1,0.683152523665,02,03,60.0131742817,PLT_learning_02,A,2014_Mrz_24_1629,P22,
stim_fb/ques.jpg,stim_fb/negf.jpg,stim_fb/posf.jpg,stim_02/e.jpg,stim_02/f.jpg,2,3,j,0,19,19,53,j,1,0.616522468252,02,03,60.0131742817,PLT_learning_02,A,2014_Mrz_24_1629,P22,
stim_fb/ques.jpg,stim_fb/posf.jpg,stim_fb/negf.jpg,stim_02/e.jpg,stim_02/f.jpg,2,3,j,0,20,20,57,j,1,0.583172971632,02,03,60.0131742817,PLT_learning_02,A,2014_Mrz_24_1629,P22,
stim_fb/ques.jpg,stim_fb/negf.jpg,stim_fb/posf.jpg,stim_02/c.jpg,stim_02/d.jpg,2,2,j,0,21,21,32,j,1,0.516515896874,02,03,60.0131742817,PLT_learning_02,A,2014_Mrz_24_1629,P22,
stim_fb/ques.jpg,stim_fb/negf.jpg,stim_fb/posf.jpg,stim_02/c.jpg,stim_02/d.jpg,2,2,j,0,22,22,35,j,1,0.616508928504,02,03,60.0131742817,PLT_learning_02,A,2014_Mrz_24_1629,P22,
stim_fb/ques.jpg,stim_fb/negf.jpg,stim_fb/posf.jpg,stim_02/a.jpg,stim_02/b.jpg,2,1,j,0,23,23,15,j,1,0.766465364923,02,03,60.0131742817,PLT_learning_02,A,2014_Mrz_24_1629,P22,
stim_fb/ques.jpg,stim_fb/posf.jpg,stim_fb/negf.jpg,stim_02/c.jpg,stim_02/d.jpg,2,2,j,0,24,24,37,j,1,0.533195708302,02,03,60.0131742817,PLT_learning_02,A,2014_Mrz_24_1629,P22,
stim_fb/ques.jpg,stim_fb/negf.jpg,stim_fb/posf.jpg,stim_02/b.jpg,stim_02/a.jpg,1,1,f,0,25,25,4,f,1,0.649789072262,02,03,60.0131742817,PLT_learning_02,A,2014_Mrz_24_1629,P22,
stim_fb/ques.jpg,stim_fb/posf.jpg,stim_fb/negf.jpg,stim_02/f.jpg,stim_02/e.jpg,1,3,f,0,26,26,49,f,1,0.616509926993,02,03,60.0131742817,PLT_learning_02,A,2014_Mrz_24_1629,P22,
stim_fb/ques.jpg,stim_fb/negf.jpg,stim_fb/posf.jpg,stim_02/f.jpg,stim_02/e.jpg,1,3,f,0,27,27,40,f,1,0.599707716483,02,03,60.0131742817,PLT_learning_02,A,2014_Mrz_24_1629,P22,
stim_fb/ques.jpg,stim_fb/negf.jpg,stim_fb/posf.jpg,stim_02/e.jpg,stim_02/f.jpg,2,3,j,0,28,28,52,j,1,0.566535505748,02,03,60.0131742817,PLT_learning_02,A,2014_Mrz_24_1629,P22,
stim_fb/ques.jpg,stim_fb/negf.jpg,stim_fb/posf.jpg,stim_02/b.jpg,stim_02/a.jpg,1,1,f,0,29,29,5,f,1,0.666507481899,02,03,60.0131742817,PLT_learning_02,A,2014_Mrz_24_1629,P22,
stim_fb/ques.jpg,stim_fb/negf.jpg,stim_fb/posf.jpg,stim_02/f.jpg,stim_02/e.jpg,1,3,f,0,30,30,41,f,1,0.566535662138,02,03,60.0131742817,PLT_learning_02,A,2014_Mrz_24_1629,P22,
stim_fb/ques.jpg,stim_fb/negf.jpg,stim_fb/posf.jpg,stim_02/c.jpg,stim_02/d.jpg,2,2,j,0,31,31,33,j,1,0.549853925912,02,03,60.0131742817,PLT_learning_02,A,2014_Mrz_24_1629,P22,
stim_fb/ques.jpg,stim_fb/negf.jpg,stim_fb/posf.jpg,stim_02/b.jpg,stim_02/a.jpg,1,1,f,0,32,32,6,f,1,0.733175103946,02,03,60.0131742817,PLT_learning_02,A,2014_Mrz_24_1629,P22,
stim_fb/ques.jpg,stim_fb/negf.jpg,stim_fb/posf.jpg,stim_02/b.jpg,stim_02/a.jpg,1,1,f,0,33,33,7,f,1,0.549852064269,02,03,60.0131742817,PLT_learning_02,A,2014_Mrz_24_1629,P22,
stim_fb/ques.jpg,stim_fb/negf.jpg,stim_fb/posf.jpg,stim_02/b.jpg,stim_02/a.jpg,1,1,f,0,34,34,0,f,1,0.533208911211,02,03,60.0131742817,PLT_learning_02,A,2014_Mrz_24_1629,P22,
stim_fb/ques.jpg,stim_fb/negf.jpg,stim_fb/posf.jpg,stim_02/b.jpg,stim_02/a.jpg,1,1,f,0,35,35,2,f,1,0.516567986706,02,03,60.0131742817,PLT_learning_02,A,2014_Mrz_24_1629,P22,
stim_fb/ques.jpg,stim_fb/negf.jpg,stim_fb/posf.jpg,stim_02/e.jpg,stim_02/f.jpg,2,3,j,0,36,36,54,j,1,0.566529445643,02,03,60.0131742817,PLT_learning_02,A,2014_Mrz_24_1629,P22,
stim_fb/ques.jpg,stim_fb/negf.jpg,stim_fb/posf.jpg,stim_02/c.jpg,stim_02/d.jpg,2,2,j,0,37,37,34,j,1,0.533195930857,02,03,60.0131742817,PLT_learning_02,A,2014_Mrz_24_1629,P22,
stim_fb/ques.jpg,stim_fb/negf.jpg,stim_fb/posf.jpg,stim_02/a.jpg,stim_02/b.jpg,2,1,j,0,38,38,10,j,1,0.599858677753,02,03,60.0131742817,PLT_learning_02,A,2014_Mrz_24_1629,P22,
stim_fb/ques.jpg,stim_fb/posf.jpg,stim_fb/negf.jpg,stim_02/e.jpg,stim_02/f.jpg,2,3,j,0,39,39,56,j,1,0.499910000677,02,03,60.0131742817,PLT_learning_02,A,2014_Mrz_24_1629,P22,
stim_fb/ques.jpg,stim_fb/negf.jpg,stim_fb/posf.jpg,stim_02/a.jpg,stim_02/b.jpg,2,1,j,0,40,40,12,j,1,0.516521514877,02,03,60.0131742817,PLT_learning_02,A,2014_Mrz_24_1629,P22,
stim_fb/ques.jpg,stim_fb/negf.jpg,stim_fb/posf.jpg,stim_02/d.jpg,stim_02/c.jpg,1,2,f,0,41,41,24,f,1,0.633157723627,02,03,60.0131742817,PLT_learning_02,A,2014_Mrz_24_1629,P22,
stim_fb/ques.jpg,stim_fb/negf.jpg,stim_fb/posf.jpg,stim_02/c.jpg,stim_02/d.jpg,2,2,j,0,42,42,31,j,1,0.516560431877,02,03,60.0131742817,PLT_learning_02,A,2014_Mrz_24_1629,P22,
stim_fb/ques.jpg,stim_fb/negf.jpg,stim_fb/posf.jpg,stim_02/e.jpg,stim_02/f.jpg,2,3,j,0,43,43,55,j,1,0.566525526876,02,03,60.0131742817,PLT_learning_02,A,2014_Mrz_24_1629,P22,
stim_fb/ques.jpg,stim_fb/posf.jpg,stim_fb/negf.jpg,stim_02/f.jpg,stim_02/e.jpg,1,3,f,0,44,44,47,f,1,0.616511602169,02,03,60.0131742817,PLT_learning_02,A,2014_Mrz_24_1629,P22,
stim_fb/ques.jpg,stim_fb/negf.jpg,stim_fb/posf.jpg,stim_02/a.jpg,stim_02/b.jpg,2,1,j,0,45,45,16,j,1,0.766442129006,02,03,60.0131742817,PLT_learning_02,A,2014_Mrz_24_1629,P22,
stim_fb/ques.jpg,stim_fb/posf.jpg,stim_fb/negf.jpg,stim_02/b.jpg,stim_02/a.jpg,1,1,f,0,46,46,9,f,1,0.583186637696,02,03,60.0131742817,PLT_learning_02,A,2014_Mrz_24_1629,P22,
stim_fb/ques.jpg,stim_fb/posf.jpg,stim_fb/negf.jpg,stim_02/f.jpg,stim_02/e.jpg,1,3,f,0,47,47,46,f,1,0.716487966256,02,03,60.0131742817,PLT_learning_02,A,2014_Mrz_24_1629,P22,
stim_fb/ques.jpg,stim_fb/negf.jpg,stim_fb/posf.jpg,stim_02/f.jpg,stim_02/e.jpg,1,3,f,0,48,48,44,f,1,1.06634322449,02,03,60.0131742817,PLT_learning_02,A,2014_Mrz_24_1629,P22,
stim_fb/ques.jpg,stim_fb/posf.jpg,stim_fb/negf.jpg,stim_02/f.jpg,stim_02/e.jpg,1,3,f,0,49,49,48,f,1,0.516564176209,02,03,60.0131742817,PLT_learning_02,A,2014_Mrz_24_1629,P22,
stim_fb/ques.jpg,stim_fb/negf.jpg,stim_fb/posf.jpg,stim_02/f.jpg,stim_02/e.jpg,1,3,f,0,50,50,43,f,1,0.866423933654,02,03,60.0131742817,PLT_learning_02,A,2014_Mrz_24_1629,P22,
stim_fb/ques.jpg,stim_fb/negf.jpg,stim_fb/posf.jpg,stim_02/d.jpg,stim_02/c.jpg,1,2,f,0,51,51,22,f,1,0.716491409839,02,03,60.0131742817,PLT_learning_02,A,2014_Mrz_24_1629,P22,
stim_fb/ques.jpg,stim_fb/posf.jpg,stim_fb/negf.jpg,stim_02/c.jpg,stim_02/d.jpg,2,2,j,0,52,52,38,j,1,0.566545168833,02,03,60.0131742817,PLT_learning_02,A,2014_Mrz_24_1629,P22,
stim_fb/ques.jpg,stim_fb/negf.jpg,stim_fb/posf.jpg,stim_02/d.jpg,stim_02/c.jpg,1,2,f,0,53,53,25,f,1,0.566526128376,02,03,60.0131742817,PLT_learning_02,A,2014_Mrz_24_1629,P22,
stim_fb/ques.jpg,stim_fb/posf.jpg,stim_fb/negf.jpg,stim_02/d.jpg,stim_02/c.jpg,1,2,f,0,54,54,29,f,1,0.566566642356,02,03,60.0131742817,PLT_learning_02,A,2014_Mrz_24_1629,P22,
stim_fb/ques.jpg,stim_fb/posf.jpg,stim_fb/negf.jpg,stim_02/e.jpg,stim_02/f.jpg,2,3,j,0,55,55,59,j,1,0.64982228705,02,03,60.0131742817,PLT_learning_02,A,2014_Mrz_24_1629,P22,
stim_fb/ques.jpg,stim_fb/posf.jpg,stim_fb/negf.jpg,stim_02/d.jpg,stim_02/c.jpg,1,2,f,0,56,56,28,j,0,0.733130854656,02,03,60.0131742817,PLT_learning_02,A,2014_Mrz_24_1629,P22,
stim_fb/ques.jpg,stim_fb/posf.jpg,stim_fb/negf.jpg,stim_02/d.jpg,stim_02/c.jpg,1,2,f,0,57,57,27,j,0,0.616552952233,02,03,60.0131742817,PLT_learning_02,A,2014_Mrz_24_1629,P22,
stim_fb/ques.jpg,stim_fb/posf.jpg,stim_fb/negf.jpg,stim_02/c.jpg,stim_02/d.jpg,2,2,j,0,58,58,39,f,0,0.733095266954,02,03,60.0131742817,PLT_learning_02,A,2014_Mrz_24_1629,P22,
stim_fb/ques.jpg,stim_fb/posf.jpg,stim_fb/negf.jpg,stim_02/e.jpg,stim_02/f.jpg,2,3,j,0,59,59,58,f,0,1.01637362125,02,03,60.0131742817,PLT_learning_02,A,2014_Mrz_24_1629,P22,
stim_fb/ques.jpg,stim_fb/negf.jpg,stim_fb/posf.jpg,stim_02/c.jpg,stim_02/d.jpg,2,2,j,1,0,60,33,j,1,0.566533662153,02,03,60.0131742817,PLT_learning_02,A,2014_Mrz_24_1629,P22,
stim_fb/ques.jpg,stim_fb/posf.jpg,stim_fb/negf.jpg,stim_02/f.jpg,stim_02/e.jpg,1,3,f,1,1,61,47,f,1,0.61649256171,02,03,60.0131742817,PLT_learning_02,A,2014_Mrz_24_1629,P22,
stim_fb/ques.jpg,stim_fb/posf.jpg,stim_fb/negf.jpg,stim_02/e.jpg,stim_02/f.jpg,2,3,j,1,2,62,57,j,1,0.74982257577,02,03,60.0131742817,PLT_learning_02,A,2014_Mrz_24_1629,P22,
stim_fb/ques.jpg,stim_fb/posf.jpg,stim_fb/negf.jpg,stim_02/c.jpg,stim_02/d.jpg,2,2,j,1,3,63,37,j,1,0.9497184352,02,03,60.0131742817,PLT_learning_02,A,2014_Mrz_24_1629,P22,
stim_fb/ques.jpg,stim_fb/negf.jpg,stim_fb/posf.jpg,stim_02/f.jpg,stim_02/e.jpg,1,3,f,1,4,64,43,j,0,0.933071549838,02,03,60.0131742817,PLT_learning_02,A,2014_Mrz_24_1629,P22,
stim_fb/ques.jpg,stim_fb/posf.jpg,stim_fb/negf.jpg,stim_02/e.jpg,stim_02/f.jpg,2,3,j,1,5,65,59,j,1,0.749807318742,02,03,60.0131742817,PLT_learning_02,A,2014_Mrz_24_1629,P22,
stim_fb/ques.jpg,stim_fb/negf.jpg,stim_fb/posf.jpg,stim_02/d.jpg,stim_02/c.jpg,1,2,f,1,6,66,22,f,1,0.999717836708,02,03,60.0131742817,PLT_learning_02,A,2014_Mrz_24_1629,P22,
stim_fb/ques.jpg,stim_fb/negf.jpg,stim_fb/posf.jpg,stim_02/d.jpg,stim_02/c.jpg,1,2,f,1,7,67,20,f,1,0.683102644341,02,03,60.0131742817,PLT_learning_02,A,2014_Mrz_24_1629,P22,
stim_fb/ques.jpg,stim_fb/posf.jpg,stim_fb/negf.jpg,stim_02/a.jpg,stim_02/b.jpg,2,1,j,1,8,68,19,j,1,0.866436947092,02,03,60.0131742817,PLT_learning_02,A,2014_Mrz_24_1629,P22,
stim_fb/ques.jpg,stim_fb/negf.jpg,stim_fb/posf.jpg,stim_02/b.jpg,stim_02/a.jpg,1,1,f,1,9,69,0,f,1,0.616746250029,02,03,60.0131742817,PLT_learning_02,A,2014_Mrz_24_1629,P22,
stim_fb/ques.jpg,stim_fb/negf.jpg,stim_fb/posf.jpg,stim_02/c.jpg,stim_02/d.jpg,2,2,j,1,10,70,34,j,1,0.733139248576,02,03,60.0131742817,PLT_learning_02,A,2014_Mrz_24_1629,P22,
stim_fb/ques.jpg,stim_fb/posf.jpg,stim_fb/negf.jpg,stim_02/b.jpg,stim_02/a.jpg,1,1,f,1,11,71,9,f,1,0.616504784175,02,03,60.0131742817,PLT_learning_02,A,2014_Mrz_24_1629,P22,
stim_fb/ques.jpg,stim_fb/negf.jpg,stim_fb/posf.jpg,stim_02/b.jpg,stim_02/a.jpg,1,1,f,1,12,72,6,j,0,0.682150389846,02,03,60.0131742817,PLT_learning_02,A,2014_Mrz_24_1629,P22,
stim_fb/ques.jpg,stim_fb/negf.jpg,stim_fb/posf.jpg,stim_02/c.jpg,stim_02/d.jpg,2,2,j,1,13,73,31,j,1,0.583202631558,02,03,60.0131742817,PLT_learning_02,A,2014_Mrz_24_1629,P22,
stim_fb/ques.jpg,stim_fb/posf.jpg,stim_fb/negf.jpg,stim_02/d.jpg,stim_02/c.jpg,1,2,f,1,14,74,29,f,1,0.699810293156,02,03,60.0131742817,PLT_learning_02,A,2014_Mrz_24_1629,P22,
stim_fb/ques.jpg,stim_fb/negf.jpg,stim_fb/posf.jpg,stim_02/b.jpg,stim_02/a.jpg,1,1,f,1,15,75,2,f,1,0.716422219381,02,03,60.0131742817,PLT_learning_02,A,2014_Mrz_24_1629,P22,
stim_fb/ques.jpg,stim_fb/negf.jpg,stim_fb/posf.jpg,stim_02/f.jpg,stim_02/e.jpg,1,3,f,1,16,76,40,f,1,0.616509033767,02,03,60.0131742817,PLT_learning_02,A,2014_Mrz_24_1629,P22,
stim_fb/ques.jpg,stim_fb/negf.jpg,stim_fb/posf.jpg,stim_02/b.jpg,stim_02/a.jpg,1,1,f,1,17,77,5,f,1,0.483207362351,02,03,60.0131742817,PLT_learning_02,A,2014_Mrz_24_1629,P22,
stim_fb/ques.jpg,stim_fb/negf.jpg,stim_fb/posf.jpg,stim_02/e.jpg,stim_02/f.jpg,2,3,j,1,18,78,52,j,1,0.583178189638,02,03,60.0131742817,PLT_learning_02,A,2014_Mrz_24_1629,P22,
stim_fb/ques.jpg,stim_fb/negf.jpg,stim_fb/posf.jpg,stim_02/a.jpg,stim_02/b.jpg,2,1,j,1,19,79,11,j,1,0.783133086217,02,03,60.0131742817,PLT_learning_02,A,2014_Mrz_24_1629,P22,
stim_fb/ques.jpg,stim_fb/posf.jpg,stim_fb/negf.jpg,stim_02/d.jpg,stim_02/c.jpg,1,2,f,1,20,80,27,f,1,0.533220288569,02,03,60.0131742817,PLT_learning_02,A,2014_Mrz_24_1629,P22,
stim_fb/ques.jpg,stim_fb/posf.jpg,stim_fb/negf.jpg,stim_02/c.jpg,stim_02/d.jpg,2,2,j,1,21,81,39,j,1,0.533196102284,02,03,60.0131742817,PLT_learning_02,A,2014_Mrz_24_1629,P22,
stim_fb/ques.jpg,stim_fb/negf.jpg,stim_fb/posf.jpg,stim_02/b.jpg,stim_02/a.jpg,1,1,f,1,22,82,7,f,1,0.666488149713,02,03,60.0131742817,PLT_learning_02,A,2014_Mrz_24_1629,P22,
stim_fb/ques.jpg,stim_fb/posf.jpg,stim_fb/negf.jpg,stim_02/a.jpg,stim_02/b.jpg,2,1,j,1,23,83,18,j,1,0.583190664731,02,03,60.0131742817,PLT_learning_02,A,2014_Mrz_24_1629,P22,
stim_fb/ques.jpg,stim_fb/posf.jpg,stim_fb/negf.jpg,stim_02/d.jpg,stim_02/c.jpg,1,2,f,1,24,84,28,f,1,0.533204204479,02,03,60.0131742817,PLT_learning_02,A,2014_Mrz_24_1629,P22,
stim_fb/ques.jpg,stim_fb/negf.jpg,stim_fb/posf.jpg,stim_02/b.jpg,stim_02/a.jpg,1,1,f,1,25,85,4,j,0,1.03305876497,02,03,60.0131742817,PLT_learning_02,A,2014_Mrz_24_1629,P22,
stim_fb/ques.jpg,stim_fb/negf.jpg,stim_fb/posf.jpg,stim_02/c.jpg,stim_02/d.jpg,2,2,j,1,26,86,30,j,1,0.533157834903,02,03,60.0131742817,PLT_learning_02,A,2014_Mrz_24_1629,P22,
stim_fb/ques.jpg,stim_fb/negf.jpg,stim_fb/posf.jpg,stim_02/a.jpg,stim_02/b.jpg,2,1,j,1,27,87,16,j,1,0.633177371597,02,03,60.0131742817,PLT_learning_02,A,2014_Mrz_24_1629,P22,
stim_fb/ques.jpg,stim_fb/negf.jpg,stim_fb/posf.jpg,stim_02/f.jpg,stim_02/e.jpg,1,3,f,1,28,88,42,f,1,0.649844587635,02,03,60.0131742817,PLT_learning_02,A,2014_Mrz_24_1629,P22,
stim_fb/ques.jpg,stim_fb/negf.jpg,stim_fb/posf.jpg,stim_02/a.jpg,stim_02/b.jpg,2,1,j,1,29,89,15,j,1,0.549845592137,02,03,60.0131742817,PLT_learning_02,A,2014_Mrz_24_1629,P22,
stim_fb/ques.jpg,stim_fb/negf.jpg,stim_fb/posf.jpg,stim_02/c.jpg,stim_02/d.jpg,2,2,j,1,30,90,36,j,1,0.533205503718,02,03,60.0131742817,PLT_learning_02,A,2014_Mrz_24_1629,P22,
stim_fb/ques.jpg,stim_fb/posf.jpg,stim_fb/negf.jpg,stim_02/e.jpg,stim_02/f.jpg,2,3,j,1,31,91,56,j,1,0.566524086285,02,03,60.0131742817,PLT_learning_02,A,2014_Mrz_24_1629,P22,
stim_fb/ques.jpg,stim_fb/negf.jpg,stim_fb/posf.jpg,stim_02/a.jpg,stim_02/b.jpg,2,1,j,1,32,92,13,j,1,0.566510988639,02,03,60.0131742817,PLT_learning_02,A,2014_Mrz_24_1629,P22,
stim_fb/ques.jpg,stim_fb/negf.jpg,stim_fb/posf.jpg,stim_02/d.jpg,stim_02/c.jpg,1,2,f,1,33,93,25,f,1,0.533187515883,02,03,60.0131742817,PLT_learning_02,A,2014_Mrz_24_1629,P22,
stim_fb/ques.jpg,stim_fb/negf.jpg,stim_fb/posf.jpg,stim_02/b.jpg,stim_02/a.jpg,1,1,f,1,34,94,1,f,1,0.599807884151,02,03,60.0131742817,PLT_learning_02,A,2014_Mrz_24_1629,P22,
stim_fb/ques.jpg,stim_fb/negf.jpg,stim_fb/posf.jpg,stim_02/b.jpg,stim_02/a.jpg,1,1,f,1,35,95,3,f,1,0.449852244719,02,03,60.0131742817,PLT_learning_02,A,2014_Mrz_24_1629,P22,
stim_fb/ques.jpg,stim_fb/negf.jpg,stim_fb/posf.jpg,stim_02/d.jpg,stim_02/c.jpg,1,2,f,1,36,96,24,f,1,0.566526513334,02,03,60.0131742817,PLT_learning_02,A,2014_Mrz_24_1629,P22,
stim_fb/ques.jpg,stim_fb/negf.jpg,stim_fb/posf.jpg,stim_02/a.jpg,stim_02/b.jpg,2,1,j,1,37,97,17,j,1,0.533250062781,02,03,60.0131742817,PLT_learning_02,A,2014_Mrz_24_1629,P22,
stim_fb/ques.jpg,stim_fb/negf.jpg,stim_fb/posf.jpg,stim_02/e.jpg,stim_02/f.jpg,2,3,j,1,38,98,53,j,1,0.516547111676,02,03,60.0131742817,PLT_learning_02,A,2014_Mrz_24_1629,P22,
stim_fb/ques.jpg,stim_fb/negf.jpg,stim_fb/posf.jpg,stim_02/d.jpg,stim_02/c.jpg,1,2,f,1,39,99,23,f,1,0.549861832618,02,03,60.0131742817,PLT_learning_02,A,2014_Mrz_24_1629,P22,
stim_fb/ques.jpg,stim_fb/negf.jpg,stim_fb/posf.jpg,stim_02/e.jpg,stim_02/f.jpg,2,3,j,1,40,100,51,j,1,0.516478182872,02,03,60.0131742817,PLT_learning_02,A,2014_Mrz_24_1629,P22,
stim_fb/ques.jpg,stim_fb/posf.jpg,stim_fb/negf.jpg,stim_02/f.jpg,stim_02/e.jpg,1,3,f,1,41,101,49,f,1,0.533210264584,02,03,60.0131742817,PLT_learning_02,A,2014_Mrz_24_1629,P22,
stim_fb/ques.jpg,stim_fb/posf.jpg,stim_fb/negf.jpg,stim_02/c.jpg,stim_02/d.jpg,2,2,j,1,42,102,38,j,1,0.533269013014,02,03,60.0131742817,PLT_learning_02,A,2014_Mrz_24_1629,P22,
stim_fb/ques.jpg,stim_fb/negf.jpg,stim_fb/posf.jpg,stim_02/f.jpg,stim_02/e.jpg,1,3,f,1,43,103,45,f,1,0.783073339298,02,03,60.0131742817,PLT_learning_02,A,2014_Mrz_24_1629,P22,
stim_fb/ques.jpg,stim_fb/posf.jpg,stim_fb/negf.jpg,stim_02/b.jpg,stim_02/a.jpg,1,1,f,1,44,104,8,f,1,0.583150610897,02,03,60.0131742817,PLT_learning_02,A,2014_Mrz_24_1629,P22,
stim_fb/ques.jpg,stim_fb/posf.jpg,stim_fb/negf.jpg,stim_02/f.jpg,stim_02/e.jpg,1,3,f,1,45,105,46,f,1,0.983071438561,02,03,60.0131742817,PLT_learning_02,A,2014_Mrz_24_1629,P22,
stim_fb/ques.jpg,stim_fb/negf.jpg,stim_fb/posf.jpg,stim_02/d.jpg,stim_02/c.jpg,1,2,f,1,46,106,26,j,0,0.616595397027,02,03,60.0131742817,PLT_learning_02,A,2014_Mrz_24_1629,P22,
stim_fb/ques.jpg,stim_fb/posf.jpg,stim_fb/negf.jpg,stim_02/f.jpg,stim_02/e.jpg,1,3,f,1,47,107,48,f,1,0.683156421379,02,03,60.0131742817,PLT_learning_02,A,2014_Mrz_24_1629,P22,
stim_fb/ques.jpg,stim_fb/negf.jpg,stim_fb/posf.jpg,stim_02/d.jpg,stim_02/c.jpg,1,2,f,1,48,108,21,f,1,0.716417398366,02,03,60.0131742817,PLT_learning_02,A,2014_Mrz_24_1629,P22,
stim_fb/ques.jpg,stim_fb/negf.jpg,stim_fb/posf.jpg,stim_02/e.jpg,stim_02/f.jpg,2,3,j,1,49,109,55,j,1,0.716532543365,02,03,60.0131742817,PLT_learning_02,A,2014_Mrz_24_1629,P22,
stim_fb/ques.jpg,stim_fb/posf.jpg,stim_fb/negf.jpg,stim_02/e.jpg,stim_02/f.jpg,2,3,j,1,50,110,58,j,1,0.533195515824,02,03,60.0131742817,PLT_learning_02,A,2014_Mrz_24_1629,P22,
stim_fb/ques.jpg,stim_fb/negf.jpg,stim_fb/posf.jpg,stim_02/f.jpg,stim_02/e.jpg,1,3,f,1,51,111,41,j,0,0.566549409403,02,03,60.0131742817,PLT_learning_02,A,2014_Mrz_24_1629,P22,
stim_fb/ques.jpg,stim_fb/negf.jpg,stim_fb/posf.jpg,stim_02/c.jpg,stim_02/d.jpg,2,2,j,1,52,112,35,j,1,0.549892121111,02,03,60.0131742817,PLT_learning_02,A,2014_Mrz_24_1629,P22,
stim_fb/ques.jpg,stim_fb/negf.jpg,stim_fb/posf.jpg,stim_02/a.jpg,stim_02/b.jpg,2,1,j,1,53,113,12,j,1,0.466570714505,02,03,60.0131742817,PLT_learning_02,A,2014_Mrz_24_1629,P22,
stim_fb/ques.jpg,stim_fb/negf.jpg,stim_fb/posf.jpg,stim_02/c.jpg,stim_02/d.jpg,2,2,j,1,54,114,32,j,1,0.433241386154,02,03,60.0131742817,PLT_learning_02,A,2014_Mrz_24_1629,P22,
stim_fb/ques.jpg,stim_fb/negf.jpg,stim_fb/posf.jpg,stim_02/e.jpg,stim_02/f.jpg,2,3,j,1,55,115,54,j,1,0.499852620656,02,03,60.0131742817,PLT_learning_02,A,2014_Mrz_24_1629,P22,
stim_fb/ques.jpg,stim_fb/negf.jpg,stim_fb/posf.jpg,stim_02/a.jpg,stim_02/b.jpg,2,1,j,1,56,116,14,j,1,0.566534943348,02,03,60.0131742817,PLT_learning_02,A,2014_Mrz_24_1629,P22,
stim_fb/ques.jpg,stim_fb/negf.jpg,stim_fb/posf.jpg,stim_02/a.jpg,stim_02/b.jpg,2,1,j,1,57,117,10,j,1,0.449887513627,02,03,60.0131742817,PLT_learning_02,A,2014_Mrz_24_1629,P22,
stim_fb/ques.jpg,stim_fb/negf.jpg,stim_fb/posf.jpg,stim_02/f.jpg,stim_02/e.jpg,1,3,f,1,58,118,44,f,1,0.599848301894,02,03,60.0131742817,PLT_learning_02,A,2014_Mrz_24_1629,P22,
stim_fb/ques.jpg,stim_fb/negf.jpg,stim_fb/posf.jpg,stim_02/e.jpg,stim_02/f.jpg,2,3,j,1,59,119,50,j,1,0.49989991955,02,03,60.0131742817,PLT_learning_02,A,2014_Mrz_24_1629,P22,
stim_fb/ques.jpg,stim_fb/negf.jpg,stim_fb/posf.jpg,stim_02/d.jpg,stim_02/c.jpg,1,2,f,2,0,120,26,f,1,0.599819508125,02,03,60.0131742817,PLT_learning_02,A,2014_Mrz_24_1629,P22,
stim_fb/ques.jpg,stim_fb/negf.jpg,stim_fb/posf.jpg,stim_02/b.jpg,stim_02/a.jpg,1,1,f,2,1,121,5,f,1,0.499889236924,02,03,60.0131742817,PLT_learning_02,A,2014_Mrz_24_1629,P22,
stim_fb/ques.jpg,stim_fb/posf.jpg,stim_fb/negf.jpg,stim_02/e.jpg,stim_02/f.jpg,2,3,j,2,2,122,58,j,1,0.683196424086,02,03,60.0131742817,PLT_learning_02,A,2014_Mrz_24_1629,P22,
stim_fb/ques.jpg,stim_fb/negf.jpg,stim_fb/posf.jpg,stim_02/e.jpg,stim_02/f.jpg,2,3,j,2,3,123,50,j,1,0.599852190586,02,03,60.0131742817,PLT_learning_02,A,2014_Mrz_24_1629,P22,
stim_fb/ques.jpg,stim_fb/posf.jpg,stim_fb/negf.jpg,stim_02/f.jpg,stim_02/e.jpg,1,3,f,2,4,124,48,f,1,0.6165262186,02,03,60.0131742817,PLT_learning_02,A,2014_Mrz_24_1629,P22,
stim_fb/ques.jpg,stim_fb/negf.jpg,stim_fb/posf.jpg,stim_02/e.jpg,stim_02/f.jpg,2,3,j,2,5,125,51,j,1,0.716472053595,02,03,60.0131742817,PLT_learning_02,A,2014_Mrz_24_1629,P22,
stim_fb/ques.jpg,stim_fb/negf.jpg,stim_fb/posf.jpg,stim_02/e.jpg,stim_02/f.jpg,2,3,j,2,6,126,52,j,1,0.49990288494,02,03,60.0131742817,PLT_learning_02,A,2014_Mrz_24_1629,P22,
stim_fb/ques.jpg,stim_fb/negf.jpg,stim_fb/posf.jpg,stim_02/e.jpg,stim_02/f.jpg,2,3,j,2,7,127,53,j,1,0.433232730582,02,03,60.0131742817,PLT_learning_02,A,2014_Mrz_24_1629,P22,
stim_fb/ques.jpg,stim_fb/posf.jpg,stim_fb/negf.jpg,stim_02/c.jpg,stim_02/d.jpg,2,2,j,2,8,128,38,j,1,0.733142232013,02,03,60.0131742817,PLT_learning_02,A,2014_Mrz_24_1629,P22,
stim_fb/ques.jpg,stim_fb/posf.jpg,stim_fb/negf.jpg,stim_02/d.jpg,stim_02/c.jpg,1,2,f,2,9,129,29,f,1,0.699795893262,02,03,60.0131742817,PLT_learning_02,A,2014_Mrz_24_1629,P22,
stim_fb/ques.jpg,stim_fb/negf.jpg,stim_fb/posf.jpg,stim_02/f.jpg,stim_02/e.jpg,1,3,f,2,10,130,42,f,1,0.733294835378,02,03,60.0131742817,PLT_learning_02,A,2014_Mrz_24_1629,P22,
stim_fb/ques.jpg,stim_fb/negf.jpg,stim_fb/posf.jpg,stim_02/c.jpg,stim_02/d.jpg,2,2,j,2,11,131,36,f,0,0.516532862159,02,03,60.0131742817,PLT_learning_02,A,2014_Mrz_24_1629,P22,
stim_fb/ques.jpg,stim_fb/negf.jpg,stim_fb/posf.jpg,stim_02/b.jpg,stim_02/a.jpg,1,1,f,2,12,132,2,f,1,0.566539812482,02,03,60.0131742817,PLT_learning_02,A,2014_Mrz_24_1629,P22,
stim_fb/ques.jpg,stim_fb/posf.jpg,stim_fb/negf.jpg,stim_02/e.jpg,stim_02/f.jpg,2,3,j,2,13,133,57,j,1,0.683181257284,02,03,60.0131742817,PLT_learning_02,A,2014_Mrz_24_1629,P22,
stim_fb/ques.jpg,stim_fb/negf.jpg,stim_fb/posf.jpg,stim_02/a.jpg,stim_02/b.jpg,2,1,j,2,14,134,15,j,1,0.599866262659,02,03,60.0131742817,PLT_learning_02,A,2014_Mrz_24_1629,P22,
stim_fb/ques.jpg,stim_fb/negf.jpg,stim_fb/posf.jpg,stim_02/d.jpg,stim_02/c.jpg,1,2,f,2,15,135,20,f,1,0.499833071932,02,03,60.0131742817,PLT_learning_02,A,2014_Mrz_24_1629,P22,
stim_fb/ques.jpg,stim_fb/posf.jpg,stim_fb/negf.jpg,stim_02/c.jpg,stim_02/d.jpg,2,2,j,2,16,136,39,j,1,0.48320078195,02,03,60.0131742817,PLT_learning_02,A,2014_Mrz_24_1629,P22,
stim_fb/ques.jpg,stim_fb/negf.jpg,stim_fb/posf.jpg,stim_02/a.jpg,stim_02/b.jpg,2,1,j,2,17,137,16,j,1,0.666497382726,02,03,60.0131742817,PLT_learning_02,A,2014_Mrz_24_1629,P22,
stim_fb/ques.jpg,stim_fb/negf.jpg,stim_fb/posf.jpg,stim_02/b.jpg,stim_02/a.jpg,1,1,f,2,18,138,6,f,1,0.516538952339,02,03,60.0131742817,PLT_learning_02,A,2014_Mrz_24_1629,P22,
stim_fb/ques.jpg,stim_fb/negf.jpg,stim_fb/posf.jpg,stim_02/a.jpg,stim_02/b.jpg,2,1,j,2,19,139,11,j,1,0.383224471998,02,03,60.0131742817,PLT_learning_02,A,2014_Mrz_24_1629,P22,
stim_fb/ques.jpg,stim_fb/posf.jpg,stim_fb/negf.jpg,stim_02/c.jpg,stim_02/d.jpg,2,2,j,2,20,140,37,j,1,0.999729532861,02,03,60.0131742817,PLT_learning_02,A,2014_Mrz_24_1629,P22,
stim_fb/ques.jpg,stim_fb/negf.jpg,stim_fb/posf.jpg,stim_02/d.jpg,stim_02/c.jpg,1,2,f,2,21,141,24,j,0,0.883065772437,02,03,60.0131742817,PLT_learning_02,A,2014_Mrz_24_1629,P22,
stim_fb/ques.jpg,stim_fb/negf.jpg,stim_fb/posf.jpg,stim_02/b.jpg,stim_02/a.jpg,1,1,f,2,22,142,7,f,1,0.716485485073,02,03,60.0131742817,PLT_learning_02,A,2014_Mrz_24_1629,P22,
stim_fb/ques.jpg,stim_fb/negf.jpg,stim_fb/posf.jpg,stim_02/c.jpg,stim_02/d.jpg,2,2,j,2,23,143,30,f,0,0.683167720543,02,03,60.0131742817,PLT_learning_02,A,2014_Mrz_24_1629,P22,
stim_fb/ques.jpg,stim_fb/negf.jpg,stim_fb/posf.jpg,stim_02/c.jpg,stim_02/d.jpg,2,2,j,2,24,144,33,j,1,0.449889369254,02,03,60.0131742817,PLT_learning_02,A,2014_Mrz_24_1629,P22,
stim_fb/ques.jpg,stim_fb/posf.jpg,stim_fb/negf.jpg,stim_02/a.jpg,stim_02/b.jpg,2,1,j,2,25,145,19,j,1,0.583177894903,02,03,60.0131742817,PLT_learning_02,A,2014_Mrz_24_1629,P22,
stim_fb/ques.jpg,stim_fb/negf.jpg,stim_fb/posf.jpg,stim_02/d.jpg,stim_02/c.jpg,1,2,f,2,26,146,21,f,1,0.86641915775,02,03,60.0131742817,PLT_learning_02,A,2014_Mrz_24_1629,P22,
stim_fb/ques.jpg,stim_fb/posf.jpg,stim_fb/negf.jpg,stim_02/d.jpg,stim_02/c.jpg,1,2,f,2,27,147,27,f,1,0.483260583002,02,03,60.0131742817,PLT_learning_02,A,2014_Mrz_24_1629,P22,
stim_fb/ques.jpg,stim_fb/negf.jpg,stim_fb/posf.jpg,stim_02/f.jpg,stim_02/e.jpg,1,3,f,2,28,148,43,f,1,0.599849080834,02,03,60.0131742817,PLT_learning_02,A,2014_Mrz_24_1629,P22,
stim_fb/ques.jpg,stim_fb/negf.jpg,stim_fb/posf.jpg,stim_02/a.jpg,stim_02/b.jpg,2,1,j,2,29,149,17,j,1,0.449891429387,02,03,60.0131742817,PLT_learning_02,A,2014_Mrz_24_1629,P22,
stim_fb/ques.jpg,stim_fb/negf.jpg,stim_fb/posf.jpg,stim_02/b.jpg,stim_02/a.jpg,1,1,f,2,30,150,4,f,1,0.48322886294,02,03,60.0131742817,PLT_learning_02,A,2014_Mrz_24_1629,P22,
stim_fb/ques.jpg,stim_fb/negf.jpg,stim_fb/posf.jpg,stim_02/e.jpg,stim_02/f.jpg,2,3,j,2,31,151,54,j,1,0.699827111073,02,03,60.0131742817,PLT_learning_02,A,2014_Mrz_24_1629,P22,
stim_fb/ques.jpg,stim_fb/negf.jpg,stim_fb/posf.jpg,stim_02/a.jpg,stim_02/b.jpg,2,1,j,2,32,152,14,j,1,0.849796458673,02,03,60.0131742817,PLT_learning_02,A,2014_Mrz_24_1629,P22,
stim_fb/ques.jpg,stim_fb/negf.jpg,stim_fb/posf.jpg,stim_02/c.jpg,stim_02/d.jpg,2,2,j,2,33,153,32,j,1,0.933049634214,02,03,60.0131742817,PLT_learning_02,A,2014_Mrz_24_1629,P22,
stim_fb/ques.jpg,stim_fb/negf.jpg,stim_fb/posf.jpg,stim_02/b.jpg,stim_02/a.jpg,1,1,f,2,34,154,0,f,1,0.599825171239,02,03,60.0131742817,PLT_learning_02,A,2014_Mrz_24_1629,P22,
stim_fb/ques.jpg,stim_fb/negf.jpg,stim_fb/posf.jpg,stim_02/f.jpg,stim_02/e.jpg,1,3,f,2,35,155,40,f,1,0.583207106713,02,03,60.0131742817,PLT_learning_02,A,2014_Mrz_24_1629,P22,
stim_fb/ques.jpg,stim_fb/posf.jpg,stim_fb/negf.jpg,stim_02/a.jpg,stim_02/b.jpg,2,1,j,2,36,156,18,j,1,0.499892030888,02,03,60.0131742817,PLT_learning_02,A,2014_Mrz_24_1629,P22,
stim_fb/ques.jpg,stim_fb/negf.jpg,stim_fb/posf.jpg,stim_02/c.jpg,stim_02/d.jpg,2,2,j,2,37,157,35,j,1,0.566589360982,02,03,60.0131742817,PLT_learning_02,A,2014_Mrz_24_1629,P22,
stim_fb/ques.jpg,stim_fb/negf.jpg,stim_fb/posf.jpg,stim_02/f.jpg,stim_02/e.jpg,1,3,f,2,38,158,44,f,1,0.583194974473,02,03,60.0131742817,PLT_learning_02,A,2014_Mrz_24_1629,P22,
stim_fb/ques.jpg,stim_fb/negf.jpg,stim_fb/posf.jpg,stim_02/a.jpg,stim_02/b.jpg,2,1,j,2,39,159,10,j,1,0.483223437417,02,03,60.0131742817,PLT_learning_02,A,2014_Mrz_24_1629,P22,
stim_fb/ques.jpg,stim_fb/posf.jpg,stim_fb/negf.jpg,stim_02/b.jpg,stim_02/a.jpg,1,1,f,2,40,160,9,f,1,0.499906090932,02,03,60.0131742817,PLT_learning_02,A,2014_Mrz_24_1629,P22,
stim_fb/ques.jpg,stim_fb/posf.jpg,stim_fb/negf.jpg,stim_02/e.jpg,stim_02/f.jpg,2,3,j,2,41,161,56,j,1,0.666502621785,02,03,60.0131742817,PLT_learning_02,A,2014_Mrz_24_1629,P22,
stim_fb/ques.jpg,stim_fb/posf.jpg,stim_fb/negf.jpg,stim_02/f.jpg,stim_02/e.jpg,1,3,f,2,42,162,47,j,0,0.666496787242,02,03,60.0131742817,PLT_learning_02,A,2014_Mrz_24_1629,P22,
stim_fb/ques.jpg,stim_fb/posf.jpg,stim_fb/negf.jpg,stim_02/e.jpg,stim_02/f.jpg,2,3,j,2,43,163,59,f,0,0.633163134111,02,03,60.0131742817,PLT_learning_02,A,2014_Mrz_24_1629,P22,
stim_fb/ques.jpg,stim_fb/negf.jpg,stim_fb/posf.jpg,stim_02/d.jpg,stim_02/c.jpg,1,2,f,2,44,164,25,j,0,0.599840145564,02,03,60.0131742817,PLT_learning_02,A,2014_Mrz_24_1629,P22,
stim_fb/ques.jpg,stim_fb/negf.jpg,stim_fb/posf.jpg,stim_02/c.jpg,stim_02/d.jpg,2,2,j,2,45,165,31,j,1,0.749748792867,02,03,60.0131742817,PLT_learning_02,A,2014_Mrz_24_1629,P22,
stim_fb/ques.jpg,stim_fb/posf.jpg,stim_fb/negf.jpg,stim_02/b.jpg,stim_02/a.jpg,1,1,f,2,46,166,8,f,1,0.566507358591,02,03,60.0131742817,PLT_learning_02,A,2014_Mrz_24_1629,P22,
stim_fb/ques.jpg,stim_fb/negf.jpg,stim_fb/posf.jpg,stim_02/d.jpg,stim_02/c.jpg,1,2,f,2,47,167,23,f,1,0.833100205262,02,03,60.0131742817,PLT_learning_02,A,2014_Mrz_24_1629,P22,
stim_fb/ques.jpg,stim_fb/posf.jpg,stim_fb/negf.jpg,stim_02/f.jpg,stim_02/e.jpg,1,3,f,2,48,168,49,f,1,0.699829180232,02,03,60.0131742817,PLT_learning_02,A,2014_Mrz_24_1629,P22,
stim_fb/ques.jpg,stim_fb/posf.jpg,stim_fb/negf.jpg,stim_02/f.jpg,stim_02/e.jpg,1,3,f,2,49,169,46,j,0,0.616509926993,02,03,60.0131742817,PLT_learning_02,A,2014_Mrz_24_1629,P22,
stim_fb/ques.jpg,stim_fb/negf.jpg,stim_fb/posf.jpg,stim_02/a.jpg,stim_02/b.jpg,2,1,j,2,50,170,13,j,1,0.749800828566,02,03,60.0131742817,PLT_learning_02,A,2014_Mrz_24_1629,P22,
stim_fb/ques.jpg,stim_fb/negf.jpg,stim_fb/posf.jpg,stim_02/b.jpg,stim_02/a.jpg,1,1,f,2,51,171,3,f,1,0.566513451779,02,03,60.0131742817,PLT_learning_02,A,2014_Mrz_24_1629,P22,
stim_fb/ques.jpg,stim_fb/negf.jpg,stim_fb/posf.jpg,stim_02/a.jpg,stim_02/b.jpg,2,1,j,2,52,172,12,j,1,0.916404929285,02,03,60.0131742817,PLT_learning_02,A,2014_Mrz_24_1629,P22,
stim_fb/ques.jpg,stim_fb/negf.jpg,stim_fb/posf.jpg,stim_02/f.jpg,stim_02/e.jpg,1,3,f,2,53,173,45,j,0,1.06636407546,02,03,60.0131742817,PLT_learning_02,A,2014_Mrz_24_1629,P22,
stim_fb/ques.jpg,stim_fb/negf.jpg,stim_fb/posf.jpg,stim_02/f.jpg,stim_02/e.jpg,1,3,f,2,54,174,41,j,0,0.566531995999,02,03,60.0131742817,PLT_learning_02,A,2014_Mrz_24_1629,P22,
stim_fb/ques.jpg,stim_fb/negf.jpg,stim_fb/posf.jpg,stim_02/e.jpg,stim_02/f.jpg,2,3,j,2,55,175,55,f,0,1.21629204593,02,03,60.0131742817,PLT_learning_02,A,2014_Mrz_24_1629,P22,
stim_fb/ques.jpg,stim_fb/negf.jpg,stim_fb/posf.jpg,stim_02/d.jpg,stim_02/c.jpg,1,2,f,2,56,176,22,f,1,1.03304273802,02,03,60.0131742817,PLT_learning_02,A,2014_Mrz_24_1629,P22,
stim_fb/ques.jpg,stim_fb/negf.jpg,stim_fb/posf.jpg,stim_02/b.jpg,stim_02/a.jpg,1,1,f,2,57,177,1,f,1,0.633198393996,02,03,60.0131742817,PLT_learning_02,A,2014_Mrz_24_1629,P22,
stim_fb/ques.jpg,stim_fb/negf.jpg,stim_fb/posf.jpg,stim_02/c.jpg,stim_02/d.jpg,2,2,j,2,58,178,34,j,1,0.899754113128,02,03,60.0131742817,PLT_learning_02,A,2014_Mrz_24_1629,P22,
stim_fb/ques.jpg,stim_fb/posf.jpg,stim_fb/negf.jpg,stim_02/d.jpg,stim_02/c.jpg,1,2,f,2,59,179,28,f,1,0.649840572627,02,03,60.0131742817,PLT_learning_02,A,2014_Mrz_24_1629,P22,
stim_fb/ques.jpg,stim_fb/posf.jpg,stim_fb/negf.jpg,stim_02/b.jpg,stim_02/a.jpg,1,1,f,3,0,180,8,f,1,0.816448877829,02,03,60.0131742817,PLT_learning_02,A,2014_Mrz_24_1629,P22,
stim_fb/ques.jpg,stim_fb/negf.jpg,stim_fb/posf.jpg,stim_02/b.jpg,stim_02/a.jpg,1,1,f,3,1,181,6,f,1,0.4832353862,02,03,60.0131742817,PLT_learning_02,A,2014_Mrz_24_1629,P22,
stim_fb/ques.jpg,stim_fb/negf.jpg,stim_fb/posf.jpg,stim_02/d.jpg,stim_02/c.jpg,1,2,f,3,2,182,20,f,1,0.699685036954,02,03,60.0131742817,PLT_learning_02,A,2014_Mrz_24_1629,P22,
stim_fb/ques.jpg,stim_fb/negf.jpg,stim_fb/posf.jpg,stim_02/c.jpg,stim_02/d.jpg,2,2,j,3,3,183,36,j,1,0.549884815904,02,03,60.0131742817,PLT_learning_02,A,2014_Mrz_24_1629,P22,
stim_fb/ques.jpg,stim_fb/negf.jpg,stim_fb/posf.jpg,stim_02/c.jpg,stim_02/d.jpg,2,2,j,3,4,184,35,j,1,0.449899862408,02,03,60.0131742817,PLT_learning_02,A,2014_Mrz_24_1629,P22,
stim_fb/ques.jpg,stim_fb/posf.jpg,stim_fb/negf.jpg,stim_02/d.jpg,stim_02/c.jpg,1,2,f,3,5,185,29,f,1,0.516519135947,02,03,60.0131742817,PLT_learning_02,A,2014_Mrz_24_1629,P22,
stim_fb/ques.jpg,stim_fb/negf.jpg,stim_fb/posf.jpg,stim_02/a.jpg,stim_02/b.jpg,2,1,j,3,6,186,14,j,1,0.783091140669,02,03,60.0131742817,PLT_learning_02,A,2014_Mrz_24_1629,P22,
stim_fb/ques.jpg,stim_fb/posf.jpg,stim_fb/negf.jpg,stim_02/a.jpg,stim_02/b.jpg,2,1,j,3,7,187,19,j,1,0.44990442478,02,03,60.0131742817,PLT_learning_02,A,2014_Mrz_24_1629,P22,
stim_fb/ques.jpg,stim_fb/negf.jpg,stim_fb/posf.jpg,stim_02/d.jpg,stim_02/c.jpg,1,2,f,3,8,188,23,f,1,0.533168165652,02,03,60.0131742817,PLT_learning_02,A,2014_Mrz_24_1629,P22,
stim_fb/ques.jpg,stim_fb/posf.jpg,stim_fb/negf.jpg,stim_02/f.jpg,stim_02/e.jpg,1,3,f,3,9,189,49,f,1,0.716503653357,02,03,60.0131742817,PLT_learning_02,A,2014_Mrz_24_1629,P22,
stim_fb/ques.jpg,stim_fb/negf.jpg,stim_fb/posf.jpg,stim_02/b.jpg,stim_02/a.jpg,1,1,f,3,10,190,0,f,1,0.599851122925,02,03,60.0131742817,PLT_learning_02,A,2014_Mrz_24_1629,P22,
stim_fb/ques.jpg,stim_fb/negf.jpg,stim_fb/posf.jpg,stim_02/c.jpg,stim_02/d.jpg,2,2,j,3,11,191,34,j,1,0.683137928285,02,03,60.0131742817,PLT_learning_02,A,2014_Mrz_24_1629,P22,
stim_fb/ques.jpg,stim_fb/posf.jpg,stim_fb/negf.jpg,stim_02/e.jpg,stim_02/f.jpg,2,3,j,3,12,192,58,j,1,0.68321699536,02,03,60.0131742817,PLT_learning_02,A,2014_Mrz_24_1629,P22,
stim_fb/ques.jpg,stim_fb/negf.jpg,stim_fb/posf.jpg,stim_02/d.jpg,stim_02/c.jpg,1,2,f,3,13,193,26,f,1,0.666501614274,02,03,60.0131742817,PLT_learning_02,A,2014_Mrz_24_1629,P22,
stim_fb/ques.jpg,stim_fb/posf.jpg,stim_fb/negf.jpg,stim_02/c.jpg,stim_02/d.jpg,2,2,j,3,14,194,37,j,1,0.699827267463,02,03,60.0131742817,PLT_learning_02,A,2014_Mrz_24_1629,P22,
stim_fb/ques.jpg,stim_fb/negf.jpg,stim_fb/posf.jpg,stim_02/f.jpg,stim_02/e.jpg,1,3,f,3,15,195,45,f,1,1.08300057293,02,03,60.0131742817,PLT_learning_02,A,2014_Mrz_24_1629,P22,
stim_fb/ques.jpg,stim_fb/posf.jpg,stim_fb/negf.jpg,stim_02/c.jpg,stim_02/d.jpg,2,2,j,3,16,196,39,j,1,0.683196694761,02,03,60.0131742817,PLT_learning_02,A,2014_Mrz_24_1629,P22,
stim_fb/ques.jpg,stim_fb/posf.jpg,stim_fb/negf.jpg,stim_02/e.jpg,stim_02/f.jpg,2,3,j,3,17,197,57,f,0,0.766467265659,02,03,60.0131742817,PLT_learning_02,A,2014_Mrz_24_1629,P22,
stim_fb/ques.jpg,stim_fb/negf.jpg,stim_fb/posf.jpg,stim_02/e.jpg,stim_02/f.jpg,2,3,j,3,18,198,50,f,0,0.983054328914,02,03,60.0131742817,PLT_learning_02,A,2014_Mrz_24_1629,P22,
stim_fb/ques.jpg,stim_fb/negf.jpg,stim_fb/posf.jpg,stim_02/f.jpg,stim_02/e.jpg,1,3,f,3,19,199,42,j,0,1.26630477365,02,03,60.0131742817,PLT_learning_02,A,2014_Mrz_24_1629,P22,
stim_fb/ques.jpg,stim_fb/negf.jpg,stim_fb/posf.jpg,stim_02/a.jpg,stim_02/b.jpg,2,1,j,3,20,200,16,j,1,0.899731577958,02,03,60.0131742817,PLT_learning_02,A,2014_Mrz_24_1629,P22,
stim_fb/ques.jpg,stim_fb/negf.jpg,stim_fb/posf.jpg,stim_02/c.jpg,stim_02/d.jpg,2,2,j,3,21,201,30,j,1,0.799776064841,02,03,60.0131742817,PLT_learning_02,A,2014_Mrz_24_1629,P22,
stim_fb/ques.jpg,stim_fb/posf.jpg,stim_fb/negf.jpg,stim_02/d.jpg,stim_02/c.jpg,1,2,f,3,22,202,28,f,1,0.76644141623,02,03,60.0131742817,PLT_learning_02,A,2014_Mrz_24_1629,P22,
stim_fb/ques.jpg,stim_fb/posf.jpg,stim_fb/negf.jpg,stim_02/f.jpg,stim_02/e.jpg,1,3,f,3,23,203,48,f,1,1.14969839024,02,03,60.0131742817,PLT_learning_02,A,2014_Mrz_24_1629,P22,
stim_fb/ques.jpg,stim_fb/posf.jpg,stim_fb/negf.jpg,stim_02/c.jpg,stim_02/d.jpg,2,2,j,3,24,204,38,j,1,0.616497304532,02,03,60.0131742817,PLT_learning_02,A,2014_Mrz_24_1629,P22,
stim_fb/ques.jpg,stim_fb/negf.jpg,stim_fb/posf.jpg,stim_02/b.jpg,stim_02/a.jpg,1,1,f,3,25,205,2,f,1,0.666494206811,02,03,60.0131742817,PLT_learning_02,A,2014_Mrz_24_1629,P22,
stim_fb/ques.jpg,stim_fb/negf.jpg,stim_fb/posf.jpg,stim_02/b.jpg,stim_02/a.jpg,1,1,f,3,26,206,5,f,1,0.616499755641,02,03,60.0131742817,PLT_learning_02,A,2014_Mrz_24_1629,P22,
stim_fb/ques.jpg,stim_fb/negf.jpg,stim_fb/posf.jpg,stim_02/b.jpg,stim_02/a.jpg,1,1,f,3,27,207,1,f,1,0.533213097646,02,03,60.0131742817,PLT_learning_02,A,2014_Mrz_24_1629,P22,
stim_fb/ques.jpg,stim_fb/negf.jpg,stim_fb/posf.jpg,stim_02/d.jpg,stim_02/c.jpg,1,2,f,3,28,208,22,f,1,0.616499924061,02,03,60.0131742817,PLT_learning_02,A,2014_Mrz_24_1629,P22,
stim_fb/ques.jpg,stim_fb/negf.jpg,stim_fb/posf.jpg,stim_02/a.jpg,stim_02/b.jpg,2,1,j,3,29,209,11,j,1,0.599825950181,02,03,60.0131742817,PLT_learning_02,A,2014_Mrz_24_1629,P22,
stim_fb/ques.jpg,stim_fb/negf.jpg,stim_fb/posf.jpg,stim_02/e.jpg,stim_02/f.jpg,2,3,j,3,30,210,53,f,0,1.08300522853,02,03,60.0131742817,PLT_learning_02,A,2014_Mrz_24_1629,P22,
stim_fb/ques.jpg,stim_fb/posf.jpg,stim_fb/negf.jpg,stim_02/b.jpg,stim_02/a.jpg,1,1,f,3,31,211,9,f,1,0.699800314283,02,03,60.0131742817,PLT_learning_02,A,2014_Mrz_24_1629,P22,
stim_fb/ques.jpg,stim_fb/posf.jpg,stim_fb/negf.jpg,stim_02/e.jpg,stim_02/f.jpg,2,3,j,3,32,212,56,j,1,0.616524970488,02,03,60.0131742817,PLT_learning_02,A,2014_Mrz_24_1629,P22,
stim_fb/ques.jpg,stim_fb/posf.jpg,stim_fb/negf.jpg,stim_02/f.jpg,stim_02/e.jpg,1,3,f,3,33,213,47,f,1,0.549823240428,02,03,60.0131742817,PLT_learning_02,A,2014_Mrz_24_1629,P22,
stim_fb/ques.jpg,stim_fb/negf.jpg,stim_fb/posf.jpg,stim_02/f.jpg,stim_02/e.jpg,1,3,f,3,34,214,40,j,0,0.583169699477,02,03,60.0131742817,PLT_learning_02,A,2014_Mrz_24_1629,P22,
stim_fb/ques.jpg,stim_fb/negf.jpg,stim_fb/posf.jpg,stim_02/e.jpg,stim_02/f.jpg,2,3,j,3,35,215,54,f,0,0.783122057728,02,03,60.0131742817,PLT_learning_02,A,2014_Mrz_24_1629,P22,
stim_fb/ques.jpg,stim_fb/negf.jpg,stim_fb/posf.jpg,stim_02/c.jpg,stim_02/d.jpg,2,2,j,3,36,216,32,j,1,0.733113242757,02,03,60.0131742817,PLT_learning_02,A,2014_Mrz_24_1629,P22,
stim_fb/ques.jpg,stim_fb/negf.jpg,stim_fb/posf.jpg,stim_02/f.jpg,stim_02/e.jpg,1,3,f,3,37,217,41,j,0,1.01640366313,02,03,60.0131742817,PLT_learning_02,A,2014_Mrz_24_1629,P22,
stim_fb/ques.jpg,stim_fb/negf.jpg,stim_fb/posf.jpg,stim_02/c.jpg,stim_02/d.jpg,2,2,j,3,38,218,33,j,1,0.749776203187,02,03,60.0131742817,PLT_learning_02,A,2014_Mrz_24_1629,P22,
stim_fb/ques.jpg,stim_fb/negf.jpg,stim_fb/posf.jpg,stim_02/b.jpg,stim_02/a.jpg,1,1,f,3,39,219,7,f,1,0.699780500898,02,03,60.0131742817,PLT_learning_02,A,2014_Mrz_24_1629,P22,
stim_fb/ques.jpg,stim_fb/negf.jpg,stim_fb/posf.jpg,stim_02/b.jpg,stim_02/a.jpg,1,1,f,3,40,220,4,f,1,0.599845562063,02,03,60.0131742817,PLT_learning_02,A,2014_Mrz_24_1629,P22,
stim_fb/ques.jpg,stim_fb/posf.jpg,stim_fb/negf.jpg,stim_02/f.jpg,stim_02/e.jpg,1,3,f,3,41,221,46,f,1,0.99972803212,02,03,60.0131742817,PLT_learning_02,A,2014_Mrz_24_1629,P22,
stim_fb/ques.jpg,stim_fb/negf.jpg,stim_fb/posf.jpg,stim_02/d.jpg,stim_02/c.jpg,1,2,f,3,42,222,21,f,1,0.783082827948,02,03,60.0131742817,PLT_learning_02,A,2014_Mrz_24_1629,P22,
stim_fb/ques.jpg,stim_fb/negf.jpg,stim_fb/posf.jpg,stim_02/c.jpg,stim_02/d.jpg,2,2,j,3,43,223,31,j,1,0.599876397922,02,03,60.0131742817,PLT_learning_02,A,2014_Mrz_24_1629,P22,
stim_fb/ques.jpg,stim_fb/negf.jpg,stim_fb/posf.jpg,stim_02/b.jpg,stim_02/a.jpg,1,1,f,3,44,224,3,f,1,0.599873964857,02,03,60.0131742817,PLT_learning_02,A,2014_Mrz_24_1629,P22,
stim_fb/ques.jpg,stim_fb/negf.jpg,stim_fb/posf.jpg,stim_02/f.jpg,stim_02/e.jpg,1,3,f,3,45,225,44,j,0,1.13297425433,02,03,60.0131742817,PLT_learning_02,A,2014_Mrz_24_1629,P22,
stim_fb/ques.jpg,stim_fb/posf.jpg,stim_fb/negf.jpg,stim_02/a.jpg,stim_02/b.jpg,2,1,j,3,46,226,18,j,1,0.716488766249,02,03,60.0131742817,PLT_learning_02,A,2014_Mrz_24_1629,P22,
stim_fb/ques.jpg,stim_fb/negf.jpg,stim_fb/posf.jpg,stim_02/a.jpg,stim_02/b.jpg,2,1,j,3,47,227,15,j,1,0.516537574906,02,03,60.0131742817,PLT_learning_02,A,2014_Mrz_24_1629,P22,
stim_fb/ques.jpg,stim_fb/negf.jpg,stim_fb/posf.jpg,stim_02/a.jpg,stim_02/b.jpg,2,1,j,3,48,228,10,j,1,0.466592735393,02,03,60.0131742817,PLT_learning_02,A,2014_Mrz_24_1629,P22,
stim_fb/ques.jpg,stim_fb/negf.jpg,stim_fb/posf.jpg,stim_02/a.jpg,stim_02/b.jpg,2,1,j,3,49,229,12,j,1,0.4498936008,02,03,60.0131742817,PLT_learning_02,A,2014_Mrz_24_1629,P22,
stim_fb/ques.jpg,stim_fb/negf.jpg,stim_fb/posf.jpg,stim_02/f.jpg,stim_02/e.jpg,1,3,f,3,50,230,43,f,1,0.88309355268,02,03,60.0131742817,PLT_learning_02,A,2014_Mrz_24_1629,P22,
stim_fb/ques.jpg,stim_fb/posf.jpg,stim_fb/negf.jpg,stim_02/e.jpg,stim_02/f.jpg,2,3,j,3,51,231,59,j,1,0.683151480065,02,03,60.0131742817,PLT_learning_02,A,2014_Mrz_24_1629,P22,
stim_fb/ques.jpg,stim_fb/negf.jpg,stim_fb/posf.jpg,stim_02/d.jpg,stim_02/c.jpg,1,2,f,3,52,232,25,f,1,0.633158445426,02,03,60.0131742817,PLT_learning_02,A,2014_Mrz_24_1629,P22,
stim_fb/ques.jpg,stim_fb/negf.jpg,stim_fb/posf.jpg,stim_02/d.jpg,stim_02/c.jpg,1,2,f,3,53,233,24,f,1,0.59988867452,02,03,60.0131742817,PLT_learning_02,A,2014_Mrz_24_1629,P22,
stim_fb/ques.jpg,stim_fb/negf.jpg,stim_fb/posf.jpg,stim_02/e.jpg,stim_02/f.jpg,2,3,j,3,54,234,51,j,1,0.483227326109,02,03,60.0131742817,PLT_learning_02,A,2014_Mrz_24_1629,P22,
stim_fb/ques.jpg,stim_fb/negf.jpg,stim_fb/posf.jpg,stim_02/a.jpg,stim_02/b.jpg,2,1,j,3,55,235,17,j,1,0.84975762889,02,03,60.0131742817,PLT_learning_02,A,2014_Mrz_24_1629,P22,
stim_fb/ques.jpg,stim_fb/posf.jpg,stim_fb/negf.jpg,stim_02/d.jpg,stim_02/c.jpg,1,2,f,3,56,236,27,f,1,0.816414619439,02,03,60.0131742817,PLT_learning_02,A,2014_Mrz_24_1629,P22,
stim_fb/ques.jpg,stim_fb/negf.jpg,stim_fb/posf.jpg,stim_02/e.jpg,stim_02/f.jpg,2,3,j,3,57,237,55,j,1,0.466560642401,02,03,60.0131742817,PLT_learning_02,A,2014_Mrz_24_1629,P22,
stim_fb/ques.jpg,stim_fb/negf.jpg,stim_fb/posf.jpg,stim_02/a.jpg,stim_02/b.jpg,2,1,j,3,58,238,13,j,1,0.633171774647,02,03,60.0131742817,PLT_learning_02,A,2014_Mrz_24_1629,P22,
stim_fb/ques.jpg,stim_fb/negf.jpg,stim_fb/posf.jpg,stim_02/e.jpg,stim_02/f.jpg,2,3,j,3,59,239,52,j,1,0.483211266081,02,03,60.0131742817,PLT_learning_02,A,2014_Mrz_24_1629,P22,
stim_fb/ques.jpg,stim_fb/posf.jpg,stim_fb/negf.jpg,stim_02/f.jpg,stim_02/e.jpg,1,3,f,4,0,240,48,f,1,1.14960122405,02,03,60.0131742817,PLT_learning_02,A,2014_Mrz_24_1629,P22,
stim_fb/ques.jpg,stim_fb/negf.jpg,stim_fb/posf.jpg,stim_02/d.jpg,stim_02/c.jpg,1,2,f,4,1,241,26,f,1,0.666484038466,02,03,60.0131742817,PLT_learning_02,A,2014_Mrz_24_1629,P22,
stim_fb/ques.jpg,stim_fb/negf.jpg,stim_fb/posf.jpg,stim_02/e.jpg,stim_02/f.jpg,2,3,j,4,2,242,53,j,1,0.783116593107,02,03,60.0131742817,PLT_learning_02,A,2014_Mrz_24_1629,P22,
stim_fb/ques.jpg,stim_fb/posf.jpg,stim_fb/negf.jpg,stim_02/a.jpg,stim_02/b.jpg,2,1,j,4,3,243,19,j,1,0.783094448914,02,03,60.0131742817,PLT_learning_02,A,2014_Mrz_24_1629,P22,
stim_fb/ques.jpg,stim_fb/negf.jpg,stim_fb/posf.jpg,stim_02/c.jpg,stim_02/d.jpg,2,2,j,4,4,244,36,j,1,0.583177064835,02,03,60.0131742817,PLT_learning_02,A,2014_Mrz_24_1629,P22,
stim_fb/ques.jpg,stim_fb/posf.jpg,stim_fb/negf.jpg,stim_02/d.jpg,stim_02/c.jpg,1,2,f,4,5,245,29,f,1,0.516549289105,02,03,60.0131742817,PLT_learning_02,A,2014_Mrz_24_1629,P22,
stim_fb/ques.jpg,stim_fb/negf.jpg,stim_fb/posf.jpg,stim_02/b.jpg,stim_02/a.jpg,1,1,f,4,6,246,7,f,1,0.599786323412,02,03,60.0131742817,PLT_learning_02,A,2014_Mrz_24_1629,P22,
stim_fb/ques.jpg,stim_fb/negf.jpg,stim_fb/posf.jpg,stim_02/a.jpg,stim_02/b.jpg,2,1,j,4,7,247,16,j,1,0.533179970074,02,03,60.0131742817,PLT_learning_02,A,2014_Mrz_24_1629,P22,
stim_fb/ques.jpg,stim_fb/negf.jpg,stim_fb/posf.jpg,stim_02/d.jpg,stim_02/c.jpg,1,2,f,4,8,248,25,f,1,0.583207446562,02,03,60.0131742817,PLT_learning_02,A,2014_Mrz_24_1629,P22,
stim_fb/ques.jpg,stim_fb/negf.jpg,stim_fb/posf.jpg,stim_02/d.jpg,stim_02/c.jpg,1,2,f,4,9,249,22,f,1,0.533211693144,02,03,60.0131742817,PLT_learning_02,A,2014_Mrz_24_1629,P22,
stim_fb/ques.jpg,stim_fb/posf.jpg,stim_fb/negf.jpg,stim_02/d.jpg,stim_02/c.jpg,1,2,f,4,10,250,28,f,1,0.533195007556,02,03,60.0131742817,PLT_learning_02,A,2014_Mrz_24_1629,P22,
stim_fb/ques.jpg,stim_fb/posf.jpg,stim_fb/negf.jpg,stim_02/f.jpg,stim_02/e.jpg,1,3,f,4,11,251,47,f,1,0.999735262141,02,03,60.0131742817,PLT_learning_02,A,2014_Mrz_24_1629,P22,
stim_fb/ques.jpg,stim_fb/negf.jpg,stim_fb/posf.jpg,stim_02/e.jpg,stim_02/f.jpg,2,3,j,4,12,252,52,f,0,0.583181203148,02,03,60.0131742817,PLT_learning_02,A,2014_Mrz_24_1629,P22,
stim_fb/ques.jpg,stim_fb/negf.jpg,stim_fb/posf.jpg,stim_02/c.jpg,stim_02/d.jpg,2,2,j,4,13,253,34,j,1,0.799798076707,02,03,60.0131742817,PLT_learning_02,A,2014_Mrz_24_1629,P22,
stim_fb/ques.jpg,stim_fb/negf.jpg,stim_fb/posf.jpg,stim_02/b.jpg,stim_02/a.jpg,1,1,f,4,14,254,1,f,1,0.633178159564,02,03,60.0131742817,PLT_learning_02,A,2014_Mrz_24_1629,P22,
stim_fb/ques.jpg,stim_fb/negf.jpg,stim_fb/posf.jpg,stim_02/d.jpg,stim_02/c.jpg,1,2,f,4,15,255,20,f,1,0.616506146571,02,03,60.0131742817,PLT_learning_02,A,2014_Mrz_24_1629,P22,
stim_fb/ques.jpg,stim_fb/negf.jpg,stim_fb/posf.jpg,stim_02/f.jpg,stim_02/e.jpg,1,3,f,4,16,256,44,j,0,0.666477494155,02,03,60.0131742817,PLT_learning_02,A,2014_Mrz_24_1629,P22,
stim_fb/ques.jpg,stim_fb/negf.jpg,stim_fb/posf.jpg,stim_02/a.jpg,stim_02/b.jpg,2,1,j,4,17,257,10,j,1,0.766460264209,02,03,60.0131742817,PLT_learning_02,A,2014_Mrz_24_1629,P22,
stim_fb/ques.jpg,stim_fb/negf.jpg,stim_fb/posf.jpg,stim_02/d.jpg,stim_02/c.jpg,1,2,f,4,18,258,23,f,1,0.649853613131,02,03,60.0131742817,PLT_learning_02,A,2014_Mrz_24_1629,P22,
stim_fb/ques.jpg,stim_fb/negf.jpg,stim_fb/posf.jpg,stim_02/a.jpg,stim_02/b.jpg,2,1,j,4,19,259,17,j,1,0.549880310675,02,03,60.0131742817,PLT_learning_02,A,2014_Mrz_24_1629,P22,
stim_fb/ques.jpg,stim_fb/negf.jpg,stim_fb/posf.jpg,stim_02/c.jpg,stim_02/d.jpg,2,2,j,4,20,260,33,j,1,0.599856178525,02,03,60.0131742817,PLT_learning_02,A,2014_Mrz_24_1629,P22,
stim_fb/ques.jpg,stim_fb/negf.jpg,stim_fb/posf.jpg,stim_02/f.jpg,stim_02/e.jpg,1,3,f,4,21,261,45,j,0,1.08303645837,02,03,60.0131742817,PLT_learning_02,A,2014_Mrz_24_1629,P22,
stim_fb/ques.jpg,stim_fb/negf.jpg,stim_fb/posf.jpg,stim_02/a.jpg,stim_02/b.jpg,2,1,j,4,22,262,14,j,1,0.516541752319,02,03,60.0131742817,PLT_learning_02,A,2014_Mrz_24_1629,P22,
stim_fb/ques.jpg,stim_fb/negf.jpg,stim_fb/posf.jpg,stim_02/a.jpg,stim_02/b.jpg,2,1,j,4,23,263,15,j,1,0.499848864294,02,03,60.0131742817,PLT_learning_02,A,2014_Mrz_24_1629,P22,
stim_fb/ques.jpg,stim_fb/posf.jpg,stim_fb/negf.jpg,stim_02/d.jpg,stim_02/c.jpg,1,2,f,4,24,264,27,f,1,0.61649688649,02,03,60.0131742817,PLT_learning_02,A,2014_Mrz_24_1629,P22,
stim_fb/ques.jpg,stim_fb/negf.jpg,stim_fb/posf.jpg,stim_02/b.jpg,stim_02/a.jpg,1,1,f,4,25,265,4,f,1,0.766442189157,02,03,60.0131742817,PLT_learning_02,A,2014_Mrz_24_1629,P22,
stim_fb/ques.jpg,stim_fb/negf.jpg,stim_fb/posf.jpg,stim_02/c.jpg,stim_02/d.jpg,2,2,j,4,26,266,32,j,1,0.616514236735,02,03,60.0131742817,PLT_learning_02,A,2014_Mrz_24_1629,P22,
stim_fb/ques.jpg,stim_fb/negf.jpg,stim_fb/posf.jpg,stim_02/a.jpg,stim_02/b.jpg,2,1,j,4,27,267,11,j,1,0.516547665055,02,03,60.0131742817,PLT_learning_02,A,2014_Mrz_24_1629,P22,
stim_fb/ques.jpg,stim_fb/negf.jpg,stim_fb/posf.jpg,stim_02/e.jpg,stim_02/f.jpg,2,3,j,4,28,268,51,j,1,0.916380349021,02,03,60.0131742817,PLT_learning_02,A,2014_Mrz_24_1629,P22,
stim_fb/ques.jpg,stim_fb/posf.jpg,stim_fb/negf.jpg,stim_02/c.jpg,stim_02/d.jpg,2,2,j,4,29,269,38,j,1,0.533230799769,02,03,60.0131742817,PLT_learning_02,A,2014_Mrz_24_1629,P22,
stim_fb/ques.jpg,stim_fb/negf.jpg,stim_fb/posf.jpg,stim_02/e.jpg,stim_02/f.jpg,2,3,j,4,30,270,55,j,1,0.483224456959,02,03,60.0131742817,PLT_learning_02,A,2014_Mrz_24_1629,P22,
stim_fb/ques.jpg,stim_fb/negf.jpg,stim_fb/posf.jpg,stim_02/f.jpg,stim_02/e.jpg,1,3,f,4,31,271,42,f,1,0.583212571335,02,03,60.0131742817,PLT_learning_02,A,2014_Mrz_24_1629,P22,
stim_fb/ques.jpg,stim_fb/negf.jpg,stim_fb/posf.jpg,stim_02/c.jpg,stim_02/d.jpg,2,2,j,4,32,272,30,j,1,0.483172033293,02,03,60.0131742817,PLT_learning_02,A,2014_Mrz_24_1629,P22,
stim_fb/ques.jpg,stim_fb/posf.jpg,stim_fb/negf.jpg,stim_02/e.jpg,stim_02/f.jpg,2,3,j,4,33,273,57,j,1,0.73312800054,02,03,60.0131742817,PLT_learning_02,A,2014_Mrz_24_1629,P22,
stim_fb/ques.jpg,stim_fb/negf.jpg,stim_fb/posf.jpg,stim_02/a.jpg,stim_02/b.jpg,2,1,j,4,34,274,12,j,1,0.449874641545,02,03,60.0131742817,PLT_learning_02,A,2014_Mrz_24_1629,P22,
stim_fb/ques.jpg,stim_fb/posf.jpg,stim_fb/negf.jpg,stim_02/b.jpg,stim_02/a.jpg,1,1,f,4,35,275,9,f,1,0.599842578627,02,03,60.0131742817,PLT_learning_02,A,2014_Mrz_24_1629,P22,
stim_fb/ques.jpg,stim_fb/negf.jpg,stim_fb/posf.jpg,stim_02/d.jpg,stim_02/c.jpg,1,2,f,4,36,276,24,f,1,0.649862746897,02,03,60.0131742817,PLT_learning_02,A,2014_Mrz_24_1629,P22,
stim_fb/ques.jpg,stim_fb/posf.jpg,stim_fb/negf.jpg,stim_02/a.jpg,stim_02/b.jpg,2,1,j,4,37,277,18,j,1,0.499872803965,02,03,60.0131742817,PLT_learning_02,A,2014_Mrz_24_1629,P22,
stim_fb/ques.jpg,stim_fb/posf.jpg,stim_fb/negf.jpg,stim_02/b.jpg,stim_02/a.jpg,1,1,f,4,38,278,8,f,1,0.583198442117,02,03,60.0131742817,PLT_learning_02,A,2014_Mrz_24_1629,P22,
stim_fb/ques.jpg,stim_fb/negf.jpg,stim_fb/posf.jpg,stim_02/b.jpg,stim_02/a.jpg,1,1,f,4,39,279,3,j,0,0.599863766438,02,03,60.0131742817,PLT_learning_02,A,2014_Mrz_24_1629,P22,
stim_fb/ques.jpg,stim_fb/negf.jpg,stim_fb/posf.jpg,stim_02/a.jpg,stim_02/b.jpg,2,1,j,4,40,280,13,j,1,0.449890662476,02,03,60.0131742817,PLT_learning_02,A,2014_Mrz_24_1629,P22,
stim_fb/ques.jpg,stim_fb/negf.jpg,stim_fb/posf.jpg,stim_02/b.jpg,stim_02/a.jpg,1,1,f,4,41,281,5,f,1,0.533208760835,02,03,60.0131742817,PLT_learning_02,A,2014_Mrz_24_1629,P22,
stim_fb/ques.jpg,stim_fb/negf.jpg,stim_fb/posf.jpg,stim_02/b.jpg,stim_02/a.jpg,1,1,f,4,42,282,0,f,1,0.433212986369,02,03,60.0131742817,PLT_learning_02,A,2014_Mrz_24_1629,P22,
stim_fb/ques.jpg,stim_fb/negf.jpg,stim_fb/posf.jpg,stim_02/f.jpg,stim_02/e.jpg,1,3,f,4,43,283,40,f,1,0.78311982316,02,03,60.0131742817,PLT_learning_02,A,2014_Mrz_24_1629,P22,
stim_fb/ques.jpg,stim_fb/negf.jpg,stim_fb/posf.jpg,stim_02/d.jpg,stim_02/c.jpg,1,2,f,4,44,284,21,f,1,0.633209245043,02,03,60.0131742817,PLT_learning_02,A,2014_Mrz_24_1629,P22,
stim_fb/ques.jpg,stim_fb/negf.jpg,stim_fb/posf.jpg,stim_02/b.jpg,stim_02/a.jpg,1,1,f,4,45,285,2,f,1,0.466573592679,02,03,60.0131742817,PLT_learning_02,A,2014_Mrz_24_1629,P22,
stim_fb/ques.jpg,stim_fb/posf.jpg,stim_fb/negf.jpg,stim_02/e.jpg,stim_02/f.jpg,2,3,j,4,46,286,58,j,1,0.599800822551,02,03,60.0131742817,PLT_learning_02,A,2014_Mrz_24_1629,P22,
stim_fb/ques.jpg,stim_fb/posf.jpg,stim_fb/negf.jpg,stim_02/c.jpg,stim_02/d.jpg,2,2,j,4,47,287,37,j,1,0.616473984406,02,03,60.0131742817,PLT_learning_02,A,2014_Mrz_24_1629,P22,
stim_fb/ques.jpg,stim_fb/posf.jpg,stim_fb/negf.jpg,stim_02/e.jpg,stim_02/f.jpg,2,3,j,4,48,288,56,f,0,0.799757866482,02,03,60.0131742817,PLT_learning_02,A,2014_Mrz_24_1629,P22,
stim_fb/ques.jpg,stim_fb/posf.jpg,stim_fb/negf.jpg,stim_02/f.jpg,stim_02/e.jpg,1,3,f,4,49,289,49,j,0,0.683155874016,02,03,60.0131742817,PLT_learning_02,A,2014_Mrz_24_1629,P22,
stim_fb/ques.jpg,stim_fb/negf.jpg,stim_fb/posf.jpg,stim_02/f.jpg,stim_02/e.jpg,1,3,f,4,50,290,41,j,0,0.649822620882,02,03,60.0131742817,PLT_learning_02,A,2014_Mrz_24_1629,P22,
stim_fb/ques.jpg,stim_fb/negf.jpg,stim_fb/posf.jpg,stim_02/f.jpg,stim_02/e.jpg,1,3,f,4,51,291,43,j,0,0.799893721101,02,03,60.0131742817,PLT_learning_02,A,2014_Mrz_24_1629,P22,
stim_fb/ques.jpg,stim_fb/posf.jpg,stim_fb/negf.jpg,stim_02/e.jpg,stim_02/f.jpg,2,3,j,4,52,292,59,j,1,0.566494041399,02,03,60.0131742817,PLT_learning_02,A,2014_Mrz_24_1629,P22,
stim_fb/ques.jpg,stim_fb/negf.jpg,stim_fb/posf.jpg,stim_02/c.jpg,stim_02/d.jpg,2,2,j,4,53,293,35,j,1,0.566538817002,02,03,60.0131742817,PLT_learning_02,A,2014_Mrz_24_1629,P22,
stim_fb/ques.jpg,stim_fb/posf.jpg,stim_fb/negf.jpg,stim_02/f.jpg,stim_02/e.jpg,1,3,f,4,54,294,46,f,1,0.999704089443,02,03,60.0131742817,PLT_learning_02,A,2014_Mrz_24_1629,P22,
stim_fb/ques.jpg,stim_fb/negf.jpg,stim_fb/posf.jpg,stim_02/e.jpg,stim_02/f.jpg,2,3,j,4,55,295,50,j,1,0.599802497727,02,03,60.0131742817,PLT_learning_02,A,2014_Mrz_24_1629,P22,
stim_fb/ques.jpg,stim_fb/negf.jpg,stim_fb/posf.jpg,stim_02/e.jpg,stim_02/f.jpg,2,3,j,4,56,296,54,j,1,0.666500576686,02,03,60.0131742817,PLT_learning_02,A,2014_Mrz_24_1629,P22,
stim_fb/ques.jpg,stim_fb/negf.jpg,stim_fb/posf.jpg,stim_02/c.jpg,stim_02/d.jpg,2,2,j,4,57,297,31,j,1,0.433221759235,02,03,60.0131742817,PLT_learning_02,A,2014_Mrz_24_1629,P22,
stim_fb/ques.jpg,stim_fb/posf.jpg,stim_fb/negf.jpg,stim_02/c.jpg,stim_02/d.jpg,2,2,j,4,58,298,39,j,1,0.416594308314,02,03,60.0131742817,PLT_learning_02,A,2014_Mrz_24_1629,P22,
stim_fb/ques.jpg,stim_fb/negf.jpg,stim_fb/posf.jpg,stim_02/b.jpg,stim_02/a.jpg,1,1,f,4,59,299,6,f,1,0.683124743422,02,03,60.0131742817,PLT_learning_02,A,2014_Mrz_24_1629,P22,
stim_fb/ques.jpg,stim_fb/posf.jpg,stim_fb/negf.jpg,stim_02/c.jpg,stim_02/d.jpg,2,2,j,5,0,300,37,j,1,0.799786347472,02,03,60.0131742817,PLT_learning_02,A,2014_Mrz_24_1629,P22,
stim_fb/ques.jpg,stim_fb/negf.jpg,stim_fb/posf.jpg,stim_02/b.jpg,stim_02/a.jpg,1,1,f,5,1,301,0,f,1,0.666488919633,02,03,60.0131742817,PLT_learning_02,A,2014_Mrz_24_1629,P22,
stim_fb/ques.jpg,stim_fb/posf.jpg,stim_fb/negf.jpg,stim_02/f.jpg,stim_02/e.jpg,1,3,f,5,2,302,48,f,1,1.16638678807,02,03,60.0131742817,PLT_learning_02,A,2014_Mrz_24_1629,P22,
stim_fb/ques.jpg,stim_fb/negf.jpg,stim_fb/posf.jpg,stim_02/c.jpg,stim_02/d.jpg,2,2,j,5,3,303,31,j,1,0.799786897844,02,03,60.0131742817,PLT_learning_02,A,2014_Mrz_24_1629,P22,
stim_fb/ques.jpg,stim_fb/negf.jpg,stim_fb/posf.jpg,stim_02/c.jpg,stim_02/d.jpg,2,2,j,5,4,304,32,j,1,0.616401097735,02,03,60.0131742817,PLT_learning_02,A,2014_Mrz_24_1629,P22,
stim_fb/ques.jpg,stim_fb/negf.jpg,stim_fb/posf.jpg,stim_02/c.jpg,stim_02/d.jpg,2,2,j,5,5,305,36,j,1,0.433244805678,02,03,60.0131742817,PLT_learning_02,A,2014_Mrz_24_1629,P22,
stim_fb/ques.jpg,stim_fb/negf.jpg,stim_fb/posf.jpg,stim_02/e.jpg,stim_02/f.jpg,2,3,j,5,6,306,52,j,1,0.883090545183,02,03,60.0131742817,PLT_learning_02,A,2014_Mrz_24_1629,P22,
stim_fb/ques.jpg,stim_fb/negf.jpg,stim_fb/posf.jpg,stim_02/f.jpg,stim_02/e.jpg,1,3,f,5,7,307,40,f,1,0.966403425538,02,03,60.0131742817,PLT_learning_02,A,2014_Mrz_24_1629,P22,
stim_fb/ques.jpg,stim_fb/negf.jpg,stim_fb/posf.jpg,stim_02/e.jpg,stim_02/f.jpg,2,3,j,5,8,308,50,j,1,0.44992080661,02,03,60.0131742817,PLT_learning_02,A,2014_Mrz_24_1629,P22,
stim_fb/ques.jpg,stim_fb/negf.jpg,stim_fb/posf.jpg,stim_02/d.jpg,stim_02/c.jpg,1,2,f,5,9,309,26,f,1,0.59985327629,02,03,60.0131742817,PLT_learning_02,A,2014_Mrz_24_1629,P22,
stim_fb/ques.jpg,stim_fb/negf.jpg,stim_fb/posf.jpg,stim_02/e.jpg,stim_02/f.jpg,2,3,j,5,10,310,53,j,1,0.416586034691,02,03,60.0131742817,PLT_learning_02,A,2014_Mrz_24_1629,P22,
stim_fb/ques.jpg,stim_fb/negf.jpg,stim_fb/posf.jpg,stim_02/d.jpg,stim_02/c.jpg,1,2,f,5,11,311,20,f,1,0.599854301847,02,03,60.0131742817,PLT_learning_02,A,2014_Mrz_24_1629,P22,
stim_fb/ques.jpg,stim_fb/posf.jpg,stim_fb/negf.jpg,stim_02/b.jpg,stim_02/a.jpg,1,1,f,5,12,312,9,f,1,0.699981570064,02,03,60.0131742817,PLT_learning_02,A,2014_Mrz_24_1629,P22,
stim_fb/ques.jpg,stim_fb/negf.jpg,stim_fb/posf.jpg,stim_02/f.jpg,stim_02/e.jpg,1,3,f,5,13,313,42,f,1,0.699825279509,02,03,60.0131742817,PLT_learning_02,A,2014_Mrz_24_1629,P22,
stim_fb/ques.jpg,stim_fb/posf.jpg,stim_fb/negf.jpg,stim_02/a.jpg,stim_02/b.jpg,2,1,j,5,14,314,19,j,1,0.583195542891,02,03,60.0131742817,PLT_learning_02,A,2014_Mrz_24_1629,P22,
stim_fb/ques.jpg,stim_fb/negf.jpg,stim_fb/posf.jpg,stim_02/d.jpg,stim_02/c.jpg,1,2,f,5,15,315,21,f,1,0.616472889677,02,03,60.0131742817,PLT_learning_02,A,2014_Mrz_24_1629,P22,
stim_fb/ques.jpg,stim_fb/negf.jpg,stim_fb/posf.jpg,stim_02/a.jpg,stim_02/b.jpg,2,1,j,5,16,316,15,f,0,0.849778552041,02,03,60.0131742817,PLT_learning_02,A,2014_Mrz_24_1629,P22,
stim_fb/ques.jpg,stim_fb/posf.jpg,stim_fb/negf.jpg,stim_02/a.jpg,stim_02/b.jpg,2,1,j,5,17,317,18,f,0,0.666488838431,02,03,60.0131742817,PLT_learning_02,A,2014_Mrz_24_1629,P22,
stim_fb/ques.jpg,stim_fb/posf.jpg,stim_fb/negf.jpg,stim_02/e.jpg,stim_02/f.jpg,2,3,j,5,18,318,59,j,1,1.08303226592,02,03,60.0131742817,PLT_learning_02,A,2014_Mrz_24_1629,P22,
stim_fb/ques.jpg,stim_fb/posf.jpg,stim_fb/negf.jpg,stim_02/d.jpg,stim_02/c.jpg,1,2,f,5,19,319,28,f,1,0.616517391598,02,03,60.0131742817,PLT_learning_02,A,2014_Mrz_24_1629,P22,
stim_fb/ques.jpg,stim_fb/negf.jpg,stim_fb/posf.jpg,stim_02/c.jpg,stim_02/d.jpg,2,2,j,5,20,320,35,j,1,0.766472122767,02,03,60.0131742817,PLT_learning_02,A,2014_Mrz_24_1629,P22,
stim_fb/ques.jpg,stim_fb/posf.jpg,stim_fb/negf.jpg,stim_02/c.jpg,stim_02/d.jpg,2,2,j,5,21,321,38,j,1,0.466539229028,02,03,60.0131742817,PLT_learning_02,A,2014_Mrz_24_1629,P22,
stim_fb/ques.jpg,stim_fb/posf.jpg,stim_fb/negf.jpg,stim_02/d.jpg,stim_02/c.jpg,1,2,f,5,22,322,27,f,1,0.683125080262,02,03,60.0131742817,PLT_learning_02,A,2014_Mrz_24_1629,P22,
stim_fb/ques.jpg,stim_fb/negf.jpg,stim_fb/posf.jpg,stim_02/a.jpg,stim_02/b.jpg,2,1,j,5,23,323,16,j,1,1.11638103473,02,03,60.0131742817,PLT_learning_02,A,2014_Mrz_24_1629,P22,
stim_fb/ques.jpg,stim_fb/negf.jpg,stim_fb/posf.jpg,stim_02/b.jpg,stim_02/a.jpg,1,1,f,5,24,324,5,f,1,0.766432871935,02,03,60.0131742817,PLT_learning_02,A,2014_Mrz_24_1629,P22,
stim_fb/ques.jpg,stim_fb/posf.jpg,stim_fb/negf.jpg,stim_02/c.jpg,stim_02/d.jpg,2,2,j,5,25,325,39,j,1,0.716493713582,02,03,60.0131742817,PLT_learning_02,A,2014_Mrz_24_1629,P22,
stim_fb/ques.jpg,stim_fb/negf.jpg,stim_fb/posf.jpg,stim_02/e.jpg,stim_02/f.jpg,2,3,j,5,26,326,55,j,1,0.966416694611,02,03,60.0131742817,PLT_learning_02,A,2014_Mrz_24_1629,P22,
stim_fb/ques.jpg,stim_fb/negf.jpg,stim_fb/posf.jpg,stim_02/d.jpg,stim_02/c.jpg,1,2,f,5,27,327,24,j,0,0.933168427304,02,03,60.0131742817,PLT_learning_02,A,2014_Mrz_24_1629,P22,
stim_fb/ques.jpg,stim_fb/posf.jpg,stim_fb/negf.jpg,stim_02/d.jpg,stim_02/c.jpg,1,2,f,5,28,328,29,j,0,1.0997003421,02,03,60.0131742817,PLT_learning_02,A,2014_Mrz_24_1629,P22,
stim_fb/ques.jpg,stim_fb/negf.jpg,stim_fb/posf.jpg,stim_02/a.jpg,stim_02/b.jpg,2,1,j,5,29,329,11,j,1,1.4495519342,02,03,60.0131742817,PLT_learning_02,A,2014_Mrz_24_1629,P22,
stim_fb/ques.jpg,stim_fb/posf.jpg,stim_fb/negf.jpg,stim_02/e.jpg,stim_02/f.jpg,2,3,j,5,30,330,57,j,1,0.949770928039,02,03,60.0131742817,PLT_learning_02,A,2014_Mrz_24_1629,P22,
stim_fb/ques.jpg,stim_fb/negf.jpg,stim_fb/posf.jpg,stim_02/e.jpg,stim_02/f.jpg,2,3,j,5,31,331,51,j,1,0.46659126172,02,03,60.0131742817,PLT_learning_02,A,2014_Mrz_24_1629,P22,
stim_fb/ques.jpg,stim_fb/negf.jpg,stim_fb/posf.jpg,stim_02/c.jpg,stim_02/d.jpg,2,2,j,5,32,332,33,f,0,0.833108063849,02,03,60.0131742817,PLT_learning_02,A,2014_Mrz_24_1629,P22,
stim_fb/ques.jpg,stim_fb/posf.jpg,stim_fb/negf.jpg,stim_02/b.jpg,stim_02/a.jpg,1,1,f,5,33,333,8,f,1,0.866416956263,02,03,60.0131742817,PLT_learning_02,A,2014_Mrz_24_1629,P22,
stim_fb/ques.jpg,stim_fb/posf.jpg,stim_fb/negf.jpg,stim_02/f.jpg,stim_02/e.jpg,1,3,f,5,34,334,49,f,1,1.01639395193,02,03,60.0131742817,PLT_learning_02,A,2014_Mrz_24_1629,P22,
stim_fb/ques.jpg,stim_fb/negf.jpg,stim_fb/posf.jpg,stim_02/c.jpg,stim_02/d.jpg,2,2,j,5,35,335,30,j,1,0.599850461274,02,03,60.0131742817,PLT_learning_02,A,2014_Mrz_24_1629,P22,
stim_fb/ques.jpg,stim_fb/negf.jpg,stim_fb/posf.jpg,stim_02/f.jpg,stim_02/e.jpg,1,3,f,5,36,336,41,f,1,0.649815544244,02,03,60.0131742817,PLT_learning_02,A,2014_Mrz_24_1629,P22,
stim_fb/ques.jpg,stim_fb/negf.jpg,stim_fb/posf.jpg,stim_02/f.jpg,stim_02/e.jpg,1,3,f,5,37,337,43,f,1,0.616486092586,02,03,60.0131742817,PLT_learning_02,A,2014_Mrz_24_1629,P22,
stim_fb/ques.jpg,stim_fb/posf.jpg,stim_fb/negf.jpg,stim_02/e.jpg,stim_02/f.jpg,2,3,j,5,38,338,58,j,1,0.633203729296,02,03,60.0131742817,PLT_learning_02,A,2014_Mrz_24_1629,P22,
stim_fb/ques.jpg,stim_fb/negf.jpg,stim_fb/posf.jpg,stim_02/b.jpg,stim_02/a.jpg,1,1,f,5,39,339,6,f,1,0.833111865324,02,03,60.0131742817,PLT_learning_02,A,2014_Mrz_24_1629,P22,
stim_fb/ques.jpg,stim_fb/negf.jpg,stim_fb/posf.jpg,stim_02/a.jpg,stim_02/b.jpg,2,1,j,5,40,340,10,j,1,0.58319585567,02,03,60.0131742817,PLT_learning_02,A,2014_Mrz_24_1629,P22,
stim_fb/ques.jpg,stim_fb/negf.jpg,stim_fb/posf.jpg,stim_02/d.jpg,stim_02/c.jpg,1,2,f,5,41,341,22,f,1,0.733140496688,02,03,60.0131742817,PLT_learning_02,A,2014_Mrz_24_1629,P22,
stim_fb/ques.jpg,stim_fb/negf.jpg,stim_fb/posf.jpg,stim_02/a.jpg,stim_02/b.jpg,2,1,j,5,42,342,12,j,1,0.849760660445,02,03,60.0131742817,PLT_learning_02,A,2014_Mrz_24_1629,P22,
stim_fb/ques.jpg,stim_fb/negf.jpg,stim_fb/posf.jpg,stim_02/f.jpg,stim_02/e.jpg,1,3,f,5,43,343,45,f,1,0.766467400997,02,03,60.0131742817,PLT_learning_02,A,2014_Mrz_24_1629,P22,
stim_fb/ques.jpg,stim_fb/negf.jpg,stim_fb/posf.jpg,stim_02/e.jpg,stim_02/f.jpg,2,3,j,5,44,344,54,j,1,0.499875709205,02,03,60.0131742817,PLT_learning_02,A,2014_Mrz_24_1629,P22,
stim_fb/ques.jpg,stim_fb/negf.jpg,stim_fb/posf.jpg,stim_02/a.jpg,stim_02/b.jpg,2,1,j,5,45,345,13,j,1,0.483290089549,02,03,60.0131742817,PLT_learning_02,A,2014_Mrz_24_1629,P22,
stim_fb/ques.jpg,stim_fb/negf.jpg,stim_fb/posf.jpg,stim_02/d.jpg,stim_02/c.jpg,1,2,f,5,46,346,25,f,1,0.649837995203,02,03,60.0131742817,PLT_learning_02,A,2014_Mrz_24_1629,P22,
stim_fb/ques.jpg,stim_fb/posf.jpg,stim_fb/negf.jpg,stim_02/f.jpg,stim_02/e.jpg,1,3,f,5,47,347,47,f,1,0.566536059127,02,03,60.0131742817,PLT_learning_02,A,2014_Mrz_24_1629,P22,
stim_fb/ques.jpg,stim_fb/negf.jpg,stim_fb/posf.jpg,stim_02/a.jpg,stim_02/b.jpg,2,1,j,5,48,348,14,f,0,0.799770982172,02,03,60.0131742817,PLT_learning_02,A,2014_Mrz_24_1629,P22,
stim_fb/ques.jpg,stim_fb/negf.jpg,stim_fb/posf.jpg,stim_02/a.jpg,stim_02/b.jpg,2,1,j,5,49,349,17,j,1,0.649822548701,02,03,60.0131742817,PLT_learning_02,A,2014_Mrz_24_1629,P22,
stim_fb/ques.jpg,stim_fb/negf.jpg,stim_fb/posf.jpg,stim_02/b.jpg,stim_02/a.jpg,1,1,f,5,50,350,4,f,1,0.499880533229,02,03,60.0131742817,PLT_learning_02,A,2014_Mrz_24_1629,P22,
stim_fb/ques.jpg,stim_fb/posf.jpg,stim_fb/negf.jpg,stim_02/f.jpg,stim_02/e.jpg,1,3,f,5,51,351,46,f,1,0.616511987128,02,03,60.0131742817,PLT_learning_02,A,2014_Mrz_24_1629,P22,
stim_fb/ques.jpg,stim_fb/posf.jpg,stim_fb/negf.jpg,stim_02/e.jpg,stim_02/f.jpg,2,3,j,5,52,352,56,j,1,0.516560705559,02,03,60.0131742817,PLT_learning_02,A,2014_Mrz_24_1629,P22,
stim_fb/ques.jpg,stim_fb/negf.jpg,stim_fb/posf.jpg,stim_02/b.jpg,stim_02/a.jpg,1,1,f,5,53,353,7,f,1,0.866442922985,02,03,60.0131742817,PLT_learning_02,A,2014_Mrz_24_1629,P22,
stim_fb/ques.jpg,stim_fb/negf.jpg,stim_fb/posf.jpg,stim_02/c.jpg,stim_02/d.jpg,2,2,j,5,54,354,34,j,1,0.916438023774,02,03,60.0131742817,PLT_learning_02,A,2014_Mrz_24_1629,P22,
stim_fb/ques.jpg,stim_fb/negf.jpg,stim_fb/posf.jpg,stim_02/f.jpg,stim_02/e.jpg,1,3,f,5,55,355,44,j,0,1.03308880685,02,03,60.0131742817,PLT_learning_02,A,2014_Mrz_24_1629,P22,
stim_fb/ques.jpg,stim_fb/negf.jpg,stim_fb/posf.jpg,stim_02/b.jpg,stim_02/a.jpg,1,1,f,5,56,356,1,f,1,0.59982127954,02,03,60.0131742817,PLT_learning_02,A,2014_Mrz_24_1629,P22,
stim_fb/ques.jpg,stim_fb/negf.jpg,stim_fb/posf.jpg,stim_02/b.jpg,stim_02/a.jpg,1,1,f,5,57,357,2,f,1,0.53314642747,02,03,60.0131742817,PLT_learning_02,A,2014_Mrz_24_1629,P22,
stim_fb/ques.jpg,stim_fb/negf.jpg,stim_fb/posf.jpg,stim_02/d.jpg,stim_02/c.jpg,1,2,f,5,58,358,23,f,1,0.549904427786,02,03,60.0131742817,PLT_learning_02,A,2014_Mrz_24_1629,P22,
stim_fb/ques.jpg,stim_fb/negf.jpg,stim_fb/posf.jpg,stim_02/b.jpg,stim_02/a.jpg,1,1,f,5,59,359,3,f,1,0.599862560432,02,03,60.0131742817,PLT_learning_02,A,2014_Mrz_24_1629,P22,
