Fb3,Fb2,Fb1,Symbol2,Symbol1,PosCond,Pair,Correct,trials.thisRepN,trials.thisTrialN,trials.thisN,trials.thisIndex,Response.keys,Response.corr,Response.rt,Version,Session Number,frameRate,expName,StimCondition,date,Participant,
stim_fb/ques.jpg,stim_fb/negf.jpg,stim_fb/posf.jpg,stim_02/b.jpg,stim_02/a.jpg,1,1,f,0,0,0,2,f,1,1.53286839948,02,02,60.019506102,PLT_learning_02,A,2014_Mrz_24_1758,P23,
stim_fb/ques.jpg,stim_fb/negf.jpg,stim_fb/posf.jpg,stim_02/c.jpg,stim_02/d.jpg,2,2,j,0,1,1,33,None,0,,02,02,60.019506102,PLT_learning_02,A,2014_Mrz_24_1758,P23,
stim_fb/ques.jpg,stim_fb/posf.jpg,stim_fb/negf.jpg,stim_02/a.jpg,stim_02/b.jpg,2,1,j,0,2,2,19,j,1,0.933076205441,02,02,60.019506102,PLT_learning_02,A,2014_Mrz_24_1758,P23,
stim_fb/ques.jpg,stim_fb/negf.jpg,stim_fb/posf.jpg,stim_02/d.jpg,stim_02/c.jpg,1,2,f,0,3,3,25,f,1,0.966395212068,02,02,60.019506102,PLT_learning_02,A,2014_Mrz_24_1758,P23,
stim_fb/ques.jpg,stim_fb/negf.jpg,stim_fb/posf.jpg,stim_02/e.jpg,stim_02/f.jpg,2,3,j,0,4,4,50,j,1,1.1330446117,02,02,60.019506102,PLT_learning_02,A,2014_Mrz_24_1758,P23,
stim_fb/ques.jpg,stim_fb/negf.jpg,stim_fb/posf.jpg,stim_02/c.jpg,stim_02/d.jpg,2,2,j,0,5,5,36,f,0,1.58285836949,02,02,60.019506102,PLT_learning_02,A,2014_Mrz_24_1758,P23,
stim_fb/ques.jpg,stim_fb/posf.jpg,stim_fb/negf.jpg,stim_02/e.jpg,stim_02/f.jpg,2,3,j,0,6,6,58,j,1,1.19985262667,02,02,60.019506102,PLT_learning_02,A,2014_Mrz_24_1758,P23,
stim_fb/ques.jpg,stim_fb/negf.jpg,stim_fb/posf.jpg,stim_02/c.jpg,stim_02/d.jpg,2,2,j,0,7,7,30,j,1,0.933070343832,02,02,60.019506102,PLT_learning_02,A,2014_Mrz_24_1758,P23,
stim_fb/ques.jpg,stim_fb/negf.jpg,stim_fb/posf.jpg,stim_02/c.jpg,stim_02/d.jpg,2,2,j,0,8,8,31,j,1,0.866423530653,02,02,60.019506102,PLT_learning_02,A,2014_Mrz_24_1758,P23,
stim_fb/ques.jpg,stim_fb/negf.jpg,stim_fb/posf.jpg,stim_02/b.jpg,stim_02/a.jpg,1,1,f,0,9,9,6,f,1,0.999725941911,02,02,60.019506102,PLT_learning_02,A,2014_Mrz_24_1758,P23,
stim_fb/ques.jpg,stim_fb/posf.jpg,stim_fb/negf.jpg,stim_02/f.jpg,stim_02/e.jpg,1,3,f,0,10,10,46,j,0,1.06636009052,02,02,60.019506102,PLT_learning_02,A,2014_Mrz_24_1758,P23,
stim_fb/ques.jpg,stim_fb/negf.jpg,stim_fb/posf.jpg,stim_02/f.jpg,stim_02/e.jpg,1,3,f,0,11,11,40,j,0,0.783139377898,02,02,60.019506102,PLT_learning_02,A,2014_Mrz_24_1758,P23,
stim_fb/ques.jpg,stim_fb/negf.jpg,stim_fb/posf.jpg,stim_02/c.jpg,stim_02/d.jpg,2,2,j,0,12,12,34,j,1,1.01638146781,02,02,60.019506102,PLT_learning_02,A,2014_Mrz_24_1758,P23,
stim_fb/ques.jpg,stim_fb/negf.jpg,stim_fb/posf.jpg,stim_02/d.jpg,stim_02/c.jpg,1,2,f,0,13,13,24,f,1,0.916402147352,02,02,60.019506102,PLT_learning_02,A,2014_Mrz_24_1758,P23,
stim_fb/ques.jpg,stim_fb/posf.jpg,stim_fb/negf.jpg,stim_02/f.jpg,stim_02/e.jpg,1,3,f,0,14,14,48,f,1,1.06638431591,02,02,60.019506102,PLT_learning_02,A,2014_Mrz_24_1758,P23,
stim_fb/ques.jpg,stim_fb/negf.jpg,stim_fb/posf.jpg,stim_02/a.jpg,stim_02/b.jpg,2,1,j,0,15,15,13,j,1,1.24961635176,02,02,60.019506102,PLT_learning_02,A,2014_Mrz_24_1758,P23,
stim_fb/ques.jpg,stim_fb/posf.jpg,stim_fb/negf.jpg,stim_02/e.jpg,stim_02/f.jpg,2,3,j,0,16,16,59,j,1,1.09967854076,02,02,60.019506102,PLT_learning_02,A,2014_Mrz_24_1758,P23,
stim_fb/ques.jpg,stim_fb/negf.jpg,stim_fb/posf.jpg,stim_02/b.jpg,stim_02/a.jpg,1,1,f,0,17,17,0,f,1,0.766456486796,02,02,60.019506102,PLT_learning_02,A,2014_Mrz_24_1758,P23,
stim_fb/ques.jpg,stim_fb/negf.jpg,stim_fb/posf.jpg,stim_02/e.jpg,stim_02/f.jpg,2,3,j,0,18,18,52,f,0,1.26616237772,02,02,60.019506102,PLT_learning_02,A,2014_Mrz_24_1758,P23,
stim_fb/ques.jpg,stim_fb/negf.jpg,stim_fb/posf.jpg,stim_02/d.jpg,stim_02/c.jpg,1,2,f,0,19,19,21,f,1,0.916428363696,02,02,60.019506102,PLT_learning_02,A,2014_Mrz_24_1758,P23,
stim_fb/ques.jpg,stim_fb/negf.jpg,stim_fb/posf.jpg,stim_02/f.jpg,stim_02/e.jpg,1,3,f,0,20,20,41,j,0,0.833102322536,02,02,60.019506102,PLT_learning_02,A,2014_Mrz_24_1758,P23,
stim_fb/ques.jpg,stim_fb/negf.jpg,stim_fb/posf.jpg,stim_02/e.jpg,stim_02/f.jpg,2,3,j,0,21,21,51,j,1,1.04971776152,02,02,60.019506102,PLT_learning_02,A,2014_Mrz_24_1758,P23,
stim_fb/ques.jpg,stim_fb/posf.jpg,stim_fb/negf.jpg,stim_02/d.jpg,stim_02/c.jpg,1,2,f,0,22,22,28,f,1,0.816462549908,02,02,60.019506102,PLT_learning_02,A,2014_Mrz_24_1758,P23,
stim_fb/ques.jpg,stim_fb/negf.jpg,stim_fb/posf.jpg,stim_02/a.jpg,stim_02/b.jpg,2,1,j,0,23,23,16,j,1,1.08302685243,02,02,60.019506102,PLT_learning_02,A,2014_Mrz_24_1758,P23,
stim_fb/ques.jpg,stim_fb/negf.jpg,stim_fb/posf.jpg,stim_02/b.jpg,stim_02/a.jpg,1,1,f,0,24,24,1,f,1,1.01639173239,02,02,60.019506102,PLT_learning_02,A,2014_Mrz_24_1758,P23,
stim_fb/ques.jpg,stim_fb/negf.jpg,stim_fb/posf.jpg,stim_02/d.jpg,stim_02/c.jpg,1,2,f,0,25,25,26,f,1,0.8497888858,02,02,60.019506102,PLT_learning_02,A,2014_Mrz_24_1758,P23,
stim_fb/ques.jpg,stim_fb/negf.jpg,stim_fb/posf.jpg,stim_02/a.jpg,stim_02/b.jpg,2,1,j,0,26,26,12,j,1,0.61651974346,02,02,60.019506102,PLT_learning_02,A,2014_Mrz_24_1758,P23,
stim_fb/ques.jpg,stim_fb/negf.jpg,stim_fb/posf.jpg,stim_02/b.jpg,stim_02/a.jpg,1,1,f,0,27,27,4,f,1,0.74981444651,02,02,60.019506102,PLT_learning_02,A,2014_Mrz_24_1758,P23,
stim_fb/ques.jpg,stim_fb/negf.jpg,stim_fb/posf.jpg,stim_02/b.jpg,stim_02/a.jpg,1,1,f,0,28,28,5,f,1,0.766450023682,02,02,60.019506102,PLT_learning_02,A,2014_Mrz_24_1758,P23,
stim_fb/ques.jpg,stim_fb/negf.jpg,stim_fb/posf.jpg,stim_02/e.jpg,stim_02/f.jpg,2,3,j,0,29,29,53,j,1,1.09969767746,02,02,60.019506102,PLT_learning_02,A,2014_Mrz_24_1758,P23,
stim_fb/ques.jpg,stim_fb/negf.jpg,stim_fb/posf.jpg,stim_02/a.jpg,stim_02/b.jpg,2,1,j,0,30,30,10,j,1,0.649836882432,02,02,60.019506102,PLT_learning_02,A,2014_Mrz_24_1758,P23,
stim_fb/ques.jpg,stim_fb/posf.jpg,stim_fb/negf.jpg,stim_02/a.jpg,stim_02/b.jpg,2,1,j,0,31,31,18,j,1,0.683133438095,02,02,60.019506102,PLT_learning_02,A,2014_Mrz_24_1758,P23,
stim_fb/ques.jpg,stim_fb/negf.jpg,stim_fb/posf.jpg,stim_02/f.jpg,stim_02/e.jpg,1,3,f,0,32,32,44,f,1,0.849767700998,02,02,60.019506102,PLT_learning_02,A,2014_Mrz_24_1758,P23,
stim_fb/ques.jpg,stim_fb/negf.jpg,stim_fb/posf.jpg,stim_02/c.jpg,stim_02/d.jpg,2,2,j,0,33,33,32,j,1,0.866427410318,02,02,60.019506102,PLT_learning_02,A,2014_Mrz_24_1758,P23,
stim_fb/ques.jpg,stim_fb/negf.jpg,stim_fb/posf.jpg,stim_02/d.jpg,stim_02/c.jpg,1,2,f,0,34,34,20,f,1,0.699808807454,02,02,60.019506102,PLT_learning_02,A,2014_Mrz_24_1758,P23,
stim_fb/ques.jpg,stim_fb/posf.jpg,stim_fb/negf.jpg,stim_02/d.jpg,stim_02/c.jpg,1,2,f,0,35,35,27,f,1,0.699838548582,02,02,60.019506102,PLT_learning_02,A,2014_Mrz_24_1758,P23,
stim_fb/ques.jpg,stim_fb/posf.jpg,stim_fb/negf.jpg,stim_02/c.jpg,stim_02/d.jpg,2,2,j,0,36,36,39,j,1,0.833108927,02,02,60.019506102,PLT_learning_02,A,2014_Mrz_24_1758,P23,
stim_fb/ques.jpg,stim_fb/posf.jpg,stim_fb/negf.jpg,stim_02/c.jpg,stim_02/d.jpg,2,2,j,0,37,37,37,j,1,0.499877946782,02,02,60.019506102,PLT_learning_02,A,2014_Mrz_24_1758,P23,
stim_fb/ques.jpg,stim_fb/negf.jpg,stim_fb/posf.jpg,stim_02/a.jpg,stim_02/b.jpg,2,1,j,0,38,38,14,j,1,0.666510760071,02,02,60.019506102,PLT_learning_02,A,2014_Mrz_24_1758,P23,
stim_fb/ques.jpg,stim_fb/negf.jpg,stim_fb/posf.jpg,stim_02/f.jpg,stim_02/e.jpg,1,3,f,0,39,39,42,f,1,0.982936110253,02,02,60.019506102,PLT_learning_02,A,2014_Mrz_24_1758,P23,
stim_fb/ques.jpg,stim_fb/negf.jpg,stim_fb/posf.jpg,stim_02/e.jpg,stim_02/f.jpg,2,3,j,0,40,40,54,j,1,0.733139410982,02,02,60.019506102,PLT_learning_02,A,2014_Mrz_24_1758,P23,
stim_fb/ques.jpg,stim_fb/negf.jpg,stim_fb/posf.jpg,stim_02/a.jpg,stim_02/b.jpg,2,1,j,0,41,41,11,j,1,0.683146761301,02,02,60.019506102,PLT_learning_02,A,2014_Mrz_24_1758,P23,
stim_fb/ques.jpg,stim_fb/posf.jpg,stim_fb/negf.jpg,stim_02/f.jpg,stim_02/e.jpg,1,3,f,0,42,42,49,f,1,0.833099769174,02,02,60.019506102,PLT_learning_02,A,2014_Mrz_24_1758,P23,
stim_fb/ques.jpg,stim_fb/posf.jpg,stim_fb/negf.jpg,stim_02/b.jpg,stim_02/a.jpg,1,1,f,0,43,43,9,f,1,0.833097212802,02,02,60.019506102,PLT_learning_02,A,2014_Mrz_24_1758,P23,
stim_fb/ques.jpg,stim_fb/posf.jpg,stim_fb/negf.jpg,stim_02/c.jpg,stim_02/d.jpg,2,2,j,0,44,44,38,j,1,0.816450489849,02,02,60.019506102,PLT_learning_02,A,2014_Mrz_24_1758,P23,
stim_fb/ques.jpg,stim_fb/negf.jpg,stim_fb/posf.jpg,stim_02/f.jpg,stim_02/e.jpg,1,3,f,0,45,45,43,f,1,1.09868087007,02,02,60.019506102,PLT_learning_02,A,2014_Mrz_24_1758,P23,
stim_fb/ques.jpg,stim_fb/negf.jpg,stim_fb/posf.jpg,stim_02/e.jpg,stim_02/f.jpg,2,3,j,0,46,46,55,j,1,0.699844750041,02,02,60.019506102,PLT_learning_02,A,2014_Mrz_24_1758,P23,
stim_fb/ques.jpg,stim_fb/negf.jpg,stim_fb/posf.jpg,stim_02/f.jpg,stim_02/e.jpg,1,3,f,0,47,47,45,f,1,0.816513893878,02,02,60.019506102,PLT_learning_02,A,2014_Mrz_24_1758,P23,
stim_fb/ques.jpg,stim_fb/posf.jpg,stim_fb/negf.jpg,stim_02/f.jpg,stim_02/e.jpg,1,3,f,0,48,48,47,j,0,0.899735517778,02,02,60.019506102,PLT_learning_02,A,2014_Mrz_24_1758,P23,
stim_fb/ques.jpg,stim_fb/posf.jpg,stim_fb/negf.jpg,stim_02/b.jpg,stim_02/a.jpg,1,1,f,0,49,49,8,f,1,0.949734230569,02,02,60.019506102,PLT_learning_02,A,2014_Mrz_24_1758,P23,
stim_fb/ques.jpg,stim_fb/posf.jpg,stim_fb/negf.jpg,stim_02/e.jpg,stim_02/f.jpg,2,3,j,0,50,50,57,f,0,1.06637204231,02,02,60.019506102,PLT_learning_02,A,2014_Mrz_24_1758,P23,
stim_fb/ques.jpg,stim_fb/negf.jpg,stim_fb/posf.jpg,stim_02/d.jpg,stim_02/c.jpg,1,2,f,0,51,51,22,f,1,0.783115793114,02,02,60.019506102,PLT_learning_02,A,2014_Mrz_24_1758,P23,
stim_fb/ques.jpg,stim_fb/negf.jpg,stim_fb/posf.jpg,stim_02/d.jpg,stim_02/c.jpg,1,2,f,0,52,52,23,f,1,0.716480233983,02,02,60.019506102,PLT_learning_02,A,2014_Mrz_24_1758,P23,
stim_fb/ques.jpg,stim_fb/negf.jpg,stim_fb/posf.jpg,stim_02/a.jpg,stim_02/b.jpg,2,1,j,0,53,53,17,f,0,0.816430733605,02,02,60.019506102,PLT_learning_02,A,2014_Mrz_24_1758,P23,
stim_fb/ques.jpg,stim_fb/negf.jpg,stim_fb/posf.jpg,stim_02/b.jpg,stim_02/a.jpg,1,1,f,0,54,54,3,f,1,1.11633511026,02,02,60.019506102,PLT_learning_02,A,2014_Mrz_24_1758,P23,
stim_fb/ques.jpg,stim_fb/negf.jpg,stim_fb/posf.jpg,stim_02/a.jpg,stim_02/b.jpg,2,1,j,0,55,55,15,j,1,1.28295381238,02,02,60.019506102,PLT_learning_02,A,2014_Mrz_24_1758,P23,
stim_fb/ques.jpg,stim_fb/negf.jpg,stim_fb/posf.jpg,stim_02/b.jpg,stim_02/a.jpg,1,1,f,0,56,56,7,f,1,1.03305094849,02,02,60.019506102,PLT_learning_02,A,2014_Mrz_24_1758,P23,
stim_fb/ques.jpg,stim_fb/posf.jpg,stim_fb/negf.jpg,stim_02/d.jpg,stim_02/c.jpg,1,2,f,0,57,57,29,f,1,0.849741274127,02,02,60.019506102,PLT_learning_02,A,2014_Mrz_24_1758,P23,
stim_fb/ques.jpg,stim_fb/negf.jpg,stim_fb/posf.jpg,stim_02/c.jpg,stim_02/d.jpg,2,2,j,0,58,58,35,j,1,0.799778558056,02,02,60.019506102,PLT_learning_02,A,2014_Mrz_24_1758,P23,
stim_fb/ques.jpg,stim_fb/posf.jpg,stim_fb/negf.jpg,stim_02/e.jpg,stim_02/f.jpg,2,3,j,0,59,59,56,j,1,1.0663725175,02,02,60.019506102,PLT_learning_02,A,2014_Mrz_24_1758,P23,
stim_fb/ques.jpg,stim_fb/negf.jpg,stim_fb/posf.jpg,stim_02/b.jpg,stim_02/a.jpg,1,1,f,1,0,60,2,f,1,0.833116253263,02,02,60.019506102,PLT_learning_02,A,2014_Mrz_24_1758,P23,
stim_fb/ques.jpg,stim_fb/negf.jpg,stim_fb/posf.jpg,stim_02/e.jpg,stim_02/f.jpg,2,3,j,1,1,61,54,j,1,0.966261450663,02,02,60.019506102,PLT_learning_02,A,2014_Mrz_24_1758,P23,
stim_fb/ques.jpg,stim_fb/negf.jpg,stim_fb/posf.jpg,stim_02/d.jpg,stim_02/c.jpg,1,2,f,1,2,62,22,f,1,0.683155386803,02,02,60.019506102,PLT_learning_02,A,2014_Mrz_24_1758,P23,
stim_fb/ques.jpg,stim_fb/negf.jpg,stim_fb/posf.jpg,stim_02/a.jpg,stim_02/b.jpg,2,1,j,1,3,63,17,j,1,0.699818873542,02,02,60.019506102,PLT_learning_02,A,2014_Mrz_24_1758,P23,
stim_fb/ques.jpg,stim_fb/negf.jpg,stim_fb/posf.jpg,stim_02/d.jpg,stim_02/c.jpg,1,2,f,1,4,64,21,f,1,0.683168719032,02,02,60.019506102,PLT_learning_02,A,2014_Mrz_24_1758,P23,
stim_fb/ques.jpg,stim_fb/posf.jpg,stim_fb/negf.jpg,stim_02/c.jpg,stim_02/d.jpg,2,2,j,1,5,65,38,j,1,0.749796428598,02,02,60.019506102,PLT_learning_02,A,2014_Mrz_24_1758,P23,
stim_fb/ques.jpg,stim_fb/negf.jpg,stim_fb/posf.jpg,stim_02/b.jpg,stim_02/a.jpg,1,1,f,1,6,66,6,f,1,0.833089928648,02,02,60.019506102,PLT_learning_02,A,2014_Mrz_24_1758,P23,
stim_fb/ques.jpg,stim_fb/negf.jpg,stim_fb/posf.jpg,stim_02/b.jpg,stim_02/a.jpg,1,1,f,1,7,67,7,f,1,0.79976768596,02,02,60.019506102,PLT_learning_02,A,2014_Mrz_24_1758,P23,
stim_fb/ques.jpg,stim_fb/posf.jpg,stim_fb/negf.jpg,stim_02/c.jpg,stim_02/d.jpg,2,2,j,1,8,68,39,j,1,0.73313394636,02,02,60.019506102,PLT_learning_02,A,2014_Mrz_24_1758,P23,
stim_fb/ques.jpg,stim_fb/negf.jpg,stim_fb/posf.jpg,stim_02/b.jpg,stim_02/a.jpg,1,1,f,1,9,69,0,f,1,0.616553249973,02,02,60.019506102,PLT_learning_02,A,2014_Mrz_24_1758,P23,
stim_fb/ques.jpg,stim_fb/negf.jpg,stim_fb/posf.jpg,stim_02/e.jpg,stim_02/f.jpg,2,3,j,1,10,70,52,j,1,1.3330044526,02,02,60.019506102,PLT_learning_02,A,2014_Mrz_24_1758,P23,
stim_fb/ques.jpg,stim_fb/posf.jpg,stim_fb/negf.jpg,stim_02/e.jpg,stim_02/f.jpg,2,3,j,1,11,71,56,f,0,0.999725587026,02,02,60.019506102,PLT_learning_02,A,2014_Mrz_24_1758,P23,
stim_fb/ques.jpg,stim_fb/negf.jpg,stim_fb/posf.jpg,stim_02/a.jpg,stim_02/b.jpg,2,1,j,1,12,72,15,j,1,0.549873558844,02,02,60.019506102,PLT_learning_02,A,2014_Mrz_24_1758,P23,
stim_fb/ques.jpg,stim_fb/negf.jpg,stim_fb/posf.jpg,stim_02/f.jpg,stim_02/e.jpg,1,3,f,1,13,73,44,f,1,0.983053495838,02,02,60.019506102,PLT_learning_02,A,2014_Mrz_24_1758,P23,
stim_fb/ques.jpg,stim_fb/negf.jpg,stim_fb/posf.jpg,stim_02/b.jpg,stim_02/a.jpg,1,1,f,1,14,74,4,f,1,0.933071372394,02,02,60.019506102,PLT_learning_02,A,2014_Mrz_24_1758,P23,
stim_fb/ques.jpg,stim_fb/negf.jpg,stim_fb/posf.jpg,stim_02/a.jpg,stim_02/b.jpg,2,1,j,1,15,75,14,j,1,0.716484964774,02,02,60.019506102,PLT_learning_02,A,2014_Mrz_24_1758,P23,
stim_fb/ques.jpg,stim_fb/negf.jpg,stim_fb/posf.jpg,stim_02/d.jpg,stim_02/c.jpg,1,2,f,1,16,76,24,f,1,0.6165053556,02,02,60.019506102,PLT_learning_02,A,2014_Mrz_24_1758,P23,
stim_fb/ques.jpg,stim_fb/negf.jpg,stim_fb/posf.jpg,stim_02/d.jpg,stim_02/c.jpg,1,2,f,1,17,77,26,f,1,0.716488348211,02,02,60.019506102,PLT_learning_02,A,2014_Mrz_24_1758,P23,
stim_fb/ques.jpg,stim_fb/negf.jpg,stim_fb/posf.jpg,stim_02/b.jpg,stim_02/a.jpg,1,1,f,1,18,78,3,f,1,1.04969407448,02,02,60.019506102,PLT_learning_02,A,2014_Mrz_24_1758,P23,
stim_fb/ques.jpg,stim_fb/posf.jpg,stim_fb/negf.jpg,stim_02/e.jpg,stim_02/f.jpg,2,3,j,1,19,79,59,j,1,0.899769367148,02,02,60.019506102,PLT_learning_02,A,2014_Mrz_24_1758,P23,
stim_fb/ques.jpg,stim_fb/negf.jpg,stim_fb/posf.jpg,stim_02/f.jpg,stim_02/e.jpg,1,3,f,1,20,80,40,f,1,0.666498408285,02,02,60.019506102,PLT_learning_02,A,2014_Mrz_24_1758,P23,
stim_fb/ques.jpg,stim_fb/posf.jpg,stim_fb/negf.jpg,stim_02/e.jpg,stim_02/f.jpg,2,3,j,1,21,81,57,j,1,1.03304129443,02,02,60.019506102,PLT_learning_02,A,2014_Mrz_24_1758,P23,
stim_fb/ques.jpg,stim_fb/posf.jpg,stim_fb/negf.jpg,stim_02/d.jpg,stim_02/c.jpg,1,2,f,1,22,82,27,f,1,0.716507343554,02,02,60.019506102,PLT_learning_02,A,2014_Mrz_24_1758,P23,
stim_fb/ques.jpg,stim_fb/negf.jpg,stim_fb/posf.jpg,stim_02/d.jpg,stim_02/c.jpg,1,2,f,1,23,83,25,f,1,0.716394267711,02,02,60.019506102,PLT_learning_02,A,2014_Mrz_24_1758,P23,
stim_fb/ques.jpg,stim_fb/negf.jpg,stim_fb/posf.jpg,stim_02/f.jpg,stim_02/e.jpg,1,3,f,1,24,84,43,f,1,1.01638019564,02,02,60.019506102,PLT_learning_02,A,2014_Mrz_24_1758,P23,
stim_fb/ques.jpg,stim_fb/negf.jpg,stim_fb/posf.jpg,stim_02/f.jpg,stim_02/e.jpg,1,3,f,1,25,85,42,j,0,0.949711668331,02,02,60.019506102,PLT_learning_02,A,2014_Mrz_24_1758,P23,
stim_fb/ques.jpg,stim_fb/posf.jpg,stim_fb/negf.jpg,stim_02/a.jpg,stim_02/b.jpg,2,1,j,1,26,86,19,j,1,0.916420595335,02,02,60.019506102,PLT_learning_02,A,2014_Mrz_24_1758,P23,
stim_fb/ques.jpg,stim_fb/negf.jpg,stim_fb/posf.jpg,stim_02/c.jpg,stim_02/d.jpg,2,2,j,1,27,87,34,j,1,0.79971536154,02,02,60.019506102,PLT_learning_02,A,2014_Mrz_24_1758,P23,
stim_fb/ques.jpg,stim_fb/posf.jpg,stim_fb/negf.jpg,stim_02/b.jpg,stim_02/a.jpg,1,1,f,1,28,88,8,f,1,0.783135895217,02,02,60.019506102,PLT_learning_02,A,2014_Mrz_24_1758,P23,
stim_fb/ques.jpg,stim_fb/negf.jpg,stim_fb/posf.jpg,stim_02/a.jpg,stim_02/b.jpg,2,1,j,1,29,89,13,j,1,0.699824229894,02,02,60.019506102,PLT_learning_02,A,2014_Mrz_24_1758,P23,
stim_fb/ques.jpg,stim_fb/posf.jpg,stim_fb/negf.jpg,stim_02/a.jpg,stim_02/b.jpg,2,1,j,1,30,90,18,j,1,0.599841664349,02,02,60.019506102,PLT_learning_02,A,2014_Mrz_24_1758,P23,
stim_fb/ques.jpg,stim_fb/posf.jpg,stim_fb/negf.jpg,stim_02/f.jpg,stim_02/e.jpg,1,3,f,1,31,91,49,f,1,0.799782530961,02,02,60.019506102,PLT_learning_02,A,2014_Mrz_24_1758,P23,
stim_fb/ques.jpg,stim_fb/posf.jpg,stim_fb/negf.jpg,stim_02/d.jpg,stim_02/c.jpg,1,2,f,1,32,92,28,f,1,0.933068007009,02,02,60.019506102,PLT_learning_02,A,2014_Mrz_24_1758,P23,
stim_fb/ques.jpg,stim_fb/negf.jpg,stim_fb/posf.jpg,stim_02/d.jpg,stim_02/c.jpg,1,2,f,1,33,93,20,f,1,1.1163520936,02,02,60.019506102,PLT_learning_02,A,2014_Mrz_24_1758,P23,
stim_fb/ques.jpg,stim_fb/negf.jpg,stim_fb/posf.jpg,stim_02/b.jpg,stim_02/a.jpg,1,1,f,1,34,94,1,f,1,0.966387741442,02,02,60.019506102,PLT_learning_02,A,2014_Mrz_24_1758,P23,
stim_fb/ques.jpg,stim_fb/posf.jpg,stim_fb/negf.jpg,stim_02/b.jpg,stim_02/a.jpg,1,1,f,1,35,95,9,f,1,0.749794001549,02,02,60.019506102,PLT_learning_02,A,2014_Mrz_24_1758,P23,
stim_fb/ques.jpg,stim_fb/posf.jpg,stim_fb/negf.jpg,stim_02/f.jpg,stim_02/e.jpg,1,3,f,1,36,96,46,f,1,0.899741156834,02,02,60.019506102,PLT_learning_02,A,2014_Mrz_24_1758,P23,
stim_fb/ques.jpg,stim_fb/posf.jpg,stim_fb/negf.jpg,stim_02/c.jpg,stim_02/d.jpg,2,2,j,1,37,97,37,f,0,1.38291215855,02,02,60.019506102,PLT_learning_02,A,2014_Mrz_24_1758,P23,
stim_fb/ques.jpg,stim_fb/posf.jpg,stim_fb/negf.jpg,stim_02/d.jpg,stim_02/c.jpg,1,2,f,1,38,98,29,j,0,1.06641380742,02,02,60.019506102,PLT_learning_02,A,2014_Mrz_24_1758,P23,
stim_fb/ques.jpg,stim_fb/negf.jpg,stim_fb/posf.jpg,stim_02/c.jpg,stim_02/d.jpg,2,2,j,1,39,99,36,f,0,0.766421464497,02,02,60.019506102,PLT_learning_02,A,2014_Mrz_24_1758,P23,
stim_fb/ques.jpg,stim_fb/negf.jpg,stim_fb/posf.jpg,stim_02/e.jpg,stim_02/f.jpg,2,3,j,1,40,100,55,f,0,1.28293983654,02,02,60.019506102,PLT_learning_02,A,2014_Mrz_24_1758,P23,
stim_fb/ques.jpg,stim_fb/negf.jpg,stim_fb/posf.jpg,stim_02/c.jpg,stim_02/d.jpg,2,2,j,1,41,101,33,j,1,0.716485106128,02,02,60.019506102,PLT_learning_02,A,2014_Mrz_24_1758,P23,
stim_fb/ques.jpg,stim_fb/posf.jpg,stim_fb/negf.jpg,stim_02/f.jpg,stim_02/e.jpg,1,3,f,1,42,102,47,f,1,0.79985213645,02,02,60.019506102,PLT_learning_02,A,2014_Mrz_24_1758,P23,
stim_fb/ques.jpg,stim_fb/negf.jpg,stim_fb/posf.jpg,stim_02/b.jpg,stim_02/a.jpg,1,1,f,1,43,103,5,f,1,0.983067958889,02,02,60.019506102,PLT_learning_02,A,2014_Mrz_24_1758,P23,
stim_fb/ques.jpg,stim_fb/posf.jpg,stim_fb/negf.jpg,stim_02/f.jpg,stim_02/e.jpg,1,3,f,1,44,104,48,j,0,0.833104656358,02,02,60.019506102,PLT_learning_02,A,2014_Mrz_24_1758,P23,
stim_fb/ques.jpg,stim_fb/negf.jpg,stim_fb/posf.jpg,stim_02/e.jpg,stim_02/f.jpg,2,3,j,1,45,105,53,f,0,1.08303504485,02,02,60.019506102,PLT_learning_02,A,2014_Mrz_24_1758,P23,
stim_fb/ques.jpg,stim_fb/negf.jpg,stim_fb/posf.jpg,stim_02/c.jpg,stim_02/d.jpg,2,2,j,1,46,106,32,j,1,0.866395861685,02,02,60.019506102,PLT_learning_02,A,2014_Mrz_24_1758,P23,
stim_fb/ques.jpg,stim_fb/posf.jpg,stim_fb/negf.jpg,stim_02/e.jpg,stim_02/f.jpg,2,3,j,1,47,107,58,f,0,0.833069426546,02,02,60.019506102,PLT_learning_02,A,2014_Mrz_24_1758,P23,
stim_fb/ques.jpg,stim_fb/negf.jpg,stim_fb/posf.jpg,stim_02/c.jpg,stim_02/d.jpg,2,2,j,1,48,108,35,j,1,0.549888951213,02,02,60.019506102,PLT_learning_02,A,2014_Mrz_24_1758,P23,
stim_fb/ques.jpg,stim_fb/negf.jpg,stim_fb/posf.jpg,stim_02/c.jpg,stim_02/d.jpg,2,2,j,1,49,109,31,j,1,0.699812990879,02,02,60.019506102,PLT_learning_02,A,2014_Mrz_24_1758,P23,
stim_fb/ques.jpg,stim_fb/negf.jpg,stim_fb/posf.jpg,stim_02/a.jpg,stim_02/b.jpg,2,1,j,1,50,110,11,j,1,0.666500880445,02,02,60.019506102,PLT_learning_02,A,2014_Mrz_24_1758,P23,
stim_fb/ques.jpg,stim_fb/negf.jpg,stim_fb/posf.jpg,stim_02/a.jpg,stim_02/b.jpg,2,1,j,1,51,111,12,j,1,0.783120923905,02,02,60.019506102,PLT_learning_02,A,2014_Mrz_24_1758,P23,
stim_fb/ques.jpg,stim_fb/negf.jpg,stim_fb/posf.jpg,stim_02/e.jpg,stim_02/f.jpg,2,3,j,1,52,112,51,j,1,0.716499722559,02,02,60.019506102,PLT_learning_02,A,2014_Mrz_24_1758,P23,
stim_fb/ques.jpg,stim_fb/negf.jpg,stim_fb/posf.jpg,stim_02/f.jpg,stim_02/e.jpg,1,3,f,1,53,113,45,f,1,0.966412445021,02,02,60.019506102,PLT_learning_02,A,2014_Mrz_24_1758,P23,
stim_fb/ques.jpg,stim_fb/negf.jpg,stim_fb/posf.jpg,stim_02/a.jpg,stim_02/b.jpg,2,1,j,1,54,114,10,j,1,0.66650908189,02,02,60.019506102,PLT_learning_02,A,2014_Mrz_24_1758,P23,
stim_fb/ques.jpg,stim_fb/negf.jpg,stim_fb/posf.jpg,stim_02/e.jpg,stim_02/f.jpg,2,3,j,1,55,115,50,j,1,1.03305924016,02,02,60.019506102,PLT_learning_02,A,2014_Mrz_24_1758,P23,
stim_fb/ques.jpg,stim_fb/negf.jpg,stim_fb/posf.jpg,stim_02/a.jpg,stim_02/b.jpg,2,1,j,1,56,116,16,j,1,0.583184881314,02,02,60.019506102,PLT_learning_02,A,2014_Mrz_24_1758,P23,
stim_fb/ques.jpg,stim_fb/negf.jpg,stim_fb/posf.jpg,stim_02/f.jpg,stim_02/e.jpg,1,3,f,1,57,117,41,f,1,0.583168270918,02,02,60.019506102,PLT_learning_02,A,2014_Mrz_24_1758,P23,
stim_fb/ques.jpg,stim_fb/negf.jpg,stim_fb/posf.jpg,stim_02/d.jpg,stim_02/c.jpg,1,2,f,1,58,118,23,f,1,0.749798332345,02,02,60.019506102,PLT_learning_02,A,2014_Mrz_24_1758,P23,
stim_fb/ques.jpg,stim_fb/negf.jpg,stim_fb/posf.jpg,stim_02/c.jpg,stim_02/d.jpg,2,2,j,1,59,119,30,j,1,0.649836154615,02,02,60.019506102,PLT_learning_02,A,2014_Mrz_24_1758,P23,
stim_fb/ques.jpg,stim_fb/posf.jpg,stim_fb/negf.jpg,stim_02/f.jpg,stim_02/e.jpg,1,3,f,2,0,120,48,j,0,1.63285350637,02,02,60.019506102,PLT_learning_02,A,2014_Mrz_24_1758,P23,
stim_fb/ques.jpg,stim_fb/negf.jpg,stim_fb/posf.jpg,stim_02/d.jpg,stim_02/c.jpg,1,2,f,2,1,121,22,f,1,1.29962282389,02,02,60.019506102,PLT_learning_02,A,2014_Mrz_24_1758,P23,
stim_fb/ques.jpg,stim_fb/negf.jpg,stim_fb/posf.jpg,stim_02/e.jpg,stim_02/f.jpg,2,3,j,2,2,122,51,f,0,1.04967024308,02,02,60.019506102,PLT_learning_02,A,2014_Mrz_24_1758,P23,
stim_fb/ques.jpg,stim_fb/negf.jpg,stim_fb/posf.jpg,stim_02/b.jpg,stim_02/a.jpg,1,1,f,2,3,123,5,f,1,0.849764549141,02,02,60.019506102,PLT_learning_02,A,2014_Mrz_24_1758,P23,
stim_fb/ques.jpg,stim_fb/negf.jpg,stim_fb/posf.jpg,stim_02/f.jpg,stim_02/e.jpg,1,3,f,2,4,124,43,j,0,0.849749836467,02,02,60.019506102,PLT_learning_02,A,2014_Mrz_24_1758,P23,
stim_fb/ques.jpg,stim_fb/negf.jpg,stim_fb/posf.jpg,stim_02/c.jpg,stim_02/d.jpg,2,2,j,2,5,125,32,j,1,0.733120199096,02,02,60.019506102,PLT_learning_02,A,2014_Mrz_24_1758,P23,
stim_fb/ques.jpg,stim_fb/negf.jpg,stim_fb/posf.jpg,stim_02/e.jpg,stim_02/f.jpg,2,3,j,2,6,126,52,f,0,0.866448077832,02,02,60.019506102,PLT_learning_02,A,2014_Mrz_24_1758,P23,
stim_fb/ques.jpg,stim_fb/negf.jpg,stim_fb/posf.jpg,stim_02/a.jpg,stim_02/b.jpg,2,1,j,2,7,127,12,j,1,0.683161125104,02,02,60.019506102,PLT_learning_02,A,2014_Mrz_24_1758,P23,
stim_fb/ques.jpg,stim_fb/negf.jpg,stim_fb/posf.jpg,stim_02/d.jpg,stim_02/c.jpg,1,2,f,2,8,128,21,f,1,1.01636612958,02,02,60.019506102,PLT_learning_02,A,2014_Mrz_24_1758,P23,
stim_fb/ques.jpg,stim_fb/negf.jpg,stim_fb/posf.jpg,stim_02/a.jpg,stim_02/b.jpg,2,1,j,2,9,129,13,j,1,0.649856358974,02,02,60.019506102,PLT_learning_02,A,2014_Mrz_24_1758,P23,
stim_fb/ques.jpg,stim_fb/posf.jpg,stim_fb/negf.jpg,stim_02/b.jpg,stim_02/a.jpg,1,1,f,2,10,130,9,f,1,0.716636626792,02,02,60.019506102,PLT_learning_02,A,2014_Mrz_24_1758,P23,
stim_fb/ques.jpg,stim_fb/negf.jpg,stim_fb/posf.jpg,stim_02/d.jpg,stim_02/c.jpg,1,2,f,2,11,131,26,f,1,0.716510681876,02,02,60.019506102,PLT_learning_02,A,2014_Mrz_24_1758,P23,
stim_fb/ques.jpg,stim_fb/negf.jpg,stim_fb/posf.jpg,stim_02/b.jpg,stim_02/a.jpg,1,1,f,2,12,132,3,f,1,0.799795424096,02,02,60.019506102,PLT_learning_02,A,2014_Mrz_24_1758,P23,
stim_fb/ques.jpg,stim_fb/negf.jpg,stim_fb/posf.jpg,stim_02/b.jpg,stim_02/a.jpg,1,1,f,2,13,133,6,f,1,0.933086713634,02,02,60.019506102,PLT_learning_02,A,2014_Mrz_24_1758,P23,
stim_fb/ques.jpg,stim_fb/negf.jpg,stim_fb/posf.jpg,stim_02/c.jpg,stim_02/d.jpg,2,2,j,2,14,134,33,j,1,0.766463737866,02,02,60.019506102,PLT_learning_02,A,2014_Mrz_24_1758,P23,
stim_fb/ques.jpg,stim_fb/negf.jpg,stim_fb/posf.jpg,stim_02/a.jpg,stim_02/b.jpg,2,1,j,2,15,135,17,j,1,0.949743328249,02,02,60.019506102,PLT_learning_02,A,2014_Mrz_24_1758,P23,
stim_fb/ques.jpg,stim_fb/negf.jpg,stim_fb/posf.jpg,stim_02/d.jpg,stim_02/c.jpg,1,2,f,2,16,136,25,f,1,0.666461046156,02,02,60.019506102,PLT_learning_02,A,2014_Mrz_24_1758,P23,
stim_fb/ques.jpg,stim_fb/negf.jpg,stim_fb/posf.jpg,stim_02/a.jpg,stim_02/b.jpg,2,1,j,2,17,137,16,j,1,0.599846268826,02,02,60.019506102,PLT_learning_02,A,2014_Mrz_24_1758,P23,
stim_fb/ques.jpg,stim_fb/negf.jpg,stim_fb/posf.jpg,stim_02/a.jpg,stim_02/b.jpg,2,1,j,2,18,138,15,j,1,0.616558146179,02,02,60.019506102,PLT_learning_02,A,2014_Mrz_24_1758,P23,
stim_fb/ques.jpg,stim_fb/negf.jpg,stim_fb/posf.jpg,stim_02/e.jpg,stim_02/f.jpg,2,3,j,2,19,139,54,j,1,1.16634207262,02,02,60.019506102,PLT_learning_02,A,2014_Mrz_24_1758,P23,
stim_fb/ques.jpg,stim_fb/posf.jpg,stim_fb/negf.jpg,stim_02/e.jpg,stim_02/f.jpg,2,3,j,2,20,140,59,j,1,0.68314541996,02,02,60.019506102,PLT_learning_02,A,2014_Mrz_24_1758,P23,
stim_fb/ques.jpg,stim_fb/negf.jpg,stim_fb/posf.jpg,stim_02/f.jpg,stim_02/e.jpg,1,3,f,2,21,141,41,f,1,0.916405389431,02,02,60.019506102,PLT_learning_02,A,2014_Mrz_24_1758,P23,
stim_fb/ques.jpg,stim_fb/negf.jpg,stim_fb/posf.jpg,stim_02/d.jpg,stim_02/c.jpg,1,2,f,2,22,142,23,f,1,0.816490080524,02,02,60.019506102,PLT_learning_02,A,2014_Mrz_24_1758,P23,
stim_fb/ques.jpg,stim_fb/negf.jpg,stim_fb/posf.jpg,stim_02/c.jpg,stim_02/d.jpg,2,2,j,2,23,143,34,j,1,0.799774155083,02,02,60.019506102,PLT_learning_02,A,2014_Mrz_24_1758,P23,
stim_fb/ques.jpg,stim_fb/negf.jpg,stim_fb/posf.jpg,stim_02/e.jpg,stim_02/f.jpg,2,3,j,2,24,144,55,j,1,0.949634724551,02,02,60.019506102,PLT_learning_02,A,2014_Mrz_24_1758,P23,
stim_fb/ques.jpg,stim_fb/negf.jpg,stim_fb/posf.jpg,stim_02/b.jpg,stim_02/a.jpg,1,1,f,2,25,145,7,f,1,0.816426450929,02,02,60.019506102,PLT_learning_02,A,2014_Mrz_24_1758,P23,
stim_fb/ques.jpg,stim_fb/negf.jpg,stim_fb/posf.jpg,stim_02/b.jpg,stim_02/a.jpg,1,1,f,2,26,146,2,f,1,0.68316643935,02,02,60.019506102,PLT_learning_02,A,2014_Mrz_24_1758,P23,
stim_fb/ques.jpg,stim_fb/posf.jpg,stim_fb/negf.jpg,stim_02/f.jpg,stim_02/e.jpg,1,3,f,2,27,147,49,f,1,0.749767836332,02,02,60.019506102,PLT_learning_02,A,2014_Mrz_24_1758,P23,
stim_fb/ques.jpg,stim_fb/negf.jpg,stim_fb/posf.jpg,stim_02/b.jpg,stim_02/a.jpg,1,1,f,2,28,148,0,f,1,0.783125173497,02,02,60.019506102,PLT_learning_02,A,2014_Mrz_24_1758,P23,
stim_fb/ques.jpg,stim_fb/negf.jpg,stim_fb/posf.jpg,stim_02/c.jpg,stim_02/d.jpg,2,2,j,2,29,149,30,j,1,0.683168039341,02,02,60.019506102,PLT_learning_02,A,2014_Mrz_24_1758,P23,
stim_fb/ques.jpg,stim_fb/posf.jpg,stim_fb/negf.jpg,stim_02/f.jpg,stim_02/e.jpg,1,3,f,2,30,150,47,f,1,0.716499617294,02,02,60.019506102,PLT_learning_02,A,2014_Mrz_24_1758,P23,
stim_fb/ques.jpg,stim_fb/negf.jpg,stim_fb/posf.jpg,stim_02/e.jpg,stim_02/f.jpg,2,3,j,2,31,151,53,j,1,0.999738561364,02,02,60.019506102,PLT_learning_02,A,2014_Mrz_24_1758,P23,
stim_fb/ques.jpg,stim_fb/posf.jpg,stim_fb/negf.jpg,stim_02/a.jpg,stim_02/b.jpg,2,1,j,2,32,152,19,j,1,0.899744711696,02,02,60.019506102,PLT_learning_02,A,2014_Mrz_24_1758,P23,
stim_fb/ques.jpg,stim_fb/posf.jpg,stim_fb/negf.jpg,stim_02/d.jpg,stim_02/c.jpg,1,2,f,2,33,153,29,f,1,0.666506158599,02,02,60.019506102,PLT_learning_02,A,2014_Mrz_24_1758,P23,
stim_fb/ques.jpg,stim_fb/negf.jpg,stim_fb/posf.jpg,stim_02/a.jpg,stim_02/b.jpg,2,1,j,2,34,154,10,j,1,0.549796419575,02,02,60.019506102,PLT_learning_02,A,2014_Mrz_24_1758,P23,
stim_fb/ques.jpg,stim_fb/posf.jpg,stim_fb/negf.jpg,stim_02/e.jpg,stim_02/f.jpg,2,3,j,2,35,155,57,j,1,0.84977577913,02,02,60.019506102,PLT_learning_02,A,2014_Mrz_24_1758,P23,
stim_fb/ques.jpg,stim_fb/posf.jpg,stim_fb/negf.jpg,stim_02/c.jpg,stim_02/d.jpg,2,2,j,2,36,156,38,j,1,0.783135080186,02,02,60.019506102,PLT_learning_02,A,2014_Mrz_24_1758,P23,
stim_fb/ques.jpg,stim_fb/posf.jpg,stim_fb/negf.jpg,stim_02/d.jpg,stim_02/c.jpg,1,2,f,2,37,157,28,f,1,0.616577848286,02,02,60.019506102,PLT_learning_02,A,2014_Mrz_24_1758,P23,
stim_fb/ques.jpg,stim_fb/negf.jpg,stim_fb/posf.jpg,stim_02/f.jpg,stim_02/e.jpg,1,3,f,2,38,158,42,j,0,0.682128768956,02,02,60.019506102,PLT_learning_02,A,2014_Mrz_24_1758,P23,
stim_fb/ques.jpg,stim_fb/negf.jpg,stim_fb/posf.jpg,stim_02/f.jpg,stim_02/e.jpg,1,3,f,2,39,159,44,f,1,0.699800696235,02,02,60.019506102,PLT_learning_02,A,2014_Mrz_24_1758,P23,
stim_fb/ques.jpg,stim_fb/posf.jpg,stim_fb/negf.jpg,stim_02/e.jpg,stim_02/f.jpg,2,3,j,2,40,160,58,j,1,0.799793893279,02,02,60.019506102,PLT_learning_02,A,2014_Mrz_24_1758,P23,
stim_fb/ques.jpg,stim_fb/posf.jpg,stim_fb/negf.jpg,stim_02/c.jpg,stim_02/d.jpg,2,2,j,2,41,161,39,j,1,0.783122779529,02,02,60.019506102,PLT_learning_02,A,2014_Mrz_24_1758,P23,
stim_fb/ques.jpg,stim_fb/negf.jpg,stim_fb/posf.jpg,stim_02/a.jpg,stim_02/b.jpg,2,1,j,2,42,162,14,j,1,0.633200072178,02,02,60.019506102,PLT_learning_02,A,2014_Mrz_24_1758,P23,
stim_fb/ques.jpg,stim_fb/negf.jpg,stim_fb/posf.jpg,stim_02/f.jpg,stim_02/e.jpg,1,3,f,2,43,163,40,f,1,0.766464643122,02,02,60.019506102,PLT_learning_02,A,2014_Mrz_24_1758,P23,
stim_fb/ques.jpg,stim_fb/posf.jpg,stim_fb/negf.jpg,stim_02/f.jpg,stim_02/e.jpg,1,3,f,2,44,164,46,f,1,0.949752233442,02,02,60.019506102,PLT_learning_02,A,2014_Mrz_24_1758,P23,
stim_fb/ques.jpg,stim_fb/negf.jpg,stim_fb/posf.jpg,stim_02/d.jpg,stim_02/c.jpg,1,2,f,2,45,165,20,f,1,0.849771297959,02,02,60.019506102,PLT_learning_02,A,2014_Mrz_24_1758,P23,
stim_fb/ques.jpg,stim_fb/posf.jpg,stim_fb/negf.jpg,stim_02/d.jpg,stim_02/c.jpg,1,2,f,2,46,166,27,f,1,0.833110638265,02,02,60.019506102,PLT_learning_02,A,2014_Mrz_24_1758,P23,
stim_fb/ques.jpg,stim_fb/negf.jpg,stim_fb/posf.jpg,stim_02/a.jpg,stim_02/b.jpg,2,1,j,2,47,167,11,j,1,0.733147816936,02,02,60.019506102,PLT_learning_02,A,2014_Mrz_24_1758,P23,
stim_fb/ques.jpg,stim_fb/negf.jpg,stim_fb/posf.jpg,stim_02/d.jpg,stim_02/c.jpg,1,2,f,2,48,168,24,f,1,0.733146021459,02,02,60.019506102,PLT_learning_02,A,2014_Mrz_24_1758,P23,
stim_fb/ques.jpg,stim_fb/negf.jpg,stim_fb/posf.jpg,stim_02/b.jpg,stim_02/a.jpg,1,1,f,2,49,169,1,f,1,0.899751631943,02,02,60.019506102,PLT_learning_02,A,2014_Mrz_24_1758,P23,
stim_fb/ques.jpg,stim_fb/negf.jpg,stim_fb/posf.jpg,stim_02/b.jpg,stim_02/a.jpg,1,1,f,2,50,170,4,f,1,0.716414345756,02,02,60.019506102,PLT_learning_02,A,2014_Mrz_24_1758,P23,
stim_fb/ques.jpg,stim_fb/negf.jpg,stim_fb/posf.jpg,stim_02/f.jpg,stim_02/e.jpg,1,3,f,2,51,171,45,f,1,0.699808825495,02,02,60.019506102,PLT_learning_02,A,2014_Mrz_24_1758,P23,
stim_fb/ques.jpg,stim_fb/posf.jpg,stim_fb/negf.jpg,stim_02/b.jpg,stim_02/a.jpg,1,1,f,2,52,172,8,f,1,0.766414225454,02,02,60.019506102,PLT_learning_02,A,2014_Mrz_24_1758,P23,
stim_fb/ques.jpg,stim_fb/negf.jpg,stim_fb/posf.jpg,stim_02/c.jpg,stim_02/d.jpg,2,2,j,2,53,173,36,j,1,1.316269207,02,02,60.019506102,PLT_learning_02,A,2014_Mrz_24_1758,P23,
stim_fb/ques.jpg,stim_fb/posf.jpg,stim_fb/negf.jpg,stim_02/a.jpg,stim_02/b.jpg,2,1,j,2,54,174,18,j,1,0.716467858136,02,02,60.019506102,PLT_learning_02,A,2014_Mrz_24_1758,P23,
stim_fb/ques.jpg,stim_fb/negf.jpg,stim_fb/posf.jpg,stim_02/e.jpg,stim_02/f.jpg,2,3,j,2,55,175,50,j,1,0.866379317449,02,02,60.019506102,PLT_learning_02,A,2014_Mrz_24_1758,P23,
stim_fb/ques.jpg,stim_fb/negf.jpg,stim_fb/posf.jpg,stim_02/c.jpg,stim_02/d.jpg,2,2,j,2,56,176,35,j,1,0.683156189803,02,02,60.019506102,PLT_learning_02,A,2014_Mrz_24_1758,P23,
stim_fb/ques.jpg,stim_fb/negf.jpg,stim_fb/posf.jpg,stim_02/c.jpg,stim_02/d.jpg,2,2,j,2,57,177,31,j,1,0.666505542064,02,02,60.019506102,PLT_learning_02,A,2014_Mrz_24_1758,P23,
stim_fb/ques.jpg,stim_fb/posf.jpg,stim_fb/negf.jpg,stim_02/c.jpg,stim_02/d.jpg,2,2,j,2,58,178,37,j,1,0.749803309747,02,02,60.019506102,PLT_learning_02,A,2014_Mrz_24_1758,P23,
stim_fb/ques.jpg,stim_fb/posf.jpg,stim_fb/negf.jpg,stim_02/e.jpg,stim_02/f.jpg,2,3,j,2,59,179,56,j,1,0.766456622128,02,02,60.019506102,PLT_learning_02,A,2014_Mrz_24_1758,P23,
stim_fb/ques.jpg,stim_fb/negf.jpg,stim_fb/posf.jpg,stim_02/a.jpg,stim_02/b.jpg,2,1,j,3,0,180,10,j,1,0.999701948105,02,02,60.019506102,PLT_learning_02,A,2014_Mrz_24_1758,P23,
stim_fb/ques.jpg,stim_fb/negf.jpg,stim_fb/posf.jpg,stim_02/b.jpg,stim_02/a.jpg,1,1,f,3,1,181,3,f,1,0.966403542829,02,02,60.019506102,PLT_learning_02,A,2014_Mrz_24_1758,P23,
stim_fb/ques.jpg,stim_fb/posf.jpg,stim_fb/negf.jpg,stim_02/e.jpg,stim_02/f.jpg,2,3,j,3,2,182,56,j,1,1.08298231742,02,02,60.019506102,PLT_learning_02,A,2014_Mrz_24_1758,P23,
stim_fb/ques.jpg,stim_fb/negf.jpg,stim_fb/posf.jpg,stim_02/d.jpg,stim_02/c.jpg,1,2,f,3,3,183,20,f,1,0.766450712399,02,02,60.019506102,PLT_learning_02,A,2014_Mrz_24_1758,P23,
stim_fb/ques.jpg,stim_fb/posf.jpg,stim_fb/negf.jpg,stim_02/f.jpg,stim_02/e.jpg,1,3,f,3,4,184,47,f,1,1.44954193126,02,02,60.019506102,PLT_learning_02,A,2014_Mrz_24_1758,P23,
stim_fb/ques.jpg,stim_fb/posf.jpg,stim_fb/negf.jpg,stim_02/f.jpg,stim_02/e.jpg,1,3,f,3,5,185,49,f,1,0.833119687821,02,02,60.019506102,PLT_learning_02,A,2014_Mrz_24_1758,P23,
stim_fb/ques.jpg,stim_fb/posf.jpg,stim_fb/negf.jpg,stim_02/c.jpg,stim_02/d.jpg,2,2,j,3,6,186,37,j,1,0.816450285336,02,02,60.019506102,PLT_learning_02,A,2014_Mrz_24_1758,P23,
stim_fb/ques.jpg,stim_fb/negf.jpg,stim_fb/posf.jpg,stim_02/e.jpg,stim_02/f.jpg,2,3,j,3,7,187,54,j,1,0.766459909326,02,02,60.019506102,PLT_learning_02,A,2014_Mrz_24_1758,P23,
stim_fb/ques.jpg,stim_fb/negf.jpg,stim_fb/posf.jpg,stim_02/e.jpg,stim_02/f.jpg,2,3,j,3,8,188,51,j,1,1.28297057616,02,02,60.019506102,PLT_learning_02,A,2014_Mrz_24_1758,P23,
stim_fb/ques.jpg,stim_fb/negf.jpg,stim_fb/posf.jpg,stim_02/b.jpg,stim_02/a.jpg,1,1,f,3,9,189,7,f,1,0.916405611988,02,02,60.019506102,PLT_learning_02,A,2014_Mrz_24_1758,P23,
stim_fb/ques.jpg,stim_fb/negf.jpg,stim_fb/posf.jpg,stim_02/d.jpg,stim_02/c.jpg,1,2,f,3,10,190,22,f,1,0.649823219374,02,02,60.019506102,PLT_learning_02,A,2014_Mrz_24_1758,P23,
stim_fb/ques.jpg,stim_fb/negf.jpg,stim_fb/posf.jpg,stim_02/b.jpg,stim_02/a.jpg,1,1,f,3,11,191,4,f,1,0.666470697211,02,02,60.019506102,PLT_learning_02,A,2014_Mrz_24_1758,P23,
stim_fb/ques.jpg,stim_fb/negf.jpg,stim_fb/posf.jpg,stim_02/d.jpg,stim_02/c.jpg,1,2,f,3,12,192,26,f,1,0.81650751799,02,02,60.019506102,PLT_learning_02,A,2014_Mrz_24_1758,P23,
stim_fb/ques.jpg,stim_fb/posf.jpg,stim_fb/negf.jpg,stim_02/b.jpg,stim_02/a.jpg,1,1,f,3,13,193,8,f,1,0.616542771859,02,02,60.019506102,PLT_learning_02,A,2014_Mrz_24_1758,P23,
stim_fb/ques.jpg,stim_fb/negf.jpg,stim_fb/posf.jpg,stim_02/e.jpg,stim_02/f.jpg,2,3,j,3,14,194,53,j,1,0.78310343832,02,02,60.019506102,PLT_learning_02,A,2014_Mrz_24_1758,P23,
stim_fb/ques.jpg,stim_fb/negf.jpg,stim_fb/posf.jpg,stim_02/a.jpg,stim_02/b.jpg,2,1,j,3,15,195,15,j,1,0.766425527629,02,02,60.019506102,PLT_learning_02,A,2014_Mrz_24_1758,P23,
stim_fb/ques.jpg,stim_fb/posf.jpg,stim_fb/negf.jpg,stim_02/e.jpg,stim_02/f.jpg,2,3,j,3,16,196,57,j,1,0.616487704607,02,02,60.019506102,PLT_learning_02,A,2014_Mrz_24_1758,P23,
stim_fb/ques.jpg,stim_fb/negf.jpg,stim_fb/posf.jpg,stim_02/f.jpg,stim_02/e.jpg,1,3,f,3,17,197,42,f,1,0.799790473757,02,02,60.019506102,PLT_learning_02,A,2014_Mrz_24_1758,P23,
stim_fb/ques.jpg,stim_fb/negf.jpg,stim_fb/posf.jpg,stim_02/a.jpg,stim_02/b.jpg,2,1,j,3,18,198,14,j,1,0.599863628093,02,02,60.019506102,PLT_learning_02,A,2014_Mrz_24_1758,P23,
stim_fb/ques.jpg,stim_fb/negf.jpg,stim_fb/posf.jpg,stim_02/c.jpg,stim_02/d.jpg,2,2,j,3,19,199,32,j,1,0.883093068471,02,02,60.019506102,PLT_learning_02,A,2014_Mrz_24_1758,P23,
stim_fb/ques.jpg,stim_fb/negf.jpg,stim_fb/posf.jpg,stim_02/d.jpg,stim_02/c.jpg,1,2,f,3,20,200,21,f,1,0.933080424962,02,02,60.019506102,PLT_learning_02,A,2014_Mrz_24_1758,P23,
stim_fb/ques.jpg,stim_fb/posf.jpg,stim_fb/negf.jpg,stim_02/f.jpg,stim_02/e.jpg,1,3,f,3,21,201,48,f,1,1.1496856565,02,02,60.019506102,PLT_learning_02,A,2014_Mrz_24_1758,P23,
stim_fb/ques.jpg,stim_fb/negf.jpg,stim_fb/posf.jpg,stim_02/d.jpg,stim_02/c.jpg,1,2,f,3,22,202,25,f,1,0.799769334066,02,02,60.019506102,PLT_learning_02,A,2014_Mrz_24_1758,P23,
stim_fb/ques.jpg,stim_fb/negf.jpg,stim_fb/posf.jpg,stim_02/c.jpg,stim_02/d.jpg,2,2,j,3,23,203,33,j,1,0.716463792003,02,02,60.019506102,PLT_learning_02,A,2014_Mrz_24_1758,P23,
stim_fb/ques.jpg,stim_fb/negf.jpg,stim_fb/posf.jpg,stim_02/b.jpg,stim_02/a.jpg,1,1,f,3,24,204,2,f,1,0.816432372689,02,02,60.019506102,PLT_learning_02,A,2014_Mrz_24_1758,P23,
stim_fb/ques.jpg,stim_fb/negf.jpg,stim_fb/posf.jpg,stim_02/e.jpg,stim_02/f.jpg,2,3,j,3,25,205,55,j,1,0.833134457636,02,02,60.019506102,PLT_learning_02,A,2014_Mrz_24_1758,P23,
stim_fb/ques.jpg,stim_fb/negf.jpg,stim_fb/posf.jpg,stim_02/f.jpg,stim_02/e.jpg,1,3,f,3,26,206,40,f,1,0.816427097539,02,02,60.019506102,PLT_learning_02,A,2014_Mrz_24_1758,P23,
stim_fb/ques.jpg,stim_fb/negf.jpg,stim_fb/posf.jpg,stim_02/c.jpg,stim_02/d.jpg,2,2,j,3,27,207,35,j,1,0.866463731851,02,02,60.019506102,PLT_learning_02,A,2014_Mrz_24_1758,P23,
stim_fb/ques.jpg,stim_fb/negf.jpg,stim_fb/posf.jpg,stim_02/b.jpg,stim_02/a.jpg,1,1,f,3,28,208,1,f,1,0.699797998514,02,02,60.019506102,PLT_learning_02,A,2014_Mrz_24_1758,P23,
stim_fb/ques.jpg,stim_fb/negf.jpg,stim_fb/posf.jpg,stim_02/f.jpg,stim_02/e.jpg,1,3,f,3,29,209,41,f,1,0.849741460588,02,02,60.019506102,PLT_learning_02,A,2014_Mrz_24_1758,P23,
stim_fb/ques.jpg,stim_fb/posf.jpg,stim_fb/negf.jpg,stim_02/e.jpg,stim_02/f.jpg,2,3,j,3,30,210,58,j,1,0.599791673747,02,02,60.019506102,PLT_learning_02,A,2014_Mrz_24_1758,P23,
stim_fb/ques.jpg,stim_fb/posf.jpg,stim_fb/negf.jpg,stim_02/d.jpg,stim_02/c.jpg,1,2,f,3,31,211,29,f,1,0.566526251681,02,02,60.019506102,PLT_learning_02,A,2014_Mrz_24_1758,P23,
stim_fb/ques.jpg,stim_fb/negf.jpg,stim_fb/posf.jpg,stim_02/e.jpg,stim_02/f.jpg,2,3,j,3,32,212,50,j,1,0.666480892625,02,02,60.019506102,PLT_learning_02,A,2014_Mrz_24_1758,P23,
stim_fb/ques.jpg,stim_fb/negf.jpg,stim_fb/posf.jpg,stim_02/a.jpg,stim_02/b.jpg,2,1,j,3,33,213,11,j,1,0.533210123231,02,02,60.019506102,PLT_learning_02,A,2014_Mrz_24_1758,P23,
stim_fb/ques.jpg,stim_fb/negf.jpg,stim_fb/posf.jpg,stim_02/b.jpg,stim_02/a.jpg,1,1,f,3,34,214,5,f,1,0.699804660115,02,02,60.019506102,PLT_learning_02,A,2014_Mrz_24_1758,P23,
stim_fb/ques.jpg,stim_fb/negf.jpg,stim_fb/posf.jpg,stim_02/c.jpg,stim_02/d.jpg,2,2,j,3,35,215,31,j,1,0.866422369756,02,02,60.019506102,PLT_learning_02,A,2014_Mrz_24_1758,P23,
stim_fb/ques.jpg,stim_fb/negf.jpg,stim_fb/posf.jpg,stim_02/a.jpg,stim_02/b.jpg,2,1,j,3,36,216,13,j,1,0.633160472476,02,02,60.019506102,PLT_learning_02,A,2014_Mrz_24_1758,P23,
stim_fb/ques.jpg,stim_fb/posf.jpg,stim_fb/negf.jpg,stim_02/f.jpg,stim_02/e.jpg,1,3,f,3,37,217,46,f,1,0.69983411553,02,02,60.019506102,PLT_learning_02,A,2014_Mrz_24_1758,P23,
stim_fb/ques.jpg,stim_fb/negf.jpg,stim_fb/posf.jpg,stim_02/d.jpg,stim_02/c.jpg,1,2,f,3,38,218,23,f,1,0.633171852845,02,02,60.019506102,PLT_learning_02,A,2014_Mrz_24_1758,P23,
stim_fb/ques.jpg,stim_fb/negf.jpg,stim_fb/posf.jpg,stim_02/f.jpg,stim_02/e.jpg,1,3,f,3,39,219,45,f,1,0.89975562289,02,02,60.019506102,PLT_learning_02,A,2014_Mrz_24_1758,P23,
stim_fb/ques.jpg,stim_fb/negf.jpg,stim_fb/posf.jpg,stim_02/b.jpg,stim_02/a.jpg,1,1,f,3,40,220,6,f,1,0.883118770536,02,02,60.019506102,PLT_learning_02,A,2014_Mrz_24_1758,P23,
stim_fb/ques.jpg,stim_fb/posf.jpg,stim_fb/negf.jpg,stim_02/a.jpg,stim_02/b.jpg,2,1,j,3,41,221,19,j,1,0.59986676792,02,02,60.019506102,PLT_learning_02,A,2014_Mrz_24_1758,P23,
stim_fb/ques.jpg,stim_fb/negf.jpg,stim_fb/posf.jpg,stim_02/c.jpg,stim_02/d.jpg,2,2,j,3,42,222,34,j,1,0.699806284163,02,02,60.019506102,PLT_learning_02,A,2014_Mrz_24_1758,P23,
stim_fb/ques.jpg,stim_fb/negf.jpg,stim_fb/posf.jpg,stim_02/c.jpg,stim_02/d.jpg,2,2,j,3,43,223,30,j,1,0.633180977584,02,02,60.019506102,PLT_learning_02,A,2014_Mrz_24_1758,P23,
stim_fb/ques.jpg,stim_fb/negf.jpg,stim_fb/posf.jpg,stim_02/a.jpg,stim_02/b.jpg,2,1,j,3,44,224,16,j,1,0.583155855973,02,02,60.019506102,PLT_learning_02,A,2014_Mrz_24_1758,P23,
stim_fb/ques.jpg,stim_fb/posf.jpg,stim_fb/negf.jpg,stim_02/b.jpg,stim_02/a.jpg,1,1,f,3,45,225,9,f,1,0.616531719312,02,02,60.019506102,PLT_learning_02,A,2014_Mrz_24_1758,P23,
stim_fb/ques.jpg,stim_fb/posf.jpg,stim_fb/negf.jpg,stim_02/d.jpg,stim_02/c.jpg,1,2,f,3,46,226,27,f,1,0.633205879654,02,02,60.019506102,PLT_learning_02,A,2014_Mrz_24_1758,P23,
stim_fb/ques.jpg,stim_fb/negf.jpg,stim_fb/posf.jpg,stim_02/d.jpg,stim_02/c.jpg,1,2,f,3,47,227,24,f,1,0.633182890357,02,02,60.019506102,PLT_learning_02,A,2014_Mrz_24_1758,P23,
stim_fb/ques.jpg,stim_fb/posf.jpg,stim_fb/negf.jpg,stim_02/c.jpg,stim_02/d.jpg,2,2,j,3,48,228,38,j,1,0.933071498712,02,02,60.019506102,PLT_learning_02,A,2014_Mrz_24_1758,P23,
stim_fb/ques.jpg,stim_fb/negf.jpg,stim_fb/posf.jpg,stim_02/f.jpg,stim_02/e.jpg,1,3,f,3,49,229,43,f,1,0.699764552148,02,02,60.019506102,PLT_learning_02,A,2014_Mrz_24_1758,P23,
stim_fb/ques.jpg,stim_fb/posf.jpg,stim_fb/negf.jpg,stim_02/e.jpg,stim_02/f.jpg,2,3,j,3,50,230,59,j,1,0.766480742248,02,02,60.019506102,PLT_learning_02,A,2014_Mrz_24_1758,P23,
stim_fb/ques.jpg,stim_fb/negf.jpg,stim_fb/posf.jpg,stim_02/b.jpg,stim_02/a.jpg,1,1,f,3,51,231,0,f,1,0.56649430305,02,02,60.019506102,PLT_learning_02,A,2014_Mrz_24_1758,P23,
stim_fb/ques.jpg,stim_fb/negf.jpg,stim_fb/posf.jpg,stim_02/a.jpg,stim_02/b.jpg,2,1,j,3,52,232,12,j,1,0.583172138555,02,02,60.019506102,PLT_learning_02,A,2014_Mrz_24_1758,P23,
stim_fb/ques.jpg,stim_fb/negf.jpg,stim_fb/posf.jpg,stim_02/a.jpg,stim_02/b.jpg,2,1,j,3,53,233,17,j,1,0.566542979373,02,02,60.019506102,PLT_learning_02,A,2014_Mrz_24_1758,P23,
stim_fb/ques.jpg,stim_fb/posf.jpg,stim_fb/negf.jpg,stim_02/d.jpg,stim_02/c.jpg,1,2,f,3,54,234,28,f,1,0.699816362285,02,02,60.019506102,PLT_learning_02,A,2014_Mrz_24_1758,P23,
stim_fb/ques.jpg,stim_fb/posf.jpg,stim_fb/negf.jpg,stim_02/c.jpg,stim_02/d.jpg,2,2,j,3,55,235,39,j,1,0.683153991322,02,02,60.019506102,PLT_learning_02,A,2014_Mrz_24_1758,P23,
stim_fb/ques.jpg,stim_fb/negf.jpg,stim_fb/posf.jpg,stim_02/c.jpg,stim_02/d.jpg,2,2,j,3,56,236,36,j,1,0.699808831512,02,02,60.019506102,PLT_learning_02,A,2014_Mrz_24_1758,P23,
stim_fb/ques.jpg,stim_fb/negf.jpg,stim_fb/posf.jpg,stim_02/f.jpg,stim_02/e.jpg,1,3,f,3,57,237,44,f,1,0.766498155655,02,02,60.019506102,PLT_learning_02,A,2014_Mrz_24_1758,P23,
stim_fb/ques.jpg,stim_fb/negf.jpg,stim_fb/posf.jpg,stim_02/e.jpg,stim_02/f.jpg,2,3,j,3,58,238,52,j,1,0.649843589144,02,02,60.019506102,PLT_learning_02,A,2014_Mrz_24_1758,P23,
stim_fb/ques.jpg,stim_fb/posf.jpg,stim_fb/negf.jpg,stim_02/a.jpg,stim_02/b.jpg,2,1,j,3,59,239,18,j,1,0.749805739808,02,02,60.019506102,PLT_learning_02,A,2014_Mrz_24_1758,P23,
stim_fb/ques.jpg,stim_fb/negf.jpg,stim_fb/posf.jpg,stim_02/d.jpg,stim_02/c.jpg,1,2,f,4,0,240,23,f,1,0.899750750745,02,02,60.019506102,PLT_learning_02,A,2014_Mrz_24_1758,P23,
stim_fb/ques.jpg,stim_fb/posf.jpg,stim_fb/negf.jpg,stim_02/b.jpg,stim_02/a.jpg,1,1,f,4,1,241,9,f,1,1.38293394787,02,02,60.019506102,PLT_learning_02,A,2014_Mrz_24_1758,P23,
stim_fb/ques.jpg,stim_fb/posf.jpg,stim_fb/negf.jpg,stim_02/c.jpg,stim_02/d.jpg,2,2,j,4,2,242,39,j,1,0.633151353752,02,02,60.019506102,PLT_learning_02,A,2014_Mrz_24_1758,P23,
stim_fb/ques.jpg,stim_fb/negf.jpg,stim_fb/posf.jpg,stim_02/c.jpg,stim_02/d.jpg,2,2,j,4,3,243,35,j,1,0.683135928299,02,02,60.019506102,PLT_learning_02,A,2014_Mrz_24_1758,P23,
stim_fb/ques.jpg,stim_fb/posf.jpg,stim_fb/negf.jpg,stim_02/e.jpg,stim_02/f.jpg,2,3,j,4,4,244,57,j,1,0.733152021414,02,02,60.019506102,PLT_learning_02,A,2014_Mrz_24_1758,P23,
stim_fb/ques.jpg,stim_fb/negf.jpg,stim_fb/posf.jpg,stim_02/c.jpg,stim_02/d.jpg,2,2,j,4,5,245,34,j,1,0.599850617662,02,02,60.019506102,PLT_learning_02,A,2014_Mrz_24_1758,P23,
stim_fb/ques.jpg,stim_fb/negf.jpg,stim_fb/posf.jpg,stim_02/f.jpg,stim_02/e.jpg,1,3,f,4,6,246,44,f,1,0.63318255953,02,02,60.019506102,PLT_learning_02,A,2014_Mrz_24_1758,P23,
stim_fb/ques.jpg,stim_fb/negf.jpg,stim_fb/posf.jpg,stim_02/b.jpg,stim_02/a.jpg,1,1,f,4,7,247,5,f,1,0.733137023028,02,02,60.019506102,PLT_learning_02,A,2014_Mrz_24_1758,P23,
stim_fb/ques.jpg,stim_fb/negf.jpg,stim_fb/posf.jpg,stim_02/d.jpg,stim_02/c.jpg,1,2,f,4,8,248,24,f,1,0.64980696085,02,02,60.019506102,PLT_learning_02,A,2014_Mrz_24_1758,P23,
stim_fb/ques.jpg,stim_fb/negf.jpg,stim_fb/posf.jpg,stim_02/d.jpg,stim_02/c.jpg,1,2,f,4,9,249,25,f,1,0.71644192149,02,02,60.019506102,PLT_learning_02,A,2014_Mrz_24_1758,P23,
stim_fb/ques.jpg,stim_fb/posf.jpg,stim_fb/negf.jpg,stim_02/d.jpg,stim_02/c.jpg,1,2,f,4,10,250,29,f,1,0.749808533772,02,02,60.019506102,PLT_learning_02,A,2014_Mrz_24_1758,P23,
stim_fb/ques.jpg,stim_fb/negf.jpg,stim_fb/posf.jpg,stim_02/a.jpg,stim_02/b.jpg,2,1,j,4,11,251,15,j,1,0.616513896886,02,02,60.019506102,PLT_learning_02,A,2014_Mrz_24_1758,P23,
stim_fb/ques.jpg,stim_fb/negf.jpg,stim_fb/posf.jpg,stim_02/e.jpg,stim_02/f.jpg,2,3,j,4,12,252,51,j,1,0.749801529313,02,02,60.019506102,PLT_learning_02,A,2014_Mrz_24_1758,P23,
stim_fb/ques.jpg,stim_fb/posf.jpg,stim_fb/negf.jpg,stim_02/f.jpg,stim_02/e.jpg,1,3,f,4,13,253,49,f,1,0.733162824337,02,02,60.019506102,PLT_learning_02,A,2014_Mrz_24_1758,P23,
stim_fb/ques.jpg,stim_fb/negf.jpg,stim_fb/posf.jpg,stim_02/c.jpg,stim_02/d.jpg,2,2,j,4,14,254,31,j,1,0.583156403336,02,02,60.019506102,PLT_learning_02,A,2014_Mrz_24_1758,P23,
stim_fb/ques.jpg,stim_fb/negf.jpg,stim_fb/posf.jpg,stim_02/d.jpg,stim_02/c.jpg,1,2,f,4,15,255,20,f,1,0.583177943023,02,02,60.019506102,PLT_learning_02,A,2014_Mrz_24_1758,P23,
stim_fb/ques.jpg,stim_fb/posf.jpg,stim_fb/negf.jpg,stim_02/f.jpg,stim_02/e.jpg,1,3,f,4,16,256,46,f,1,0.783114656282,02,02,60.019506102,PLT_learning_02,A,2014_Mrz_24_1758,P23,
stim_fb/ques.jpg,stim_fb/negf.jpg,stim_fb/posf.jpg,stim_02/b.jpg,stim_02/a.jpg,1,1,f,4,17,257,6,f,1,0.766442562086,02,02,60.019506102,PLT_learning_02,A,2014_Mrz_24_1758,P23,
stim_fb/ques.jpg,stim_fb/negf.jpg,stim_fb/posf.jpg,stim_02/e.jpg,stim_02/f.jpg,2,3,j,4,18,258,50,j,1,0.649827757687,02,02,60.019506102,PLT_learning_02,A,2014_Mrz_24_1758,P23,
stim_fb/ques.jpg,stim_fb/negf.jpg,stim_fb/posf.jpg,stim_02/f.jpg,stim_02/e.jpg,1,3,f,4,19,259,45,f,1,0.966391118865,02,02,60.019506102,PLT_learning_02,A,2014_Mrz_24_1758,P23,
stim_fb/ques.jpg,stim_fb/negf.jpg,stim_fb/posf.jpg,stim_02/f.jpg,stim_02/e.jpg,1,3,f,4,20,260,43,f,1,0.916380195635,02,02,60.019506102,PLT_learning_02,A,2014_Mrz_24_1758,P23,
stim_fb/ques.jpg,stim_fb/negf.jpg,stim_fb/posf.jpg,stim_02/d.jpg,stim_02/c.jpg,1,2,f,4,21,261,21,f,1,0.649842338029,02,02,60.019506102,PLT_learning_02,A,2014_Mrz_24_1758,P23,
stim_fb/ques.jpg,stim_fb/posf.jpg,stim_fb/negf.jpg,stim_02/c.jpg,stim_02/d.jpg,2,2,j,4,22,262,37,j,1,0.666494131623,02,02,60.019506102,PLT_learning_02,A,2014_Mrz_24_1758,P23,
stim_fb/ques.jpg,stim_fb/posf.jpg,stim_fb/negf.jpg,stim_02/d.jpg,stim_02/c.jpg,1,2,f,4,23,263,27,f,1,0.549873748318,02,02,60.019506102,PLT_learning_02,A,2014_Mrz_24_1758,P23,
stim_fb/ques.jpg,stim_fb/negf.jpg,stim_fb/posf.jpg,stim_02/d.jpg,stim_02/c.jpg,1,2,f,4,24,264,22,f,1,1.04970576763,02,02,60.019506102,PLT_learning_02,A,2014_Mrz_24_1758,P23,
stim_fb/ques.jpg,stim_fb/negf.jpg,stim_fb/posf.jpg,stim_02/e.jpg,stim_02/f.jpg,2,3,j,4,25,265,52,j,1,1.16637123931,02,02,60.019506102,PLT_learning_02,A,2014_Mrz_24_1758,P23,
stim_fb/ques.jpg,stim_fb/negf.jpg,stim_fb/posf.jpg,stim_02/a.jpg,stim_02/b.jpg,2,1,j,4,26,266,12,j,1,0.983060524359,02,02,60.019506102,PLT_learning_02,A,2014_Mrz_24_1758,P23,
stim_fb/ques.jpg,stim_fb/posf.jpg,stim_fb/negf.jpg,stim_02/f.jpg,stim_02/e.jpg,1,3,f,4,27,267,48,f,1,0.916421311118,02,02,60.019506102,PLT_learning_02,A,2014_Mrz_24_1758,P23,
stim_fb/ques.jpg,stim_fb/negf.jpg,stim_fb/posf.jpg,stim_02/a.jpg,stim_02/b.jpg,2,1,j,4,28,268,13,j,1,0.583137365888,02,02,60.019506102,PLT_learning_02,A,2014_Mrz_24_1758,P23,
stim_fb/ques.jpg,stim_fb/negf.jpg,stim_fb/posf.jpg,stim_02/b.jpg,stim_02/a.jpg,1,1,f,4,29,269,0,f,1,0.59984659664,02,02,60.019506102,PLT_learning_02,A,2014_Mrz_24_1758,P23,
stim_fb/ques.jpg,stim_fb/negf.jpg,stim_fb/posf.jpg,stim_02/c.jpg,stim_02/d.jpg,2,2,j,4,30,270,32,j,1,1.08301957128,02,02,60.019506102,PLT_learning_02,A,2014_Mrz_24_1758,P23,
stim_fb/ques.jpg,stim_fb/negf.jpg,stim_fb/posf.jpg,stim_02/a.jpg,stim_02/b.jpg,2,1,j,4,31,271,17,j,1,0.649865110787,02,02,60.019506102,PLT_learning_02,A,2014_Mrz_24_1758,P23,
stim_fb/ques.jpg,stim_fb/posf.jpg,stim_fb/negf.jpg,stim_02/e.jpg,stim_02/f.jpg,2,3,j,4,32,272,56,j,1,1.16632945617,02,02,60.019506102,PLT_learning_02,A,2014_Mrz_24_1758,P23,
stim_fb/ques.jpg,stim_fb/negf.jpg,stim_fb/posf.jpg,stim_02/c.jpg,stim_02/d.jpg,2,2,j,4,33,273,36,j,1,0.899754362748,02,02,60.019506102,PLT_learning_02,A,2014_Mrz_24_1758,P23,
stim_fb/ques.jpg,stim_fb/negf.jpg,stim_fb/posf.jpg,stim_02/a.jpg,stim_02/b.jpg,2,1,j,4,34,274,14,j,1,0.616408724745,02,02,60.019506102,PLT_learning_02,A,2014_Mrz_24_1758,P23,
stim_fb/ques.jpg,stim_fb/negf.jpg,stim_fb/posf.jpg,stim_02/a.jpg,stim_02/b.jpg,2,1,j,4,35,275,11,j,1,0.616532720807,02,02,60.019506102,PLT_learning_02,A,2014_Mrz_24_1758,P23,
stim_fb/ques.jpg,stim_fb/negf.jpg,stim_fb/posf.jpg,stim_02/d.jpg,stim_02/c.jpg,1,2,f,4,36,276,26,f,1,0.499892488024,02,02,60.019506102,PLT_learning_02,A,2014_Mrz_24_1758,P23,
stim_fb/ques.jpg,stim_fb/negf.jpg,stim_fb/posf.jpg,stim_02/a.jpg,stim_02/b.jpg,2,1,j,4,37,277,16,j,1,0.449910337516,02,02,60.019506102,PLT_learning_02,A,2014_Mrz_24_1758,P23,
stim_fb/ques.jpg,stim_fb/negf.jpg,stim_fb/posf.jpg,stim_02/b.jpg,stim_02/a.jpg,1,1,f,4,38,278,4,f,1,0.516569706997,02,02,60.019506102,PLT_learning_02,A,2014_Mrz_24_1758,P23,
stim_fb/ques.jpg,stim_fb/negf.jpg,stim_fb/posf.jpg,stim_02/c.jpg,stim_02/d.jpg,2,2,j,4,39,279,33,j,1,0.683142923739,02,02,60.019506102,PLT_learning_02,A,2014_Mrz_24_1758,P23,
stim_fb/ques.jpg,stim_fb/posf.jpg,stim_fb/negf.jpg,stim_02/b.jpg,stim_02/a.jpg,1,1,f,4,40,280,8,f,1,0.649824419364,02,02,60.019506102,PLT_learning_02,A,2014_Mrz_24_1758,P23,
stim_fb/ques.jpg,stim_fb/negf.jpg,stim_fb/posf.jpg,stim_02/f.jpg,stim_02/e.jpg,1,3,f,4,41,281,41,f,1,0.649774212223,02,02,60.019506102,PLT_learning_02,A,2014_Mrz_24_1758,P23,
stim_fb/ques.jpg,stim_fb/negf.jpg,stim_fb/posf.jpg,stim_02/e.jpg,stim_02/f.jpg,2,3,j,4,42,282,53,j,1,0.649840151578,02,02,60.019506102,PLT_learning_02,A,2014_Mrz_24_1758,P23,
stim_fb/ques.jpg,stim_fb/negf.jpg,stim_fb/posf.jpg,stim_02/b.jpg,stim_02/a.jpg,1,1,f,4,43,283,7,f,1,0.633188923392,02,02,60.019506102,PLT_learning_02,A,2014_Mrz_24_1758,P23,
stim_fb/ques.jpg,stim_fb/negf.jpg,stim_fb/posf.jpg,stim_02/f.jpg,stim_02/e.jpg,1,3,f,4,44,284,40,f,1,0.816452014649,02,02,60.019506102,PLT_learning_02,A,2014_Mrz_24_1758,P23,
stim_fb/ques.jpg,stim_fb/negf.jpg,stim_fb/posf.jpg,stim_02/a.jpg,stim_02/b.jpg,2,1,j,4,45,285,10,j,1,0.533174574626,02,02,60.019506102,PLT_learning_02,A,2014_Mrz_24_1758,P23,
stim_fb/ques.jpg,stim_fb/negf.jpg,stim_fb/posf.jpg,stim_02/b.jpg,stim_02/a.jpg,1,1,f,4,46,286,1,f,1,0.566527926858,02,02,60.019506102,PLT_learning_02,A,2014_Mrz_24_1758,P23,
stim_fb/ques.jpg,stim_fb/posf.jpg,stim_fb/negf.jpg,stim_02/d.jpg,stim_02/c.jpg,1,2,f,4,47,287,28,f,1,0.649836686942,02,02,60.019506102,PLT_learning_02,A,2014_Mrz_24_1758,P23,
stim_fb/ques.jpg,stim_fb/posf.jpg,stim_fb/negf.jpg,stim_02/e.jpg,stim_02/f.jpg,2,3,j,4,48,288,58,j,1,0.649854076288,02,02,60.019506102,PLT_learning_02,A,2014_Mrz_24_1758,P23,
stim_fb/ques.jpg,stim_fb/posf.jpg,stim_fb/negf.jpg,stim_02/a.jpg,stim_02/b.jpg,2,1,j,4,49,289,19,j,1,0.533203714258,02,02,60.019506102,PLT_learning_02,A,2014_Mrz_24_1758,P23,
stim_fb/ques.jpg,stim_fb/posf.jpg,stim_fb/negf.jpg,stim_02/a.jpg,stim_02/b.jpg,2,1,j,4,50,290,18,j,1,0.533208664598,02,02,60.019506102,PLT_learning_02,A,2014_Mrz_24_1758,P23,
stim_fb/ques.jpg,stim_fb/negf.jpg,stim_fb/posf.jpg,stim_02/c.jpg,stim_02/d.jpg,2,2,j,4,51,291,30,j,1,0.716489385795,02,02,60.019506102,PLT_learning_02,A,2014_Mrz_24_1758,P23,
stim_fb/ques.jpg,stim_fb/negf.jpg,stim_fb/posf.jpg,stim_02/e.jpg,stim_02/f.jpg,2,3,j,4,52,292,55,j,1,0.599862467199,02,02,60.019506102,PLT_learning_02,A,2014_Mrz_24_1758,P23,
stim_fb/ques.jpg,stim_fb/posf.jpg,stim_fb/negf.jpg,stim_02/c.jpg,stim_02/d.jpg,2,2,j,4,53,293,38,j,1,0.683181266308,02,02,60.019506102,PLT_learning_02,A,2014_Mrz_24_1758,P23,
stim_fb/ques.jpg,stim_fb/negf.jpg,stim_fb/posf.jpg,stim_02/f.jpg,stim_02/e.jpg,1,3,f,4,54,294,42,f,1,0.64983821776,02,02,60.019506102,PLT_learning_02,A,2014_Mrz_24_1758,P23,
stim_fb/ques.jpg,stim_fb/posf.jpg,stim_fb/negf.jpg,stim_02/e.jpg,stim_02/f.jpg,2,3,j,4,55,295,59,j,1,0.599841919986,02,02,60.019506102,PLT_learning_02,A,2014_Mrz_24_1758,P23,
stim_fb/ques.jpg,stim_fb/posf.jpg,stim_fb/negf.jpg,stim_02/f.jpg,stim_02/e.jpg,1,3,f,4,56,296,47,f,1,0.866422426898,02,02,60.019506102,PLT_learning_02,A,2014_Mrz_24_1758,P23,
stim_fb/ques.jpg,stim_fb/negf.jpg,stim_fb/posf.jpg,stim_02/b.jpg,stim_02/a.jpg,1,1,f,4,57,297,3,f,1,0.649831871942,02,02,60.019506102,PLT_learning_02,A,2014_Mrz_24_1758,P23,
stim_fb/ques.jpg,stim_fb/negf.jpg,stim_fb/posf.jpg,stim_02/e.jpg,stim_02/f.jpg,2,3,j,4,58,298,54,j,1,0.599853886815,02,02,60.019506102,PLT_learning_02,A,2014_Mrz_24_1758,P23,
stim_fb/ques.jpg,stim_fb/negf.jpg,stim_fb/posf.jpg,stim_02/b.jpg,stim_02/a.jpg,1,1,f,4,59,299,2,f,1,0.766499415793,02,02,60.019506102,PLT_learning_02,A,2014_Mrz_24_1758,P23,
stim_fb/ques.jpg,stim_fb/negf.jpg,stim_fb/posf.jpg,stim_02/c.jpg,stim_02/d.jpg,2,2,j,5,0,300,34,j,1,0.783133260651,02,02,60.019506102,PLT_learning_02,A,2014_Mrz_24_1758,P23,
stim_fb/ques.jpg,stim_fb/negf.jpg,stim_fb/posf.jpg,stim_02/a.jpg,stim_02/b.jpg,2,1,j,5,1,301,10,j,1,1.13301676829,02,02,60.019506102,PLT_learning_02,A,2014_Mrz_24_1758,P23,
stim_fb/ques.jpg,stim_fb/posf.jpg,stim_fb/negf.jpg,stim_02/f.jpg,stim_02/e.jpg,1,3,f,5,2,302,47,f,1,0.849784852744,02,02,60.019506102,PLT_learning_02,A,2014_Mrz_24_1758,P23,
stim_fb/ques.jpg,stim_fb/negf.jpg,stim_fb/posf.jpg,stim_02/d.jpg,stim_02/c.jpg,1,2,f,5,3,303,23,f,1,0.699832079459,02,02,60.019506102,PLT_learning_02,A,2014_Mrz_24_1758,P23,
stim_fb/ques.jpg,stim_fb/negf.jpg,stim_fb/posf.jpg,stim_02/f.jpg,stim_02/e.jpg,1,3,f,5,4,304,40,f,1,0.749800699246,02,02,60.019506102,PLT_learning_02,A,2014_Mrz_24_1758,P23,
stim_fb/ques.jpg,stim_fb/posf.jpg,stim_fb/negf.jpg,stim_02/c.jpg,stim_02/d.jpg,2,2,j,5,5,305,39,j,1,0.699828656929,02,02,60.019506102,PLT_learning_02,A,2014_Mrz_24_1758,P23,
stim_fb/ques.jpg,stim_fb/negf.jpg,stim_fb/posf.jpg,stim_02/b.jpg,stim_02/a.jpg,1,1,f,5,6,306,0,f,1,0.583160310074,02,02,60.019506102,PLT_learning_02,A,2014_Mrz_24_1758,P23,
stim_fb/ques.jpg,stim_fb/negf.jpg,stim_fb/posf.jpg,stim_02/b.jpg,stim_02/a.jpg,1,1,f,5,7,307,5,f,1,0.683144460567,02,02,60.019506102,PLT_learning_02,A,2014_Mrz_24_1758,P23,
stim_fb/ques.jpg,stim_fb/negf.jpg,stim_fb/posf.jpg,stim_02/a.jpg,stim_02/b.jpg,2,1,j,5,8,308,13,j,1,0.583185849729,02,02,60.019506102,PLT_learning_02,A,2014_Mrz_24_1758,P23,
stim_fb/ques.jpg,stim_fb/posf.jpg,stim_fb/negf.jpg,stim_02/f.jpg,stim_02/e.jpg,1,3,f,5,9,309,48,f,1,0.583156159726,02,02,60.019506102,PLT_learning_02,A,2014_Mrz_24_1758,P23,
stim_fb/ques.jpg,stim_fb/negf.jpg,stim_fb/posf.jpg,stim_02/c.jpg,stim_02/d.jpg,2,2,j,5,10,310,30,j,1,0.616508396179,02,02,60.019506102,PLT_learning_02,A,2014_Mrz_24_1758,P23,
stim_fb/ques.jpg,stim_fb/negf.jpg,stim_fb/posf.jpg,stim_02/e.jpg,stim_02/f.jpg,2,3,j,5,11,311,54,f,0,0.63317722423,02,02,60.019506102,PLT_learning_02,A,2014_Mrz_24_1758,P23,
stim_fb/ques.jpg,stim_fb/negf.jpg,stim_fb/posf.jpg,stim_02/d.jpg,stim_02/c.jpg,1,2,f,5,12,312,24,f,1,0.783081182846,02,02,60.019506102,PLT_learning_02,A,2014_Mrz_24_1758,P23,
stim_fb/ques.jpg,stim_fb/negf.jpg,stim_fb/posf.jpg,stim_02/d.jpg,stim_02/c.jpg,1,2,f,5,13,313,21,f,1,0.766442213215,02,02,60.019506102,PLT_learning_02,A,2014_Mrz_24_1758,P23,
stim_fb/ques.jpg,stim_fb/negf.jpg,stim_fb/posf.jpg,stim_02/b.jpg,stim_02/a.jpg,1,1,f,5,14,314,3,f,1,0.799789342935,02,02,60.019506102,PLT_learning_02,A,2014_Mrz_24_1758,P23,
stim_fb/ques.jpg,stim_fb/negf.jpg,stim_fb/posf.jpg,stim_02/f.jpg,stim_02/e.jpg,1,3,f,5,15,315,43,f,1,0.63318168134,02,02,60.019506102,PLT_learning_02,A,2014_Mrz_24_1758,P23,
stim_fb/ques.jpg,stim_fb/negf.jpg,stim_fb/posf.jpg,stim_02/e.jpg,stim_02/f.jpg,2,3,j,5,16,316,50,j,1,1.06636502282,02,02,60.019506102,PLT_learning_02,A,2014_Mrz_24_1758,P23,
stim_fb/ques.jpg,stim_fb/negf.jpg,stim_fb/posf.jpg,stim_02/c.jpg,stim_02/d.jpg,2,2,j,5,17,317,36,j,1,0.933015724691,02,02,60.019506102,PLT_learning_02,A,2014_Mrz_24_1758,P23,
stim_fb/ques.jpg,stim_fb/negf.jpg,stim_fb/posf.jpg,stim_02/a.jpg,stim_02/b.jpg,2,1,j,5,18,318,16,j,1,0.81644511846,02,02,60.019506102,PLT_learning_02,A,2014_Mrz_24_1758,P23,
stim_fb/ques.jpg,stim_fb/negf.jpg,stim_fb/posf.jpg,stim_02/a.jpg,stim_02/b.jpg,2,1,j,5,19,319,12,j,1,1.41631223224,02,02,60.019506102,PLT_learning_02,A,2014_Mrz_24_1758,P23,
stim_fb/ques.jpg,stim_fb/posf.jpg,stim_fb/negf.jpg,stim_02/c.jpg,stim_02/d.jpg,2,2,j,5,20,320,38,j,1,1.21625264171,02,02,60.019506102,PLT_learning_02,A,2014_Mrz_24_1758,P23,
stim_fb/ques.jpg,stim_fb/negf.jpg,stim_fb/posf.jpg,stim_02/a.jpg,stim_02/b.jpg,2,1,j,5,21,321,11,j,1,0.899748627453,02,02,60.019506102,PLT_learning_02,A,2014_Mrz_24_1758,P23,
stim_fb/ques.jpg,stim_fb/negf.jpg,stim_fb/posf.jpg,stim_02/b.jpg,stim_02/a.jpg,1,1,f,5,22,322,4,f,1,0.949686781303,02,02,60.019506102,PLT_learning_02,A,2014_Mrz_24_1758,P23,
stim_fb/ques.jpg,stim_fb/posf.jpg,stim_fb/negf.jpg,stim_02/e.jpg,stim_02/f.jpg,2,3,j,5,23,323,57,j,1,1.06634030421,02,02,60.019506102,PLT_learning_02,A,2014_Mrz_24_1758,P23,
stim_fb/ques.jpg,stim_fb/negf.jpg,stim_fb/posf.jpg,stim_02/e.jpg,stim_02/f.jpg,2,3,j,5,24,324,55,j,1,1.04972042616,02,02,60.019506102,PLT_learning_02,A,2014_Mrz_24_1758,P23,
stim_fb/ques.jpg,stim_fb/negf.jpg,stim_fb/posf.jpg,stim_02/b.jpg,stim_02/a.jpg,1,1,f,5,25,325,1,f,1,0.883106508973,02,02,60.019506102,PLT_learning_02,A,2014_Mrz_24_1758,P23,
stim_fb/ques.jpg,stim_fb/posf.jpg,stim_fb/negf.jpg,stim_02/a.jpg,stim_02/b.jpg,2,1,j,5,26,326,19,j,1,1.34960911572,02,02,60.019506102,PLT_learning_02,A,2014_Mrz_24_1758,P23,
stim_fb/ques.jpg,stim_fb/negf.jpg,stim_fb/posf.jpg,stim_02/f.jpg,stim_02/e.jpg,1,3,f,5,27,327,41,f,1,1.31630000677,02,02,60.019506102,PLT_learning_02,A,2014_Mrz_24_1758,P23,
stim_fb/ques.jpg,stim_fb/negf.jpg,stim_fb/posf.jpg,stim_02/c.jpg,stim_02/d.jpg,2,2,j,5,28,328,33,j,1,1.26628524297,02,02,60.019506102,PLT_learning_02,A,2014_Mrz_24_1758,P23,
stim_fb/ques.jpg,stim_fb/negf.jpg,stim_fb/posf.jpg,stim_02/a.jpg,stim_02/b.jpg,2,1,j,5,29,329,17,j,1,1.09966251682,02,02,60.019506102,PLT_learning_02,A,2014_Mrz_24_1758,P23,
stim_fb/ques.jpg,stim_fb/negf.jpg,stim_fb/posf.jpg,stim_02/c.jpg,stim_02/d.jpg,2,2,j,5,30,330,31,j,1,0.749771300969,02,02,60.019506102,PLT_learning_02,A,2014_Mrz_24_1758,P23,
stim_fb/ques.jpg,stim_fb/posf.jpg,stim_fb/negf.jpg,stim_02/e.jpg,stim_02/f.jpg,2,3,j,5,31,331,56,j,1,0.899767890467,02,02,60.019506102,PLT_learning_02,A,2014_Mrz_24_1758,P23,
stim_fb/ques.jpg,stim_fb/posf.jpg,stim_fb/negf.jpg,stim_02/d.jpg,stim_02/c.jpg,1,2,f,5,32,332,29,f,1,1.04971467884,02,02,60.019506102,PLT_learning_02,A,2014_Mrz_24_1758,P23,
stim_fb/ques.jpg,stim_fb/negf.jpg,stim_fb/posf.jpg,stim_02/e.jpg,stim_02/f.jpg,2,3,j,5,33,333,52,j,1,1.14970134059,02,02,60.019506102,PLT_learning_02,A,2014_Mrz_24_1758,P23,
stim_fb/ques.jpg,stim_fb/posf.jpg,stim_fb/negf.jpg,stim_02/e.jpg,stim_02/f.jpg,2,3,j,5,34,334,59,j,1,1.41622934263,02,02,60.019506102,PLT_learning_02,A,2014_Mrz_24_1758,P23,
stim_fb/ques.jpg,stim_fb/posf.jpg,stim_fb/negf.jpg,stim_02/c.jpg,stim_02/d.jpg,2,2,j,5,35,335,37,j,1,0.983066900248,02,02,60.019506102,PLT_learning_02,A,2014_Mrz_24_1758,P23,
stim_fb/ques.jpg,stim_fb/negf.jpg,stim_fb/posf.jpg,stim_02/b.jpg,stim_02/a.jpg,1,1,f,5,36,336,7,f,1,0.916430210298,02,02,60.019506102,PLT_learning_02,A,2014_Mrz_24_1758,P23,
stim_fb/ques.jpg,stim_fb/negf.jpg,stim_fb/posf.jpg,stim_02/b.jpg,stim_02/a.jpg,1,1,f,5,37,337,6,f,1,0.699886370778,02,02,60.019506102,PLT_learning_02,A,2014_Mrz_24_1758,P23,
stim_fb/ques.jpg,stim_fb/negf.jpg,stim_fb/posf.jpg,stim_02/e.jpg,stim_02/f.jpg,2,3,j,5,38,338,51,j,1,0.666460919841,02,02,60.019506102,PLT_learning_02,A,2014_Mrz_24_1758,P23,
stim_fb/ques.jpg,stim_fb/negf.jpg,stim_fb/posf.jpg,stim_02/b.jpg,stim_02/a.jpg,1,1,f,5,39,339,2,f,1,0.583201771416,02,02,60.019506102,PLT_learning_02,A,2014_Mrz_24_1758,P23,
stim_fb/ques.jpg,stim_fb/posf.jpg,stim_fb/negf.jpg,stim_02/a.jpg,stim_02/b.jpg,2,1,j,5,40,340,18,j,1,0.516557761217,02,02,60.019506102,PLT_learning_02,A,2014_Mrz_24_1758,P23,
stim_fb/ques.jpg,stim_fb/posf.jpg,stim_fb/negf.jpg,stim_02/f.jpg,stim_02/e.jpg,1,3,f,5,41,341,49,f,1,0.6664780746,02,02,60.019506102,PLT_learning_02,A,2014_Mrz_24_1758,P23,
stim_fb/ques.jpg,stim_fb/posf.jpg,stim_fb/negf.jpg,stim_02/d.jpg,stim_02/c.jpg,1,2,f,5,42,342,28,f,1,0.683159807821,02,02,60.019506102,PLT_learning_02,A,2014_Mrz_24_1758,P23,
stim_fb/ques.jpg,stim_fb/posf.jpg,stim_fb/negf.jpg,stim_02/d.jpg,stim_02/c.jpg,1,2,f,5,43,343,27,f,1,0.616535574922,02,02,60.019506102,PLT_learning_02,A,2014_Mrz_24_1758,P23,
stim_fb/ques.jpg,stim_fb/negf.jpg,stim_fb/posf.jpg,stim_02/f.jpg,stim_02/e.jpg,1,3,f,5,44,344,45,f,1,0.833135621539,02,02,60.019506102,PLT_learning_02,A,2014_Mrz_24_1758,P23,
stim_fb/ques.jpg,stim_fb/posf.jpg,stim_fb/negf.jpg,stim_02/b.jpg,stim_02/a.jpg,1,1,f,5,45,345,9,f,1,0.683151846981,02,02,60.019506102,PLT_learning_02,A,2014_Mrz_24_1758,P23,
stim_fb/ques.jpg,stim_fb/negf.jpg,stim_fb/posf.jpg,stim_02/d.jpg,stim_02/c.jpg,1,2,f,5,46,346,26,f,1,0.599861498784,02,02,60.019506102,PLT_learning_02,A,2014_Mrz_24_1758,P23,
stim_fb/ques.jpg,stim_fb/negf.jpg,stim_fb/posf.jpg,stim_02/e.jpg,stim_02/f.jpg,2,3,j,5,47,347,53,j,1,0.683157227388,02,02,60.019506102,PLT_learning_02,A,2014_Mrz_24_1758,P23,
stim_fb/ques.jpg,stim_fb/negf.jpg,stim_fb/posf.jpg,stim_02/f.jpg,stim_02/e.jpg,1,3,f,5,48,348,42,f,1,0.683163498019,02,02,60.019506102,PLT_learning_02,A,2014_Mrz_24_1758,P23,
stim_fb/ques.jpg,stim_fb/negf.jpg,stim_fb/posf.jpg,stim_02/a.jpg,stim_02/b.jpg,2,1,j,5,49,349,14,j,1,0.549807258591,02,02,60.019506102,PLT_learning_02,A,2014_Mrz_24_1758,P23,
stim_fb/ques.jpg,stim_fb/negf.jpg,stim_fb/posf.jpg,stim_02/c.jpg,stim_02/d.jpg,2,2,j,5,50,350,35,j,1,0.866445759057,02,02,60.019506102,PLT_learning_02,A,2014_Mrz_24_1758,P23,
stim_fb/ques.jpg,stim_fb/negf.jpg,stim_fb/posf.jpg,stim_02/d.jpg,stim_02/c.jpg,1,2,f,5,51,351,20,f,1,0.63315936572,02,02,60.019506102,PLT_learning_02,A,2014_Mrz_24_1758,P23,
stim_fb/ques.jpg,stim_fb/negf.jpg,stim_fb/posf.jpg,stim_02/f.jpg,stim_02/e.jpg,1,3,f,5,52,352,44,f,1,0.766459166472,02,02,60.019506102,PLT_learning_02,A,2014_Mrz_24_1758,P23,
stim_fb/ques.jpg,stim_fb/negf.jpg,stim_fb/posf.jpg,stim_02/a.jpg,stim_02/b.jpg,2,1,j,5,53,353,15,j,1,0.566524624628,02,02,60.019506102,PLT_learning_02,A,2014_Mrz_24_1758,P23,
stim_fb/ques.jpg,stim_fb/posf.jpg,stim_fb/negf.jpg,stim_02/e.jpg,stim_02/f.jpg,2,3,j,5,54,354,58,j,1,0.716472044569,02,02,60.019506102,PLT_learning_02,A,2014_Mrz_24_1758,P23,
stim_fb/ques.jpg,stim_fb/negf.jpg,stim_fb/posf.jpg,stim_02/d.jpg,stim_02/c.jpg,1,2,f,5,55,355,22,f,1,0.633167046864,02,02,60.019506102,PLT_learning_02,A,2014_Mrz_24_1758,P23,
stim_fb/ques.jpg,stim_fb/negf.jpg,stim_fb/posf.jpg,stim_02/c.jpg,stim_02/d.jpg,2,2,j,5,56,356,32,j,1,0.633163603281,02,02,60.019506102,PLT_learning_02,A,2014_Mrz_24_1758,P23,
stim_fb/ques.jpg,stim_fb/negf.jpg,stim_fb/posf.jpg,stim_02/d.jpg,stim_02/c.jpg,1,2,f,5,57,357,25,f,1,0.566478721215,02,02,60.019506102,PLT_learning_02,A,2014_Mrz_24_1758,P23,
stim_fb/ques.jpg,stim_fb/posf.jpg,stim_fb/negf.jpg,stim_02/f.jpg,stim_02/e.jpg,1,3,f,5,58,358,46,f,1,0.716489457973,02,02,60.019506102,PLT_learning_02,A,2014_Mrz_24_1758,P23,
stim_fb/ques.jpg,stim_fb/posf.jpg,stim_fb/negf.jpg,stim_02/b.jpg,stim_02/a.jpg,1,1,f,5,59,359,8,f,1,0.649697996258,02,02,60.019506102,PLT_learning_02,A,2014_Mrz_24_1758,P23,
