Fb3,Fb2,Fb1,Symbol2,Symbol1,PosCond,Pair,Correct,trials.thisRepN,trials.thisTrialN,trials.thisN,trials.thisIndex,Response.keys,Response.corr,Response.rt,Version,Session Number,frameRate,expName,StimCondition,date,Participant,
stim_fb/ques.jpg,stim_fb/posf.jpg,stim_fb/negf.jpg,stim_01/c.jpg,stim_01/d.jpg,2,2,j,0,0,0,37,f,0,0.933057838665,01,03,60.0223859254,PLT_learning_01,A,2014_Mrz_26_1627,P24,
stim_fb/ques.jpg,stim_fb/posf.jpg,stim_fb/negf.jpg,stim_01/a.jpg,stim_01/b.jpg,2,1,j,0,1,1,19,j,1,1.24962404794,01,03,60.0223859254,PLT_learning_01,A,2014_Mrz_26_1627,P24,
stim_fb/ques.jpg,stim_fb/negf.jpg,stim_fb/posf.jpg,stim_01/b.jpg,stim_01/a.jpg,1,1,f,0,2,2,6,j,0,1.23296447094,01,03,60.0223859254,PLT_learning_01,A,2014_Mrz_26_1627,P24,
stim_fb/ques.jpg,stim_fb/negf.jpg,stim_fb/posf.jpg,stim_01/a.jpg,stim_01/b.jpg,2,1,j,0,3,3,10,f,0,1.18301666303,01,03,60.0223859254,PLT_learning_01,A,2014_Mrz_26_1627,P24,
stim_fb/ques.jpg,stim_fb/negf.jpg,stim_fb/posf.jpg,stim_01/c.jpg,stim_01/d.jpg,2,2,j,0,4,4,33,f,0,1.18299332486,01,03,60.0223859254,PLT_learning_01,A,2014_Mrz_26_1627,P24,
stim_fb/ques.jpg,stim_fb/posf.jpg,stim_fb/negf.jpg,stim_01/c.jpg,stim_01/d.jpg,2,2,j,0,5,5,38,j,1,0.749847333478,01,03,60.0223859254,PLT_learning_01,A,2014_Mrz_26_1627,P24,
stim_fb/ques.jpg,stim_fb/negf.jpg,stim_fb/posf.jpg,stim_01/d.jpg,stim_01/c.jpg,1,2,f,0,6,6,20,f,1,0.71652720205,01,03,60.0223859254,PLT_learning_01,A,2014_Mrz_26_1627,P24,
stim_fb/ques.jpg,stim_fb/negf.jpg,stim_fb/posf.jpg,stim_01/e.jpg,stim_01/f.jpg,2,3,j,0,7,7,55,f,0,1.0663411824,01,03,60.0223859254,PLT_learning_01,A,2014_Mrz_26_1627,P24,
stim_fb/ques.jpg,stim_fb/negf.jpg,stim_fb/posf.jpg,stim_01/b.jpg,stim_01/a.jpg,1,1,f,0,8,8,0,f,1,1.19974859738,01,03,60.0223859254,PLT_learning_01,A,2014_Mrz_26_1627,P24,
stim_fb/ques.jpg,stim_fb/posf.jpg,stim_fb/negf.jpg,stim_01/f.jpg,stim_01/e.jpg,1,3,f,0,9,9,49,f,1,1.23300868715,01,03,60.0223859254,PLT_learning_01,A,2014_Mrz_26_1627,P24,
stim_fb/ques.jpg,stim_fb/negf.jpg,stim_fb/posf.jpg,stim_01/d.jpg,stim_01/c.jpg,1,2,f,0,10,10,22,f,1,0.899735201991,01,03,60.0223859254,PLT_learning_01,A,2014_Mrz_26_1627,P24,
stim_fb/ques.jpg,stim_fb/negf.jpg,stim_fb/posf.jpg,stim_01/f.jpg,stim_01/e.jpg,1,3,f,0,11,11,41,f,1,0.999700426313,01,03,60.0223859254,PLT_learning_01,A,2014_Mrz_26_1627,P24,
stim_fb/ques.jpg,stim_fb/posf.jpg,stim_fb/negf.jpg,stim_01/f.jpg,stim_01/e.jpg,1,3,f,0,12,12,46,f,1,0.83311407884,01,03,60.0223859254,PLT_learning_01,A,2014_Mrz_26_1627,P24,
stim_fb/ques.jpg,stim_fb/posf.jpg,stim_fb/negf.jpg,stim_01/d.jpg,stim_01/c.jpg,1,2,f,0,13,13,27,f,1,0.699777505433,01,03,60.0223859254,PLT_learning_01,A,2014_Mrz_26_1627,P24,
stim_fb/ques.jpg,stim_fb/negf.jpg,stim_fb/posf.jpg,stim_01/d.jpg,stim_01/c.jpg,1,2,f,0,14,14,24,f,1,0.516535493716,01,03,60.0223859254,PLT_learning_01,A,2014_Mrz_26_1627,P24,
stim_fb/ques.jpg,stim_fb/posf.jpg,stim_fb/negf.jpg,stim_01/e.jpg,stim_01/f.jpg,2,3,j,0,15,15,57,j,1,0.83313705611,01,03,60.0223859254,PLT_learning_01,A,2014_Mrz_26_1627,P24,
stim_fb/ques.jpg,stim_fb/negf.jpg,stim_fb/posf.jpg,stim_01/f.jpg,stim_01/e.jpg,1,3,f,0,16,16,43,f,1,0.833143732754,01,03,60.0223859254,PLT_learning_01,A,2014_Mrz_26_1627,P24,
stim_fb/ques.jpg,stim_fb/negf.jpg,stim_fb/posf.jpg,stim_01/b.jpg,stim_01/a.jpg,1,1,f,0,17,17,3,f,1,0.73313622905,01,03,60.0223859254,PLT_learning_01,A,2014_Mrz_26_1627,P24,
stim_fb/ques.jpg,stim_fb/posf.jpg,stim_fb/negf.jpg,stim_01/a.jpg,stim_01/b.jpg,2,1,j,0,18,18,18,j,1,0.549856656718,01,03,60.0223859254,PLT_learning_01,A,2014_Mrz_26_1627,P24,
stim_fb/ques.jpg,stim_fb/negf.jpg,stim_fb/posf.jpg,stim_01/c.jpg,stim_01/d.jpg,2,2,j,0,19,19,35,j,1,0.849835399735,01,03,60.0223859254,PLT_learning_01,A,2014_Mrz_26_1627,P24,
stim_fb/ques.jpg,stim_fb/posf.jpg,stim_fb/negf.jpg,stim_01/e.jpg,stim_01/f.jpg,2,3,j,0,20,20,56,j,1,0.749786497847,01,03,60.0223859254,PLT_learning_01,A,2014_Mrz_26_1627,P24,
stim_fb/ques.jpg,stim_fb/posf.jpg,stim_fb/negf.jpg,stim_01/e.jpg,stim_01/f.jpg,2,3,j,0,21,21,58,f,0,0.666464300266,01,03,60.0223859254,PLT_learning_01,A,2014_Mrz_26_1627,P24,
stim_fb/ques.jpg,stim_fb/negf.jpg,stim_fb/posf.jpg,stim_01/b.jpg,stim_01/a.jpg,1,1,f,0,22,22,5,f,1,0.833112560056,01,03,60.0223859254,PLT_learning_01,A,2014_Mrz_26_1627,P24,
stim_fb/ques.jpg,stim_fb/posf.jpg,stim_fb/negf.jpg,stim_01/b.jpg,stim_01/a.jpg,1,1,f,0,23,23,8,f,1,0.649829544138,01,03,60.0223859254,PLT_learning_01,A,2014_Mrz_26_1627,P24,
stim_fb/ques.jpg,stim_fb/posf.jpg,stim_fb/negf.jpg,stim_01/f.jpg,stim_01/e.jpg,1,3,f,0,24,24,47,f,1,0.749775998676,01,03,60.0223859254,PLT_learning_01,A,2014_Mrz_26_1627,P24,
stim_fb/ques.jpg,stim_fb/negf.jpg,stim_fb/posf.jpg,stim_01/a.jpg,stim_01/b.jpg,2,1,j,0,25,25,12,j,1,0.799782970054,01,03,60.0223859254,PLT_learning_01,A,2014_Mrz_26_1627,P24,
stim_fb/ques.jpg,stim_fb/negf.jpg,stim_fb/posf.jpg,stim_01/b.jpg,stim_01/a.jpg,1,1,f,0,26,26,7,f,1,0.666494781242,01,03,60.0223859254,PLT_learning_01,A,2014_Mrz_26_1627,P24,
stim_fb/ques.jpg,stim_fb/negf.jpg,stim_fb/posf.jpg,stim_01/c.jpg,stim_01/d.jpg,2,2,j,0,27,27,31,j,1,0.89974971316,01,03,60.0223859254,PLT_learning_01,A,2014_Mrz_26_1627,P24,
stim_fb/ques.jpg,stim_fb/negf.jpg,stim_fb/posf.jpg,stim_01/b.jpg,stim_01/a.jpg,1,1,f,0,28,28,2,f,1,0.683118839708,01,03,60.0223859254,PLT_learning_01,A,2014_Mrz_26_1627,P24,
stim_fb/ques.jpg,stim_fb/posf.jpg,stim_fb/negf.jpg,stim_01/c.jpg,stim_01/d.jpg,2,2,j,0,29,29,39,j,1,0.649822091564,01,03,60.0223859254,PLT_learning_01,A,2014_Mrz_26_1627,P24,
stim_fb/ques.jpg,stim_fb/posf.jpg,stim_fb/negf.jpg,stim_01/e.jpg,stim_01/f.jpg,2,3,j,0,30,30,59,f,0,0.999681999383,01,03,60.0223859254,PLT_learning_01,A,2014_Mrz_26_1627,P24,
stim_fb/ques.jpg,stim_fb/negf.jpg,stim_fb/posf.jpg,stim_01/a.jpg,stim_01/b.jpg,2,1,j,0,31,31,11,j,1,0.83323434561,01,03,60.0223859254,PLT_learning_01,A,2014_Mrz_26_1627,P24,
stim_fb/ques.jpg,stim_fb/negf.jpg,stim_fb/posf.jpg,stim_01/a.jpg,stim_01/b.jpg,2,1,j,0,32,32,16,j,1,0.733103251856,01,03,60.0223859254,PLT_learning_01,A,2014_Mrz_26_1627,P24,
stim_fb/ques.jpg,stim_fb/negf.jpg,stim_fb/posf.jpg,stim_01/f.jpg,stim_01/e.jpg,1,3,f,0,33,33,44,j,0,0.816450766535,01,03,60.0223859254,PLT_learning_01,A,2014_Mrz_26_1627,P24,
stim_fb/ques.jpg,stim_fb/negf.jpg,stim_fb/posf.jpg,stim_01/c.jpg,stim_01/d.jpg,2,2,j,0,34,34,32,j,1,0.683077101676,01,03,60.0223859254,PLT_learning_01,A,2014_Mrz_26_1627,P24,
stim_fb/ques.jpg,stim_fb/negf.jpg,stim_fb/posf.jpg,stim_01/a.jpg,stim_01/b.jpg,2,1,j,0,35,35,17,j,1,0.749841862842,01,03,60.0223859254,PLT_learning_01,A,2014_Mrz_26_1627,P24,
stim_fb/ques.jpg,stim_fb/negf.jpg,stim_fb/posf.jpg,stim_01/d.jpg,stim_01/c.jpg,1,2,f,0,36,36,25,f,1,0.649819014896,01,03,60.0223859254,PLT_learning_01,A,2014_Mrz_26_1627,P24,
stim_fb/ques.jpg,stim_fb/posf.jpg,stim_fb/negf.jpg,stim_01/d.jpg,stim_01/c.jpg,1,2,f,0,37,37,29,f,1,0.533199242109,01,03,60.0223859254,PLT_learning_01,A,2014_Mrz_26_1627,P24,
stim_fb/ques.jpg,stim_fb/negf.jpg,stim_fb/posf.jpg,stim_01/b.jpg,stim_01/a.jpg,1,1,f,0,38,38,4,f,1,0.666484579815,01,03,60.0223859254,PLT_learning_01,A,2014_Mrz_26_1627,P24,
stim_fb/ques.jpg,stim_fb/negf.jpg,stim_fb/posf.jpg,stim_01/d.jpg,stim_01/c.jpg,1,2,f,0,39,39,23,f,1,0.499903408243,01,03,60.0223859254,PLT_learning_01,A,2014_Mrz_26_1627,P24,
stim_fb/ques.jpg,stim_fb/negf.jpg,stim_fb/posf.jpg,stim_01/a.jpg,stim_01/b.jpg,2,1,j,0,40,40,13,j,1,0.599841441795,01,03,60.0223859254,PLT_learning_01,A,2014_Mrz_26_1627,P24,
stim_fb/ques.jpg,stim_fb/negf.jpg,stim_fb/posf.jpg,stim_01/c.jpg,stim_01/d.jpg,2,2,j,0,41,41,36,j,1,1.08300737288,01,03,60.0223859254,PLT_learning_01,A,2014_Mrz_26_1627,P24,
stim_fb/ques.jpg,stim_fb/negf.jpg,stim_fb/posf.jpg,stim_01/e.jpg,stim_01/f.jpg,2,3,j,0,42,42,52,f,0,0.866451352998,01,03,60.0223859254,PLT_learning_01,A,2014_Mrz_26_1627,P24,
stim_fb/ques.jpg,stim_fb/negf.jpg,stim_fb/posf.jpg,stim_01/a.jpg,stim_01/b.jpg,2,1,j,0,43,43,15,None,0,,01,03,60.0223859254,PLT_learning_01,A,2014_Mrz_26_1627,P24,
stim_fb/ques.jpg,stim_fb/negf.jpg,stim_fb/posf.jpg,stim_01/c.jpg,stim_01/d.jpg,2,2,j,0,44,44,34,j,1,0.633188538432,01,03,60.0223859254,PLT_learning_01,A,2014_Mrz_26_1627,P24,
stim_fb/ques.jpg,stim_fb/posf.jpg,stim_fb/negf.jpg,stim_01/f.jpg,stim_01/e.jpg,1,3,f,0,45,45,48,j,0,0.766447734983,01,03,60.0223859254,PLT_learning_01,A,2014_Mrz_26_1627,P24,
stim_fb/ques.jpg,stim_fb/negf.jpg,stim_fb/posf.jpg,stim_01/e.jpg,stim_01/f.jpg,2,3,j,0,46,46,51,f,0,0.64983035015,01,03,60.0223859254,PLT_learning_01,A,2014_Mrz_26_1627,P24,
stim_fb/ques.jpg,stim_fb/negf.jpg,stim_fb/posf.jpg,stim_01/e.jpg,stim_01/f.jpg,2,3,j,0,47,47,54,f,0,0.616508979634,01,03,60.0223859254,PLT_learning_01,A,2014_Mrz_26_1627,P24,
stim_fb/ques.jpg,stim_fb/negf.jpg,stim_fb/posf.jpg,stim_01/c.jpg,stim_01/d.jpg,2,2,j,0,48,48,30,j,1,0.583240883901,01,03,60.0223859254,PLT_learning_01,A,2014_Mrz_26_1627,P24,
stim_fb/ques.jpg,stim_fb/negf.jpg,stim_fb/posf.jpg,stim_01/f.jpg,stim_01/e.jpg,1,3,f,0,49,49,40,f,1,1.04968045654,01,03,60.0223859254,PLT_learning_01,A,2014_Mrz_26_1627,P24,
stim_fb/ques.jpg,stim_fb/posf.jpg,stim_fb/negf.jpg,stim_01/d.jpg,stim_01/c.jpg,1,2,f,0,50,50,28,f,1,0.683422323142,01,03,60.0223859254,PLT_learning_01,A,2014_Mrz_26_1627,P24,
stim_fb/ques.jpg,stim_fb/negf.jpg,stim_fb/posf.jpg,stim_01/f.jpg,stim_01/e.jpg,1,3,f,0,51,51,42,f,1,0.733141949309,01,03,60.0223859254,PLT_learning_01,A,2014_Mrz_26_1627,P24,
stim_fb/ques.jpg,stim_fb/negf.jpg,stim_fb/posf.jpg,stim_01/f.jpg,stim_01/e.jpg,1,3,f,0,52,52,45,f,1,0.616502937573,01,03,60.0223859254,PLT_learning_01,A,2014_Mrz_26_1627,P24,
stim_fb/ques.jpg,stim_fb/negf.jpg,stim_fb/posf.jpg,stim_01/e.jpg,stim_01/f.jpg,2,3,j,0,53,53,50,j,1,0.749773845309,01,03,60.0223859254,PLT_learning_01,A,2014_Mrz_26_1627,P24,
stim_fb/ques.jpg,stim_fb/negf.jpg,stim_fb/posf.jpg,stim_01/d.jpg,stim_01/c.jpg,1,2,f,0,54,54,21,f,1,0.666469289707,01,03,60.0223859254,PLT_learning_01,A,2014_Mrz_26_1627,P24,
stim_fb/ques.jpg,stim_fb/posf.jpg,stim_fb/negf.jpg,stim_01/b.jpg,stim_01/a.jpg,1,1,f,0,55,55,9,f,1,0.516559385265,01,03,60.0223859254,PLT_learning_01,A,2014_Mrz_26_1627,P24,
stim_fb/ques.jpg,stim_fb/negf.jpg,stim_fb/posf.jpg,stim_01/a.jpg,stim_01/b.jpg,2,1,j,0,56,56,14,j,1,0.649816040481,01,03,60.0223859254,PLT_learning_01,A,2014_Mrz_26_1627,P24,
stim_fb/ques.jpg,stim_fb/negf.jpg,stim_fb/posf.jpg,stim_01/e.jpg,stim_01/f.jpg,2,3,j,0,57,57,53,j,1,0.749855168007,01,03,60.0223859254,PLT_learning_01,A,2014_Mrz_26_1627,P24,
stim_fb/ques.jpg,stim_fb/negf.jpg,stim_fb/posf.jpg,stim_01/d.jpg,stim_01/c.jpg,1,2,f,0,58,58,26,f,1,0.616497578216,01,03,60.0223859254,PLT_learning_01,A,2014_Mrz_26_1627,P24,
stim_fb/ques.jpg,stim_fb/negf.jpg,stim_fb/posf.jpg,stim_01/b.jpg,stim_01/a.jpg,1,1,f,0,59,59,1,f,1,0.599871369388,01,03,60.0223859254,PLT_learning_01,A,2014_Mrz_26_1627,P24,
stim_fb/ques.jpg,stim_fb/negf.jpg,stim_fb/posf.jpg,stim_01/d.jpg,stim_01/c.jpg,1,2,f,1,0,60,25,f,1,0.583175702435,01,03,60.0223859254,PLT_learning_01,A,2014_Mrz_26_1627,P24,
stim_fb/ques.jpg,stim_fb/posf.jpg,stim_fb/negf.jpg,stim_01/b.jpg,stim_01/a.jpg,1,1,f,1,1,61,9,f,1,0.449867122803,01,03,60.0223859254,PLT_learning_01,A,2014_Mrz_26_1627,P24,
stim_fb/ques.jpg,stim_fb/posf.jpg,stim_fb/negf.jpg,stim_01/e.jpg,stim_01/f.jpg,2,3,j,1,2,62,59,j,1,0.533199569931,01,03,60.0223859254,PLT_learning_01,A,2014_Mrz_26_1627,P24,
stim_fb/ques.jpg,stim_fb/posf.jpg,stim_fb/negf.jpg,stim_01/f.jpg,stim_01/e.jpg,1,3,f,1,3,63,49,f,1,0.583166048375,01,03,60.0223859254,PLT_learning_01,A,2014_Mrz_26_1627,P24,
stim_fb/ques.jpg,stim_fb/negf.jpg,stim_fb/posf.jpg,stim_01/b.jpg,stim_01/a.jpg,1,1,f,1,4,64,6,f,1,0.799780479847,01,03,60.0223859254,PLT_learning_01,A,2014_Mrz_26_1627,P24,
stim_fb/ques.jpg,stim_fb/negf.jpg,stim_fb/posf.jpg,stim_01/e.jpg,stim_01/f.jpg,2,3,j,1,5,65,54,j,1,0.716467969414,01,03,60.0223859254,PLT_learning_01,A,2014_Mrz_26_1627,P24,
stim_fb/ques.jpg,stim_fb/posf.jpg,stim_fb/negf.jpg,stim_01/a.jpg,stim_01/b.jpg,2,1,j,1,6,66,19,j,1,0.916426059954,01,03,60.0223859254,PLT_learning_01,A,2014_Mrz_26_1627,P24,
stim_fb/ques.jpg,stim_fb/posf.jpg,stim_fb/negf.jpg,stim_01/e.jpg,stim_01/f.jpg,2,3,j,1,7,67,58,j,1,0.899721878781,01,03,60.0223859254,PLT_learning_01,A,2014_Mrz_26_1627,P24,
stim_fb/ques.jpg,stim_fb/negf.jpg,stim_fb/posf.jpg,stim_01/a.jpg,stim_01/b.jpg,2,1,j,1,8,68,14,j,1,1.06640416839,01,03,60.0223859254,PLT_learning_01,A,2014_Mrz_26_1627,P24,
stim_fb/ques.jpg,stim_fb/negf.jpg,stim_fb/posf.jpg,stim_01/d.jpg,stim_01/c.jpg,1,2,f,1,9,69,20,f,1,0.583212225472,01,03,60.0223859254,PLT_learning_01,A,2014_Mrz_26_1627,P24,
stim_fb/ques.jpg,stim_fb/negf.jpg,stim_fb/posf.jpg,stim_01/b.jpg,stim_01/a.jpg,1,1,f,1,10,70,1,f,1,0.699790876759,01,03,60.0223859254,PLT_learning_01,A,2014_Mrz_26_1627,P24,
stim_fb/ques.jpg,stim_fb/negf.jpg,stim_fb/posf.jpg,stim_01/a.jpg,stim_01/b.jpg,2,1,j,1,11,71,10,j,1,0.883098051894,01,03,60.0223859254,PLT_learning_01,A,2014_Mrz_26_1627,P24,
stim_fb/ques.jpg,stim_fb/negf.jpg,stim_fb/posf.jpg,stim_01/e.jpg,stim_01/f.jpg,2,3,j,1,12,72,52,j,1,0.883106394689,01,03,60.0223859254,PLT_learning_01,A,2014_Mrz_26_1627,P24,
stim_fb/ques.jpg,stim_fb/negf.jpg,stim_fb/posf.jpg,stim_01/b.jpg,stim_01/a.jpg,1,1,f,1,13,73,3,f,1,0.899761252924,01,03,60.0223859254,PLT_learning_01,A,2014_Mrz_26_1627,P24,
stim_fb/ques.jpg,stim_fb/negf.jpg,stim_fb/posf.jpg,stim_01/e.jpg,stim_01/f.jpg,2,3,j,1,14,74,55,j,1,1.04971741867,01,03,60.0223859254,PLT_learning_01,A,2014_Mrz_26_1627,P24,
stim_fb/ques.jpg,stim_fb/negf.jpg,stim_fb/posf.jpg,stim_01/d.jpg,stim_01/c.jpg,1,2,f,1,15,75,24,f,1,0.566522293819,01,03,60.0223859254,PLT_learning_01,A,2014_Mrz_26_1627,P24,
stim_fb/ques.jpg,stim_fb/negf.jpg,stim_fb/posf.jpg,stim_01/f.jpg,stim_01/e.jpg,1,3,f,1,16,76,42,f,1,0.866432008781,01,03,60.0223859254,PLT_learning_01,A,2014_Mrz_26_1627,P24,
stim_fb/ques.jpg,stim_fb/negf.jpg,stim_fb/posf.jpg,stim_01/c.jpg,stim_01/d.jpg,2,2,j,1,17,77,30,j,1,0.733119167522,01,03,60.0223859254,PLT_learning_01,A,2014_Mrz_26_1627,P24,
stim_fb/ques.jpg,stim_fb/negf.jpg,stim_fb/posf.jpg,stim_01/a.jpg,stim_01/b.jpg,2,1,j,1,18,78,13,j,1,0.666482853514,01,03,60.0223859254,PLT_learning_01,A,2014_Mrz_26_1627,P24,
stim_fb/ques.jpg,stim_fb/negf.jpg,stim_fb/posf.jpg,stim_01/f.jpg,stim_01/e.jpg,1,3,f,1,19,79,41,f,1,0.94973709972,01,03,60.0223859254,PLT_learning_01,A,2014_Mrz_26_1627,P24,
stim_fb/ques.jpg,stim_fb/negf.jpg,stim_fb/posf.jpg,stim_01/a.jpg,stim_01/b.jpg,2,1,j,1,20,80,17,j,1,0.699822768249,01,03,60.0223859254,PLT_learning_01,A,2014_Mrz_26_1627,P24,
stim_fb/ques.jpg,stim_fb/negf.jpg,stim_fb/posf.jpg,stim_01/c.jpg,stim_01/d.jpg,2,2,j,1,21,81,31,j,1,0.6165266998,01,03,60.0223859254,PLT_learning_01,A,2014_Mrz_26_1627,P24,
stim_fb/ques.jpg,stim_fb/negf.jpg,stim_fb/posf.jpg,stim_01/d.jpg,stim_01/c.jpg,1,2,f,1,22,82,22,f,1,0.466564567185,01,03,60.0223859254,PLT_learning_01,A,2014_Mrz_26_1627,P24,
stim_fb/ques.jpg,stim_fb/negf.jpg,stim_fb/posf.jpg,stim_01/b.jpg,stim_01/a.jpg,1,1,f,1,23,83,0,f,1,0.816451536455,01,03,60.0223859254,PLT_learning_01,A,2014_Mrz_26_1627,P24,
stim_fb/ques.jpg,stim_fb/posf.jpg,stim_fb/negf.jpg,stim_01/c.jpg,stim_01/d.jpg,2,2,j,1,24,84,37,j,1,0.866472032543,01,03,60.0223859254,PLT_learning_01,A,2014_Mrz_26_1627,P24,
stim_fb/ques.jpg,stim_fb/negf.jpg,stim_fb/posf.jpg,stim_01/d.jpg,stim_01/c.jpg,1,2,f,1,25,85,23,f,1,0.699812807423,01,03,60.0223859254,PLT_learning_01,A,2014_Mrz_26_1627,P24,
stim_fb/ques.jpg,stim_fb/negf.jpg,stim_fb/posf.jpg,stim_01/a.jpg,stim_01/b.jpg,2,1,j,1,26,86,12,j,1,0.683156854459,01,03,60.0223859254,PLT_learning_01,A,2014_Mrz_26_1627,P24,
stim_fb/ques.jpg,stim_fb/negf.jpg,stim_fb/posf.jpg,stim_01/f.jpg,stim_01/e.jpg,1,3,f,1,27,87,45,f,1,0.499909098427,01,03,60.0223859254,PLT_learning_01,A,2014_Mrz_26_1627,P24,
stim_fb/ques.jpg,stim_fb/posf.jpg,stim_fb/negf.jpg,stim_01/b.jpg,stim_01/a.jpg,1,1,f,1,28,88,8,f,1,0.599839017752,01,03,60.0223859254,PLT_learning_01,A,2014_Mrz_26_1627,P24,
stim_fb/ques.jpg,stim_fb/negf.jpg,stim_fb/posf.jpg,stim_01/b.jpg,stim_01/a.jpg,1,1,f,1,29,89,2,f,1,0.849808714222,01,03,60.0223859254,PLT_learning_01,A,2014_Mrz_26_1627,P24,
stim_fb/ques.jpg,stim_fb/negf.jpg,stim_fb/posf.jpg,stim_01/d.jpg,stim_01/c.jpg,1,2,f,1,30,90,21,f,1,0.516556077022,01,03,60.0223859254,PLT_learning_01,A,2014_Mrz_26_1627,P24,
stim_fb/ques.jpg,stim_fb/negf.jpg,stim_fb/posf.jpg,stim_01/a.jpg,stim_01/b.jpg,2,1,j,1,31,91,15,j,1,0.899754753726,01,03,60.0223859254,PLT_learning_01,A,2014_Mrz_26_1627,P24,
stim_fb/ques.jpg,stim_fb/posf.jpg,stim_fb/negf.jpg,stim_01/f.jpg,stim_01/e.jpg,1,3,f,1,32,92,47,f,1,0.766470273156,01,03,60.0223859254,PLT_learning_01,A,2014_Mrz_26_1627,P24,
stim_fb/ques.jpg,stim_fb/negf.jpg,stim_fb/posf.jpg,stim_01/f.jpg,stim_01/e.jpg,1,3,f,1,33,93,40,f,1,0.649847228218,01,03,60.0223859254,PLT_learning_01,A,2014_Mrz_26_1627,P24,
stim_fb/ques.jpg,stim_fb/posf.jpg,stim_fb/negf.jpg,stim_01/e.jpg,stim_01/f.jpg,2,3,j,1,34,94,56,j,1,0.699821490063,01,03,60.0223859254,PLT_learning_01,A,2014_Mrz_26_1627,P24,
stim_fb/ques.jpg,stim_fb/negf.jpg,stim_fb/posf.jpg,stim_01/b.jpg,stim_01/a.jpg,1,1,f,1,35,95,5,f,1,0.633221473523,01,03,60.0223859254,PLT_learning_01,A,2014_Mrz_26_1627,P24,
stim_fb/ques.jpg,stim_fb/negf.jpg,stim_fb/posf.jpg,stim_01/c.jpg,stim_01/d.jpg,2,2,j,1,36,96,34,j,1,0.783123934405,01,03,60.0223859254,PLT_learning_01,A,2014_Mrz_26_1627,P24,
stim_fb/ques.jpg,stim_fb/negf.jpg,stim_fb/posf.jpg,stim_01/c.jpg,stim_01/d.jpg,2,2,j,1,37,97,33,j,1,0.949744904174,01,03,60.0223859254,PLT_learning_01,A,2014_Mrz_26_1627,P24,
stim_fb/ques.jpg,stim_fb/negf.jpg,stim_fb/posf.jpg,stim_01/c.jpg,stim_01/d.jpg,2,2,j,1,38,98,32,j,1,0.499896602279,01,03,60.0223859254,PLT_learning_01,A,2014_Mrz_26_1627,P24,
stim_fb/ques.jpg,stim_fb/posf.jpg,stim_fb/negf.jpg,stim_01/a.jpg,stim_01/b.jpg,2,1,j,1,39,99,18,j,1,0.58315167555,01,03,60.0223859254,PLT_learning_01,A,2014_Mrz_26_1627,P24,
stim_fb/ques.jpg,stim_fb/negf.jpg,stim_fb/posf.jpg,stim_01/f.jpg,stim_01/e.jpg,1,3,f,1,40,100,44,f,1,0.916396628596,01,03,60.0223859254,PLT_learning_01,A,2014_Mrz_26_1627,P24,
stim_fb/ques.jpg,stim_fb/negf.jpg,stim_fb/posf.jpg,stim_01/d.jpg,stim_01/c.jpg,1,2,f,1,41,101,26,f,1,0.54986191382,01,03,60.0223859254,PLT_learning_01,A,2014_Mrz_26_1627,P24,
stim_fb/ques.jpg,stim_fb/negf.jpg,stim_fb/posf.jpg,stim_01/e.jpg,stim_01/f.jpg,2,3,j,1,42,102,51,j,1,0.683177900919,01,03,60.0223859254,PLT_learning_01,A,2014_Mrz_26_1627,P24,
stim_fb/ques.jpg,stim_fb/negf.jpg,stim_fb/posf.jpg,stim_01/b.jpg,stim_01/a.jpg,1,1,f,1,43,103,7,f,1,0.616508597679,01,03,60.0223859254,PLT_learning_01,A,2014_Mrz_26_1627,P24,
stim_fb/ques.jpg,stim_fb/posf.jpg,stim_fb/negf.jpg,stim_01/d.jpg,stim_01/c.jpg,1,2,f,1,44,104,28,f,1,0.533224556206,01,03,60.0223859254,PLT_learning_01,A,2014_Mrz_26_1627,P24,
stim_fb/ques.jpg,stim_fb/negf.jpg,stim_fb/posf.jpg,stim_01/a.jpg,stim_01/b.jpg,2,1,j,1,45,105,11,j,1,0.883086563259,01,03,60.0223859254,PLT_learning_01,A,2014_Mrz_26_1627,P24,
stim_fb/ques.jpg,stim_fb/posf.jpg,stim_fb/negf.jpg,stim_01/d.jpg,stim_01/c.jpg,1,2,f,1,46,106,29,f,1,0.449884187336,01,03,60.0223859254,PLT_learning_01,A,2014_Mrz_26_1627,P24,
stim_fb/ques.jpg,stim_fb/negf.jpg,stim_fb/posf.jpg,stim_01/c.jpg,stim_01/d.jpg,2,2,j,1,47,107,36,j,1,0.533218487079,01,03,60.0223859254,PLT_learning_01,A,2014_Mrz_26_1627,P24,
stim_fb/ques.jpg,stim_fb/posf.jpg,stim_fb/negf.jpg,stim_01/e.jpg,stim_01/f.jpg,2,3,j,1,48,108,57,j,1,0.549738627531,01,03,60.0223859254,PLT_learning_01,A,2014_Mrz_26_1627,P24,
stim_fb/ques.jpg,stim_fb/posf.jpg,stim_fb/negf.jpg,stim_01/c.jpg,stim_01/d.jpg,2,2,j,1,49,109,39,j,1,1.31627863851,01,03,60.0223859254,PLT_learning_01,A,2014_Mrz_26_1627,P24,
stim_fb/ques.jpg,stim_fb/negf.jpg,stim_fb/posf.jpg,stim_01/a.jpg,stim_01/b.jpg,2,1,j,1,50,110,16,j,1,0.583079582859,01,03,60.0223859254,PLT_learning_01,A,2014_Mrz_26_1627,P24,
stim_fb/ques.jpg,stim_fb/negf.jpg,stim_fb/posf.jpg,stim_01/c.jpg,stim_01/d.jpg,2,2,j,1,51,111,35,j,1,0.499873748318,01,03,60.0223859254,PLT_learning_01,A,2014_Mrz_26_1627,P24,
stim_fb/ques.jpg,stim_fb/posf.jpg,stim_fb/negf.jpg,stim_01/f.jpg,stim_01/e.jpg,1,3,f,1,52,112,48,f,1,0.583225903563,01,03,60.0223859254,PLT_learning_01,A,2014_Mrz_26_1627,P24,
stim_fb/ques.jpg,stim_fb/negf.jpg,stim_fb/posf.jpg,stim_01/b.jpg,stim_01/a.jpg,1,1,f,1,53,113,4,f,1,0.749814996881,01,03,60.0223859254,PLT_learning_01,A,2014_Mrz_26_1627,P24,
stim_fb/ques.jpg,stim_fb/negf.jpg,stim_fb/posf.jpg,stim_01/f.jpg,stim_01/e.jpg,1,3,f,1,54,114,43,f,1,1.04969016473,01,03,60.0223859254,PLT_learning_01,A,2014_Mrz_26_1627,P24,
stim_fb/ques.jpg,stim_fb/posf.jpg,stim_fb/negf.jpg,stim_01/d.jpg,stim_01/c.jpg,1,2,f,1,55,115,27,f,1,0.583192147427,01,03,60.0223859254,PLT_learning_01,A,2014_Mrz_26_1627,P24,
stim_fb/ques.jpg,stim_fb/posf.jpg,stim_fb/negf.jpg,stim_01/f.jpg,stim_01/e.jpg,1,3,f,1,56,116,46,f,1,0.599852581559,01,03,60.0223859254,PLT_learning_01,A,2014_Mrz_26_1627,P24,
stim_fb/ques.jpg,stim_fb/negf.jpg,stim_fb/posf.jpg,stim_01/e.jpg,stim_01/f.jpg,2,3,j,1,57,117,53,j,1,0.6498209036,01,03,60.0223859254,PLT_learning_01,A,2014_Mrz_26_1627,P24,
stim_fb/ques.jpg,stim_fb/negf.jpg,stim_fb/posf.jpg,stim_01/e.jpg,stim_01/f.jpg,2,3,j,1,58,118,50,j,1,0.583188592569,01,03,60.0223859254,PLT_learning_01,A,2014_Mrz_26_1627,P24,
stim_fb/ques.jpg,stim_fb/posf.jpg,stim_fb/negf.jpg,stim_01/c.jpg,stim_01/d.jpg,2,2,j,1,59,119,38,j,1,0.633190303834,01,03,60.0223859254,PLT_learning_01,A,2014_Mrz_26_1627,P24,
stim_fb/ques.jpg,stim_fb/negf.jpg,stim_fb/posf.jpg,stim_01/e.jpg,stim_01/f.jpg,2,3,j,2,0,120,53,j,1,0.733118217158,01,03,60.0223859254,PLT_learning_01,A,2014_Mrz_26_1627,P24,
stim_fb/ques.jpg,stim_fb/negf.jpg,stim_fb/posf.jpg,stim_01/c.jpg,stim_01/d.jpg,2,2,j,2,1,121,33,j,1,0.533198869183,01,03,60.0223859254,PLT_learning_01,A,2014_Mrz_26_1627,P24,
stim_fb/ques.jpg,stim_fb/posf.jpg,stim_fb/negf.jpg,stim_01/c.jpg,stim_01/d.jpg,2,2,j,2,2,122,38,j,1,0.516536182433,01,03,60.0223859254,PLT_learning_01,A,2014_Mrz_26_1627,P24,
stim_fb/ques.jpg,stim_fb/negf.jpg,stim_fb/posf.jpg,stim_01/b.jpg,stim_01/a.jpg,1,1,f,2,3,123,7,f,1,0.683187804603,01,03,60.0223859254,PLT_learning_01,A,2014_Mrz_26_1627,P24,
stim_fb/ques.jpg,stim_fb/negf.jpg,stim_fb/posf.jpg,stim_01/c.jpg,stim_01/d.jpg,2,2,j,2,4,124,30,j,1,0.599857225134,01,03,60.0223859254,PLT_learning_01,A,2014_Mrz_26_1627,P24,
stim_fb/ques.jpg,stim_fb/negf.jpg,stim_fb/posf.jpg,stim_01/a.jpg,stim_01/b.jpg,2,1,j,2,5,125,10,j,1,0.449857901822,01,03,60.0223859254,PLT_learning_01,A,2014_Mrz_26_1627,P24,
stim_fb/ques.jpg,stim_fb/negf.jpg,stim_fb/posf.jpg,stim_01/f.jpg,stim_01/e.jpg,1,3,f,2,6,126,40,f,1,0.883059772485,01,03,60.0223859254,PLT_learning_01,A,2014_Mrz_26_1627,P24,
stim_fb/ques.jpg,stim_fb/posf.jpg,stim_fb/negf.jpg,stim_01/b.jpg,stim_01/a.jpg,1,1,f,2,7,127,9,f,1,0.616545006429,01,03,60.0223859254,PLT_learning_01,A,2014_Mrz_26_1627,P24,
stim_fb/ques.jpg,stim_fb/negf.jpg,stim_fb/posf.jpg,stim_01/a.jpg,stim_01/b.jpg,2,1,j,2,8,128,12,j,1,0.849779809178,01,03,60.0223859254,PLT_learning_01,A,2014_Mrz_26_1627,P24,
stim_fb/ques.jpg,stim_fb/negf.jpg,stim_fb/posf.jpg,stim_01/d.jpg,stim_01/c.jpg,1,2,f,2,9,129,24,f,1,0.583180207668,01,03,60.0223859254,PLT_learning_01,A,2014_Mrz_26_1627,P24,
stim_fb/ques.jpg,stim_fb/negf.jpg,stim_fb/posf.jpg,stim_01/e.jpg,stim_01/f.jpg,2,3,j,2,10,130,55,j,1,0.833268318282,01,03,60.0223859254,PLT_learning_01,A,2014_Mrz_26_1627,P24,
stim_fb/ques.jpg,stim_fb/negf.jpg,stim_fb/posf.jpg,stim_01/d.jpg,stim_01/c.jpg,1,2,f,2,11,131,22,f,1,0.566528131367,01,03,60.0223859254,PLT_learning_01,A,2014_Mrz_26_1627,P24,
stim_fb/ques.jpg,stim_fb/negf.jpg,stim_fb/posf.jpg,stim_01/e.jpg,stim_01/f.jpg,2,3,j,2,12,132,54,j,1,0.433290919616,01,03,60.0223859254,PLT_learning_01,A,2014_Mrz_26_1627,P24,
stim_fb/ques.jpg,stim_fb/negf.jpg,stim_fb/posf.jpg,stim_01/d.jpg,stim_01/c.jpg,1,2,f,2,13,133,23,f,1,0.449899612784,01,03,60.0223859254,PLT_learning_01,A,2014_Mrz_26_1627,P24,
stim_fb/ques.jpg,stim_fb/negf.jpg,stim_fb/posf.jpg,stim_01/e.jpg,stim_01/f.jpg,2,3,j,2,14,134,51,j,1,0.466559240907,01,03,60.0223859254,PLT_learning_01,A,2014_Mrz_26_1627,P24,
stim_fb/ques.jpg,stim_fb/posf.jpg,stim_fb/negf.jpg,stim_01/c.jpg,stim_01/d.jpg,2,2,j,2,15,135,37,j,1,1.04968053473,01,03,60.0223859254,PLT_learning_01,A,2014_Mrz_26_1627,P24,
stim_fb/ques.jpg,stim_fb/posf.jpg,stim_fb/negf.jpg,stim_01/c.jpg,stim_01/d.jpg,2,2,j,2,16,136,39,j,1,0.766421641943,01,03,60.0223859254,PLT_learning_01,A,2014_Mrz_26_1627,P24,
stim_fb/ques.jpg,stim_fb/negf.jpg,stim_fb/posf.jpg,stim_01/b.jpg,stim_01/a.jpg,1,1,f,2,17,137,1,f,1,0.649845736498,01,03,60.0223859254,PLT_learning_01,A,2014_Mrz_26_1627,P24,
stim_fb/ques.jpg,stim_fb/negf.jpg,stim_fb/posf.jpg,stim_01/a.jpg,stim_01/b.jpg,2,1,j,2,18,138,17,j,1,0.449838208737,01,03,60.0223859254,PLT_learning_01,A,2014_Mrz_26_1627,P24,
stim_fb/ques.jpg,stim_fb/posf.jpg,stim_fb/negf.jpg,stim_01/e.jpg,stim_01/f.jpg,2,3,j,2,19,139,58,j,1,0.633109528499,01,03,60.0223859254,PLT_learning_01,A,2014_Mrz_26_1627,P24,
stim_fb/ques.jpg,stim_fb/negf.jpg,stim_fb/posf.jpg,stim_01/f.jpg,stim_01/e.jpg,1,3,f,2,20,140,43,f,1,0.783158310089,01,03,60.0223859254,PLT_learning_01,A,2014_Mrz_26_1627,P24,
stim_fb/ques.jpg,stim_fb/negf.jpg,stim_fb/posf.jpg,stim_01/b.jpg,stim_01/a.jpg,1,1,f,2,21,141,6,f,1,0.783130012554,01,03,60.0223859254,PLT_learning_01,A,2014_Mrz_26_1627,P24,
stim_fb/ques.jpg,stim_fb/negf.jpg,stim_fb/posf.jpg,stim_01/d.jpg,stim_01/c.jpg,1,2,f,2,22,142,21,f,1,0.583157988283,01,03,60.0223859254,PLT_learning_01,A,2014_Mrz_26_1627,P24,
stim_fb/ques.jpg,stim_fb/negf.jpg,stim_fb/posf.jpg,stim_01/f.jpg,stim_01/e.jpg,1,3,f,2,23,143,42,f,1,0.616529698273,01,03,60.0223859254,PLT_learning_01,A,2014_Mrz_26_1627,P24,
stim_fb/ques.jpg,stim_fb/negf.jpg,stim_fb/posf.jpg,stim_01/e.jpg,stim_01/f.jpg,2,3,j,2,24,144,52,j,1,0.683133017046,01,03,60.0223859254,PLT_learning_01,A,2014_Mrz_26_1627,P24,
stim_fb/ques.jpg,stim_fb/posf.jpg,stim_fb/negf.jpg,stim_01/f.jpg,stim_01/e.jpg,1,3,f,2,25,145,49,f,1,0.416597487238,01,03,60.0223859254,PLT_learning_01,A,2014_Mrz_26_1627,P24,
stim_fb/ques.jpg,stim_fb/posf.jpg,stim_fb/negf.jpg,stim_01/f.jpg,stim_01/e.jpg,1,3,f,2,26,146,47,f,1,0.466520859241,01,03,60.0223859254,PLT_learning_01,A,2014_Mrz_26_1627,P24,
stim_fb/ques.jpg,stim_fb/posf.jpg,stim_fb/negf.jpg,stim_01/d.jpg,stim_01/c.jpg,1,2,f,2,27,147,27,f,1,0.599867255136,01,03,60.0223859254,PLT_learning_01,A,2014_Mrz_26_1627,P24,
stim_fb/ques.jpg,stim_fb/posf.jpg,stim_fb/negf.jpg,stim_01/f.jpg,stim_01/e.jpg,1,3,f,2,28,148,46,f,1,0.916404460117,01,03,60.0223859254,PLT_learning_01,A,2014_Mrz_26_1627,P24,
stim_fb/ques.jpg,stim_fb/posf.jpg,stim_fb/negf.jpg,stim_01/a.jpg,stim_01/b.jpg,2,1,j,2,29,149,18,j,1,0.699820521651,01,03,60.0223859254,PLT_learning_01,A,2014_Mrz_26_1627,P24,
stim_fb/ques.jpg,stim_fb/negf.jpg,stim_fb/posf.jpg,stim_01/b.jpg,stim_01/a.jpg,1,1,f,2,30,150,5,f,1,0.483174851317,01,03,60.0223859254,PLT_learning_01,A,2014_Mrz_26_1627,P24,
stim_fb/ques.jpg,stim_fb/negf.jpg,stim_fb/posf.jpg,stim_01/b.jpg,stim_01/a.jpg,1,1,f,2,31,151,4,f,1,0.566536495215,01,03,60.0223859254,PLT_learning_01,A,2014_Mrz_26_1627,P24,
stim_fb/ques.jpg,stim_fb/negf.jpg,stim_fb/posf.jpg,stim_01/c.jpg,stim_01/d.jpg,2,2,j,2,32,152,36,j,1,0.649885582814,01,03,60.0223859254,PLT_learning_01,A,2014_Mrz_26_1627,P24,
stim_fb/ques.jpg,stim_fb/posf.jpg,stim_fb/negf.jpg,stim_01/a.jpg,stim_01/b.jpg,2,1,j,2,33,153,19,j,1,0.666506811227,01,03,60.0223859254,PLT_learning_01,A,2014_Mrz_26_1627,P24,
stim_fb/ques.jpg,stim_fb/negf.jpg,stim_fb/posf.jpg,stim_01/c.jpg,stim_01/d.jpg,2,2,j,2,34,154,35,j,1,0.566546062058,01,03,60.0223859254,PLT_learning_01,A,2014_Mrz_26_1627,P24,
stim_fb/ques.jpg,stim_fb/negf.jpg,stim_fb/posf.jpg,stim_01/a.jpg,stim_01/b.jpg,2,1,j,2,35,155,15,j,1,0.499869522784,01,03,60.0223859254,PLT_learning_01,A,2014_Mrz_26_1627,P24,
stim_fb/ques.jpg,stim_fb/posf.jpg,stim_fb/negf.jpg,stim_01/e.jpg,stim_01/f.jpg,2,3,j,2,36,156,56,j,1,0.566523541929,01,03,60.0223859254,PLT_learning_01,A,2014_Mrz_26_1627,P24,
stim_fb/ques.jpg,stim_fb/negf.jpg,stim_fb/posf.jpg,stim_01/d.jpg,stim_01/c.jpg,1,2,f,2,37,157,20,f,1,0.666526826113,01,03,60.0223859254,PLT_learning_01,A,2014_Mrz_26_1627,P24,
stim_fb/ques.jpg,stim_fb/negf.jpg,stim_fb/posf.jpg,stim_01/c.jpg,stim_01/d.jpg,2,2,j,2,38,158,34,j,1,0.599895414322,01,03,60.0223859254,PLT_learning_01,A,2014_Mrz_26_1627,P24,
stim_fb/ques.jpg,stim_fb/negf.jpg,stim_fb/posf.jpg,stim_01/a.jpg,stim_01/b.jpg,2,1,j,2,39,159,14,j,1,0.633168499488,01,03,60.0223859254,PLT_learning_01,A,2014_Mrz_26_1627,P24,
stim_fb/ques.jpg,stim_fb/negf.jpg,stim_fb/posf.jpg,stim_01/f.jpg,stim_01/e.jpg,1,3,f,2,40,160,41,f,1,0.549864458164,01,03,60.0223859254,PLT_learning_01,A,2014_Mrz_26_1627,P24,
stim_fb/ques.jpg,stim_fb/negf.jpg,stim_fb/posf.jpg,stim_01/a.jpg,stim_01/b.jpg,2,1,j,2,41,161,16,j,1,0.566517569041,01,03,60.0223859254,PLT_learning_01,A,2014_Mrz_26_1627,P24,
stim_fb/ques.jpg,stim_fb/negf.jpg,stim_fb/posf.jpg,stim_01/b.jpg,stim_01/a.jpg,1,1,f,2,42,162,2,f,1,0.616533710272,01,03,60.0223859254,PLT_learning_01,A,2014_Mrz_26_1627,P24,
stim_fb/ques.jpg,stim_fb/negf.jpg,stim_fb/posf.jpg,stim_01/f.jpg,stim_01/e.jpg,1,3,f,2,43,163,44,f,1,0.716471542321,01,03,60.0223859254,PLT_learning_01,A,2014_Mrz_26_1627,P24,
stim_fb/ques.jpg,stim_fb/negf.jpg,stim_fb/posf.jpg,stim_01/a.jpg,stim_01/b.jpg,2,1,j,2,44,164,11,j,1,0.499880307667,01,03,60.0223859254,PLT_learning_01,A,2014_Mrz_26_1627,P24,
stim_fb/ques.jpg,stim_fb/posf.jpg,stim_fb/negf.jpg,stim_01/d.jpg,stim_01/c.jpg,1,2,f,2,45,165,29,f,1,0.566555475521,01,03,60.0223859254,PLT_learning_01,A,2014_Mrz_26_1627,P24,
stim_fb/ques.jpg,stim_fb/negf.jpg,stim_fb/posf.jpg,stim_01/d.jpg,stim_01/c.jpg,1,2,f,2,46,166,25,f,1,0.483206673631,01,03,60.0223859254,PLT_learning_01,A,2014_Mrz_26_1627,P24,
stim_fb/ques.jpg,stim_fb/negf.jpg,stim_fb/posf.jpg,stim_01/b.jpg,stim_01/a.jpg,1,1,f,2,47,167,0,f,1,0.533212944265,01,03,60.0223859254,PLT_learning_01,A,2014_Mrz_26_1627,P24,
stim_fb/ques.jpg,stim_fb/negf.jpg,stim_fb/posf.jpg,stim_01/a.jpg,stim_01/b.jpg,2,1,j,2,48,168,13,j,1,0.499837071904,01,03,60.0223859254,PLT_learning_01,A,2014_Mrz_26_1627,P24,
stim_fb/ques.jpg,stim_fb/posf.jpg,stim_fb/negf.jpg,stim_01/e.jpg,stim_01/f.jpg,2,3,j,2,49,169,59,j,1,0.566534483201,01,03,60.0223859254,PLT_learning_01,A,2014_Mrz_26_1627,P24,
stim_fb/ques.jpg,stim_fb/negf.jpg,stim_fb/posf.jpg,stim_01/b.jpg,stim_01/a.jpg,1,1,f,2,50,170,3,f,1,0.533223891551,01,03,60.0223859254,PLT_learning_01,A,2014_Mrz_26_1627,P24,
stim_fb/ques.jpg,stim_fb/negf.jpg,stim_fb/posf.jpg,stim_01/c.jpg,stim_01/d.jpg,2,2,j,2,51,171,32,j,1,0.516538826021,01,03,60.0223859254,PLT_learning_01,A,2014_Mrz_26_1627,P24,
stim_fb/ques.jpg,stim_fb/posf.jpg,stim_fb/negf.jpg,stim_01/b.jpg,stim_01/a.jpg,1,1,f,2,52,172,8,f,1,0.549865225075,01,03,60.0223859254,PLT_learning_01,A,2014_Mrz_26_1627,P24,
stim_fb/ques.jpg,stim_fb/negf.jpg,stim_fb/posf.jpg,stim_01/e.jpg,stim_01/f.jpg,2,3,j,2,53,173,50,j,1,0.599844232751,01,03,60.0223859254,PLT_learning_01,A,2014_Mrz_26_1627,P24,
stim_fb/ques.jpg,stim_fb/posf.jpg,stim_fb/negf.jpg,stim_01/d.jpg,stim_01/c.jpg,1,2,f,2,54,174,28,f,1,0.533175091914,01,03,60.0223859254,PLT_learning_01,A,2014_Mrz_26_1627,P24,
stim_fb/ques.jpg,stim_fb/negf.jpg,stim_fb/posf.jpg,stim_01/c.jpg,stim_01/d.jpg,2,2,j,2,55,175,31,j,1,1.01642060436,01,03,60.0223859254,PLT_learning_01,A,2014_Mrz_26_1627,P24,
stim_fb/ques.jpg,stim_fb/negf.jpg,stim_fb/posf.jpg,stim_01/d.jpg,stim_01/c.jpg,1,2,f,2,56,176,26,f,1,0.466581412169,01,03,60.0223859254,PLT_learning_01,A,2014_Mrz_26_1627,P24,
stim_fb/ques.jpg,stim_fb/posf.jpg,stim_fb/negf.jpg,stim_01/e.jpg,stim_01/f.jpg,2,3,j,2,57,177,57,j,1,0.5831907309,01,03,60.0223859254,PLT_learning_01,A,2014_Mrz_26_1627,P24,
stim_fb/ques.jpg,stim_fb/posf.jpg,stim_fb/negf.jpg,stim_01/f.jpg,stim_01/e.jpg,1,3,f,2,58,178,48,f,1,0.749787947458,01,03,60.0223859254,PLT_learning_01,A,2014_Mrz_26_1627,P24,
stim_fb/ques.jpg,stim_fb/negf.jpg,stim_fb/posf.jpg,stim_01/f.jpg,stim_01/e.jpg,1,3,f,2,59,179,45,f,1,0.599855937926,01,03,60.0223859254,PLT_learning_01,A,2014_Mrz_26_1627,P24,
stim_fb/ques.jpg,stim_fb/negf.jpg,stim_fb/posf.jpg,stim_01/a.jpg,stim_01/b.jpg,2,1,j,3,0,180,12,j,1,0.616488393323,01,03,60.0223859254,PLT_learning_01,A,2014_Mrz_26_1627,P24,
stim_fb/ques.jpg,stim_fb/posf.jpg,stim_fb/negf.jpg,stim_01/b.jpg,stim_01/a.jpg,1,1,f,3,1,181,8,f,1,0.383249897368,01,03,60.0223859254,PLT_learning_01,A,2014_Mrz_26_1627,P24,
stim_fb/ques.jpg,stim_fb/posf.jpg,stim_fb/negf.jpg,stim_01/f.jpg,stim_01/e.jpg,1,3,f,3,2,182,49,f,1,0.566538522267,01,03,60.0223859254,PLT_learning_01,A,2014_Mrz_26_1627,P24,
stim_fb/ques.jpg,stim_fb/posf.jpg,stim_fb/negf.jpg,stim_01/e.jpg,stim_01/f.jpg,2,3,j,3,3,183,56,j,1,0.533246447772,01,03,60.0223859254,PLT_learning_01,A,2014_Mrz_26_1627,P24,
stim_fb/ques.jpg,stim_fb/negf.jpg,stim_fb/posf.jpg,stim_01/b.jpg,stim_01/a.jpg,1,1,f,3,4,184,0,f,1,0.466577036263,01,03,60.0223859254,PLT_learning_01,A,2014_Mrz_26_1627,P24,
stim_fb/ques.jpg,stim_fb/negf.jpg,stim_fb/posf.jpg,stim_01/a.jpg,stim_01/b.jpg,2,1,j,3,5,185,10,j,1,0.566487433931,01,03,60.0223859254,PLT_learning_01,A,2014_Mrz_26_1627,P24,
stim_fb/ques.jpg,stim_fb/posf.jpg,stim_fb/negf.jpg,stim_01/d.jpg,stim_01/c.jpg,1,2,f,3,6,186,27,f,1,0.633167188214,01,03,60.0223859254,PLT_learning_01,A,2014_Mrz_26_1627,P24,
stim_fb/ques.jpg,stim_fb/negf.jpg,stim_fb/posf.jpg,stim_01/f.jpg,stim_01/e.jpg,1,3,f,3,7,187,41,f,1,0.949724098315,01,03,60.0223859254,PLT_learning_01,A,2014_Mrz_26_1627,P24,
stim_fb/ques.jpg,stim_fb/negf.jpg,stim_fb/posf.jpg,stim_01/e.jpg,stim_01/f.jpg,2,3,j,3,8,188,50,j,1,0.616621592319,01,03,60.0223859254,PLT_learning_01,A,2014_Mrz_26_1627,P24,
stim_fb/ques.jpg,stim_fb/posf.jpg,stim_fb/negf.jpg,stim_01/d.jpg,stim_01/c.jpg,1,2,f,3,9,189,28,f,1,0.633134054631,01,03,60.0223859254,PLT_learning_01,A,2014_Mrz_26_1627,P24,
stim_fb/ques.jpg,stim_fb/posf.jpg,stim_fb/negf.jpg,stim_01/f.jpg,stim_01/e.jpg,1,3,f,3,10,190,47,f,1,0.716442589153,01,03,60.0223859254,PLT_learning_01,A,2014_Mrz_26_1627,P24,
stim_fb/ques.jpg,stim_fb/negf.jpg,stim_fb/posf.jpg,stim_01/d.jpg,stim_01/c.jpg,1,2,f,3,11,191,22,f,1,0.599880334736,01,03,60.0223859254,PLT_learning_01,A,2014_Mrz_26_1627,P24,
stim_fb/ques.jpg,stim_fb/negf.jpg,stim_fb/posf.jpg,stim_01/e.jpg,stim_01/f.jpg,2,3,j,3,12,192,53,j,1,1.06629258126,01,03,60.0223859254,PLT_learning_01,A,2014_Mrz_26_1627,P24,
stim_fb/ques.jpg,stim_fb/negf.jpg,stim_fb/posf.jpg,stim_01/b.jpg,stim_01/a.jpg,1,1,f,3,13,193,3,f,1,0.649795950405,01,03,60.0223859254,PLT_learning_01,A,2014_Mrz_26_1627,P24,
stim_fb/ques.jpg,stim_fb/negf.jpg,stim_fb/posf.jpg,stim_01/a.jpg,stim_01/b.jpg,2,1,j,3,14,194,16,j,1,0.599868840083,01,03,60.0223859254,PLT_learning_01,A,2014_Mrz_26_1627,P24,
stim_fb/ques.jpg,stim_fb/negf.jpg,stim_fb/posf.jpg,stim_01/a.jpg,stim_01/b.jpg,2,1,j,3,15,195,14,j,1,0.566534991467,01,03,60.0223859254,PLT_learning_01,A,2014_Mrz_26_1627,P24,
stim_fb/ques.jpg,stim_fb/negf.jpg,stim_fb/posf.jpg,stim_01/f.jpg,stim_01/e.jpg,1,3,f,3,16,196,42,f,1,0.866433551626,01,03,60.0223859254,PLT_learning_01,A,2014_Mrz_26_1627,P24,
stim_fb/ques.jpg,stim_fb/posf.jpg,stim_fb/negf.jpg,stim_01/c.jpg,stim_01/d.jpg,2,2,j,3,17,197,39,j,1,0.61645449583,01,03,60.0223859254,PLT_learning_01,A,2014_Mrz_26_1627,P24,
stim_fb/ques.jpg,stim_fb/negf.jpg,stim_fb/posf.jpg,stim_01/a.jpg,stim_01/b.jpg,2,1,j,3,18,198,11,j,1,0.549849595118,01,03,60.0223859254,PLT_learning_01,A,2014_Mrz_26_1627,P24,
stim_fb/ques.jpg,stim_fb/negf.jpg,stim_fb/posf.jpg,stim_01/d.jpg,stim_01/c.jpg,1,2,f,3,19,199,20,f,1,0.78312944113,01,03,60.0223859254,PLT_learning_01,A,2014_Mrz_26_1627,P24,
stim_fb/ques.jpg,stim_fb/negf.jpg,stim_fb/posf.jpg,stim_01/a.jpg,stim_01/b.jpg,2,1,j,3,20,200,17,j,1,0.53319551883,01,03,60.0223859254,PLT_learning_01,A,2014_Mrz_26_1627,P24,
stim_fb/ques.jpg,stim_fb/posf.jpg,stim_fb/negf.jpg,stim_01/a.jpg,stim_01/b.jpg,2,1,j,3,21,201,18,j,1,0.899765520557,01,03,60.0223859254,PLT_learning_01,A,2014_Mrz_26_1627,P24,
stim_fb/ques.jpg,stim_fb/posf.jpg,stim_fb/negf.jpg,stim_01/b.jpg,stim_01/a.jpg,1,1,f,3,22,202,9,f,1,0.533152361262,01,03,60.0223859254,PLT_learning_01,A,2014_Mrz_26_1627,P24,
stim_fb/ques.jpg,stim_fb/negf.jpg,stim_fb/posf.jpg,stim_01/f.jpg,stim_01/e.jpg,1,3,f,3,23,203,45,f,1,0.833124665227,01,03,60.0223859254,PLT_learning_01,A,2014_Mrz_26_1627,P24,
stim_fb/ques.jpg,stim_fb/negf.jpg,stim_fb/posf.jpg,stim_01/c.jpg,stim_01/d.jpg,2,2,j,3,24,204,34,j,1,0.566504236813,01,03,60.0223859254,PLT_learning_01,A,2014_Mrz_26_1627,P24,
stim_fb/ques.jpg,stim_fb/posf.jpg,stim_fb/negf.jpg,stim_01/c.jpg,stim_01/d.jpg,2,2,j,3,25,205,38,j,1,0.616502696972,01,03,60.0223859254,PLT_learning_01,A,2014_Mrz_26_1627,P24,
stim_fb/ques.jpg,stim_fb/negf.jpg,stim_fb/posf.jpg,stim_01/b.jpg,stim_01/a.jpg,1,1,f,3,26,206,6,f,1,0.58319553086,01,03,60.0223859254,PLT_learning_01,A,2014_Mrz_26_1627,P24,
stim_fb/ques.jpg,stim_fb/posf.jpg,stim_fb/negf.jpg,stim_01/d.jpg,stim_01/c.jpg,1,2,f,3,27,207,29,f,1,0.51655238081,01,03,60.0223859254,PLT_learning_01,A,2014_Mrz_26_1627,P24,
stim_fb/ques.jpg,stim_fb/negf.jpg,stim_fb/posf.jpg,stim_01/e.jpg,stim_01/f.jpg,2,3,j,3,28,208,55,j,1,0.549874710716,01,03,60.0223859254,PLT_learning_01,A,2014_Mrz_26_1627,P24,
stim_fb/ques.jpg,stim_fb/negf.jpg,stim_fb/posf.jpg,stim_01/b.jpg,stim_01/a.jpg,1,1,f,3,29,209,7,f,1,0.499863721325,01,03,60.0223859254,PLT_learning_01,A,2014_Mrz_26_1627,P24,
stim_fb/ques.jpg,stim_fb/negf.jpg,stim_fb/posf.jpg,stim_01/f.jpg,stim_01/e.jpg,1,3,f,3,30,210,44,f,1,0.716452607125,01,03,60.0223859254,PLT_learning_01,A,2014_Mrz_26_1627,P24,
stim_fb/ques.jpg,stim_fb/posf.jpg,stim_fb/negf.jpg,stim_01/e.jpg,stim_01/f.jpg,2,3,j,3,31,211,59,j,1,0.516527806558,01,03,60.0223859254,PLT_learning_01,A,2014_Mrz_26_1627,P24,
stim_fb/ques.jpg,stim_fb/negf.jpg,stim_fb/posf.jpg,stim_01/f.jpg,stim_01/e.jpg,1,3,f,3,32,212,40,f,1,0.649874175382,01,03,60.0223859254,PLT_learning_01,A,2014_Mrz_26_1627,P24,
stim_fb/ques.jpg,stim_fb/negf.jpg,stim_fb/posf.jpg,stim_01/c.jpg,stim_01/d.jpg,2,2,j,3,33,213,36,j,1,0.56656770701,01,03,60.0223859254,PLT_learning_01,A,2014_Mrz_26_1627,P24,
stim_fb/ques.jpg,stim_fb/negf.jpg,stim_fb/posf.jpg,stim_01/c.jpg,stim_01/d.jpg,2,2,j,3,34,214,35,j,1,0.816455208605,01,03,60.0223859254,PLT_learning_01,A,2014_Mrz_26_1627,P24,
stim_fb/ques.jpg,stim_fb/negf.jpg,stim_fb/posf.jpg,stim_01/b.jpg,stim_01/a.jpg,1,1,f,3,35,215,2,f,1,0.483217984827,01,03,60.0223859254,PLT_learning_01,A,2014_Mrz_26_1627,P24,
stim_fb/ques.jpg,stim_fb/negf.jpg,stim_fb/posf.jpg,stim_01/c.jpg,stim_01/d.jpg,2,2,j,3,36,216,33,j,1,0.566538233546,01,03,60.0223859254,PLT_learning_01,A,2014_Mrz_26_1627,P24,
stim_fb/ques.jpg,stim_fb/negf.jpg,stim_fb/posf.jpg,stim_01/a.jpg,stim_01/b.jpg,2,1,j,3,37,217,13,j,1,0.499892196302,01,03,60.0223859254,PLT_learning_01,A,2014_Mrz_26_1627,P24,
stim_fb/ques.jpg,stim_fb/negf.jpg,stim_fb/posf.jpg,stim_01/e.jpg,stim_01/f.jpg,2,3,j,3,38,218,54,j,1,0.482213408919,01,03,60.0223859254,PLT_learning_01,A,2014_Mrz_26_1627,P24,
stim_fb/ques.jpg,stim_fb/posf.jpg,stim_fb/negf.jpg,stim_01/f.jpg,stim_01/e.jpg,1,3,f,3,39,219,48,f,1,0.466518278812,01,03,60.0223859254,PLT_learning_01,A,2014_Mrz_26_1627,P24,
stim_fb/ques.jpg,stim_fb/posf.jpg,stim_fb/negf.jpg,stim_01/e.jpg,stim_01/f.jpg,2,3,j,3,40,220,57,j,1,0.583216219427,01,03,60.0223859254,PLT_learning_01,A,2014_Mrz_26_1627,P24,
stim_fb/ques.jpg,stim_fb/negf.jpg,stim_fb/posf.jpg,stim_01/c.jpg,stim_01/d.jpg,2,2,j,3,41,221,30,j,1,0.633175669358,01,03,60.0223859254,PLT_learning_01,A,2014_Mrz_26_1627,P24,
stim_fb/ques.jpg,stim_fb/posf.jpg,stim_fb/negf.jpg,stim_01/f.jpg,stim_01/e.jpg,1,3,f,3,42,222,46,f,1,0.683128304299,01,03,60.0223859254,PLT_learning_01,A,2014_Mrz_26_1627,P24,
stim_fb/ques.jpg,stim_fb/negf.jpg,stim_fb/posf.jpg,stim_01/d.jpg,stim_01/c.jpg,1,2,f,3,43,223,23,f,1,0.916466342358,01,03,60.0223859254,PLT_learning_01,A,2014_Mrz_26_1627,P24,
stim_fb/ques.jpg,stim_fb/negf.jpg,stim_fb/posf.jpg,stim_01/b.jpg,stim_01/a.jpg,1,1,f,3,44,224,1,f,1,0.549864746881,01,03,60.0223859254,PLT_learning_01,A,2014_Mrz_26_1627,P24,
stim_fb/ques.jpg,stim_fb/negf.jpg,stim_fb/posf.jpg,stim_01/f.jpg,stim_01/e.jpg,1,3,f,3,45,225,43,f,1,0.66650433305,01,03,60.0223859254,PLT_learning_01,A,2014_Mrz_26_1627,P24,
stim_fb/ques.jpg,stim_fb/negf.jpg,stim_fb/posf.jpg,stim_01/d.jpg,stim_01/c.jpg,1,2,f,3,46,226,26,f,1,0.716482600885,01,03,60.0223859254,PLT_learning_01,A,2014_Mrz_26_1627,P24,
stim_fb/ques.jpg,stim_fb/negf.jpg,stim_fb/posf.jpg,stim_01/c.jpg,stim_01/d.jpg,2,2,j,3,47,227,32,j,1,0.699821490063,01,03,60.0223859254,PLT_learning_01,A,2014_Mrz_26_1627,P24,
stim_fb/ques.jpg,stim_fb/posf.jpg,stim_fb/negf.jpg,stim_01/c.jpg,stim_01/d.jpg,2,2,j,3,48,228,37,j,1,0.466556374762,01,03,60.0223859254,PLT_learning_01,A,2014_Mrz_26_1627,P24,
stim_fb/ques.jpg,stim_fb/negf.jpg,stim_fb/posf.jpg,stim_01/b.jpg,stim_01/a.jpg,1,1,f,3,49,229,5,f,1,0.516560161199,01,03,60.0223859254,PLT_learning_01,A,2014_Mrz_26_1627,P24,
stim_fb/ques.jpg,stim_fb/negf.jpg,stim_fb/posf.jpg,stim_01/e.jpg,stim_01/f.jpg,2,3,j,3,50,230,52,j,1,0.516603294713,01,03,60.0223859254,PLT_learning_01,A,2014_Mrz_26_1627,P24,
stim_fb/ques.jpg,stim_fb/negf.jpg,stim_fb/posf.jpg,stim_01/b.jpg,stim_01/a.jpg,1,1,f,3,51,231,4,f,1,0.599807405961,01,03,60.0223859254,PLT_learning_01,A,2014_Mrz_26_1627,P24,
stim_fb/ques.jpg,stim_fb/negf.jpg,stim_fb/posf.jpg,stim_01/d.jpg,stim_01/c.jpg,1,2,f,3,52,232,21,f,1,1.23299980902,01,03,60.0223859254,PLT_learning_01,A,2014_Mrz_26_1627,P24,
stim_fb/ques.jpg,stim_fb/negf.jpg,stim_fb/posf.jpg,stim_01/d.jpg,stim_01/c.jpg,1,2,f,3,53,233,24,f,1,0.466564200269,01,03,60.0223859254,PLT_learning_01,A,2014_Mrz_26_1627,P24,
stim_fb/ques.jpg,stim_fb/negf.jpg,stim_fb/posf.jpg,stim_01/d.jpg,stim_01/c.jpg,1,2,f,3,54,234,25,f,1,0.466564070946,01,03,60.0223859254,PLT_learning_01,A,2014_Mrz_26_1627,P24,
stim_fb/ques.jpg,stim_fb/negf.jpg,stim_fb/posf.jpg,stim_01/a.jpg,stim_01/b.jpg,2,1,j,3,55,235,15,j,1,0.59985914993,01,03,60.0223859254,PLT_learning_01,A,2014_Mrz_26_1627,P24,
stim_fb/ques.jpg,stim_fb/posf.jpg,stim_fb/negf.jpg,stim_01/e.jpg,stim_01/f.jpg,2,3,j,3,56,236,58,j,1,0.749798759411,01,03,60.0223859254,PLT_learning_01,A,2014_Mrz_26_1627,P24,
stim_fb/ques.jpg,stim_fb/posf.jpg,stim_fb/negf.jpg,stim_01/a.jpg,stim_01/b.jpg,2,1,j,3,57,237,19,j,1,0.516553307119,01,03,60.0223859254,PLT_learning_01,A,2014_Mrz_26_1627,P24,
stim_fb/ques.jpg,stim_fb/negf.jpg,stim_fb/posf.jpg,stim_01/c.jpg,stim_01/d.jpg,2,2,j,3,58,238,31,j,1,0.616543216969,01,03,60.0223859254,PLT_learning_01,A,2014_Mrz_26_1627,P24,
stim_fb/ques.jpg,stim_fb/negf.jpg,stim_fb/posf.jpg,stim_01/e.jpg,stim_01/f.jpg,2,3,j,3,59,239,51,j,1,0.783141080141,01,03,60.0223859254,PLT_learning_01,A,2014_Mrz_26_1627,P24,
stim_fb/ques.jpg,stim_fb/negf.jpg,stim_fb/posf.jpg,stim_01/d.jpg,stim_01/c.jpg,1,2,f,4,0,240,23,f,1,0.516561451415,01,03,60.0223859254,PLT_learning_01,A,2014_Mrz_26_1627,P24,
stim_fb/ques.jpg,stim_fb/negf.jpg,stim_fb/posf.jpg,stim_01/e.jpg,stim_01/f.jpg,2,3,j,4,1,241,54,j,1,0.566512363064,01,03,60.0223859254,PLT_learning_01,A,2014_Mrz_26_1627,P24,
stim_fb/ques.jpg,stim_fb/posf.jpg,stim_fb/negf.jpg,stim_01/f.jpg,stim_01/e.jpg,1,3,f,4,2,242,46,f,1,0.483222333667,01,03,60.0223859254,PLT_learning_01,A,2014_Mrz_26_1627,P24,
stim_fb/ques.jpg,stim_fb/posf.jpg,stim_fb/negf.jpg,stim_01/b.jpg,stim_01/a.jpg,1,1,f,4,3,243,9,f,1,0.616556098073,01,03,60.0223859254,PLT_learning_01,A,2014_Mrz_26_1627,P24,
stim_fb/ques.jpg,stim_fb/negf.jpg,stim_fb/posf.jpg,stim_01/a.jpg,stim_01/b.jpg,2,1,j,4,4,244,13,j,1,0.566540359847,01,03,60.0223859254,PLT_learning_01,A,2014_Mrz_26_1627,P24,
stim_fb/ques.jpg,stim_fb/negf.jpg,stim_fb/posf.jpg,stim_01/c.jpg,stim_01/d.jpg,2,2,j,4,5,245,35,j,1,0.749791797054,01,03,60.0223859254,PLT_learning_01,A,2014_Mrz_26_1627,P24,
stim_fb/ques.jpg,stim_fb/negf.jpg,stim_fb/posf.jpg,stim_01/b.jpg,stim_01/a.jpg,1,1,f,4,6,246,7,f,1,0.549859685263,01,03,60.0223859254,PLT_learning_01,A,2014_Mrz_26_1627,P24,
stim_fb/ques.jpg,stim_fb/posf.jpg,stim_fb/negf.jpg,stim_01/a.jpg,stim_01/b.jpg,2,1,j,4,7,247,18,j,1,0.899755286049,01,03,60.0223859254,PLT_learning_01,A,2014_Mrz_26_1627,P24,
stim_fb/ques.jpg,stim_fb/negf.jpg,stim_fb/posf.jpg,stim_01/b.jpg,stim_01/a.jpg,1,1,f,4,8,248,5,f,1,0.58319961805,01,03,60.0223859254,PLT_learning_01,A,2014_Mrz_26_1627,P24,
stim_fb/ques.jpg,stim_fb/negf.jpg,stim_fb/posf.jpg,stim_01/e.jpg,stim_01/f.jpg,2,3,j,4,9,249,55,j,1,0.6165185555,01,03,60.0223859254,PLT_learning_01,A,2014_Mrz_26_1627,P24,
stim_fb/ques.jpg,stim_fb/negf.jpg,stim_fb/posf.jpg,stim_01/d.jpg,stim_01/c.jpg,1,2,f,4,10,250,21,f,1,0.616496552655,01,03,60.0223859254,PLT_learning_01,A,2014_Mrz_26_1627,P24,
stim_fb/ques.jpg,stim_fb/negf.jpg,stim_fb/posf.jpg,stim_01/f.jpg,stim_01/e.jpg,1,3,f,4,11,251,41,f,1,0.683134066661,01,03,60.0223859254,PLT_learning_01,A,2014_Mrz_26_1627,P24,
stim_fb/ques.jpg,stim_fb/posf.jpg,stim_fb/negf.jpg,stim_01/c.jpg,stim_01/d.jpg,2,2,j,4,12,252,37,j,1,0.483229813308,01,03,60.0223859254,PLT_learning_01,A,2014_Mrz_26_1627,P24,
stim_fb/ques.jpg,stim_fb/posf.jpg,stim_fb/negf.jpg,stim_01/f.jpg,stim_01/e.jpg,1,3,f,4,13,253,48,f,1,0.966408402943,01,03,60.0223859254,PLT_learning_01,A,2014_Mrz_26_1627,P24,
stim_fb/ques.jpg,stim_fb/posf.jpg,stim_fb/negf.jpg,stim_01/d.jpg,stim_01/c.jpg,1,2,f,4,14,254,28,f,1,0.566537298215,01,03,60.0223859254,PLT_learning_01,A,2014_Mrz_26_1627,P24,
stim_fb/ques.jpg,stim_fb/negf.jpg,stim_fb/posf.jpg,stim_01/a.jpg,stim_01/b.jpg,2,1,j,4,15,255,14,j,1,0.683203615012,01,03,60.0223859254,PLT_learning_01,A,2014_Mrz_26_1627,P24,
stim_fb/ques.jpg,stim_fb/negf.jpg,stim_fb/posf.jpg,stim_01/f.jpg,stim_01/e.jpg,1,3,f,4,16,256,42,f,1,0.849782452762,01,03,60.0223859254,PLT_learning_01,A,2014_Mrz_26_1627,P24,
stim_fb/ques.jpg,stim_fb/negf.jpg,stim_fb/posf.jpg,stim_01/d.jpg,stim_01/c.jpg,1,2,f,4,17,257,20,f,1,0.74982009158,01,03,60.0223859254,PLT_learning_01,A,2014_Mrz_26_1627,P24,
stim_fb/ques.jpg,stim_fb/posf.jpg,stim_fb/negf.jpg,stim_01/f.jpg,stim_01/e.jpg,1,3,f,4,18,258,47,f,1,0.701214438988,01,03,60.0223859254,PLT_learning_01,A,2014_Mrz_26_1627,P24,
stim_fb/ques.jpg,stim_fb/negf.jpg,stim_fb/posf.jpg,stim_01/c.jpg,stim_01/d.jpg,2,2,j,4,19,259,32,j,1,0.716420869016,01,03,60.0223859254,PLT_learning_01,A,2014_Mrz_26_1627,P24,
stim_fb/ques.jpg,stim_fb/posf.jpg,stim_fb/negf.jpg,stim_01/f.jpg,stim_01/e.jpg,1,3,f,4,20,260,49,f,1,0.533168664897,01,03,60.0223859254,PLT_learning_01,A,2014_Mrz_26_1627,P24,
stim_fb/ques.jpg,stim_fb/posf.jpg,stim_fb/negf.jpg,stim_01/d.jpg,stim_01/c.jpg,1,2,f,4,21,261,29,f,1,0.499873194938,01,03,60.0223859254,PLT_learning_01,A,2014_Mrz_26_1627,P24,
stim_fb/ques.jpg,stim_fb/negf.jpg,stim_fb/posf.jpg,stim_01/c.jpg,stim_01/d.jpg,2,2,j,4,22,262,31,j,1,0.583150325187,01,03,60.0223859254,PLT_learning_01,A,2014_Mrz_26_1627,P24,
stim_fb/ques.jpg,stim_fb/negf.jpg,stim_fb/posf.jpg,stim_01/e.jpg,stim_01/f.jpg,2,3,j,4,23,263,52,j,1,0.583210664583,01,03,60.0223859254,PLT_learning_01,A,2014_Mrz_26_1627,P24,
stim_fb/ques.jpg,stim_fb/negf.jpg,stim_fb/posf.jpg,stim_01/b.jpg,stim_01/a.jpg,1,1,f,4,24,264,0,f,1,0.649869655117,01,03,60.0223859254,PLT_learning_01,A,2014_Mrz_26_1627,P24,
stim_fb/ques.jpg,stim_fb/negf.jpg,stim_fb/posf.jpg,stim_01/d.jpg,stim_01/c.jpg,1,2,f,4,25,265,25,f,1,0.499896373713,01,03,60.0223859254,PLT_learning_01,A,2014_Mrz_26_1627,P24,
stim_fb/ques.jpg,stim_fb/negf.jpg,stim_fb/posf.jpg,stim_01/c.jpg,stim_01/d.jpg,2,2,j,4,26,266,34,j,1,0.599719144968,01,03,60.0223859254,PLT_learning_01,A,2014_Mrz_26_1627,P24,
stim_fb/ques.jpg,stim_fb/negf.jpg,stim_fb/posf.jpg,stim_01/b.jpg,stim_01/a.jpg,1,1,f,4,27,267,1,f,1,0.883090879019,01,03,60.0223859254,PLT_learning_01,A,2014_Mrz_26_1627,P24,
stim_fb/ques.jpg,stim_fb/negf.jpg,stim_fb/posf.jpg,stim_01/c.jpg,stim_01/d.jpg,2,2,j,4,28,268,33,j,1,0.683085907625,01,03,60.0223859254,PLT_learning_01,A,2014_Mrz_26_1627,P24,
stim_fb/ques.jpg,stim_fb/negf.jpg,stim_fb/posf.jpg,stim_01/e.jpg,stim_01/f.jpg,2,3,j,4,29,269,51,j,1,0.566498182718,01,03,60.0223859254,PLT_learning_01,A,2014_Mrz_26_1627,P24,
stim_fb/ques.jpg,stim_fb/posf.jpg,stim_fb/negf.jpg,stim_01/e.jpg,stim_01/f.jpg,2,3,j,4,30,270,57,j,1,0.916415368305,01,03,60.0223859254,PLT_learning_01,A,2014_Mrz_26_1627,P24,
stim_fb/ques.jpg,stim_fb/negf.jpg,stim_fb/posf.jpg,stim_01/d.jpg,stim_01/c.jpg,1,2,f,4,31,271,24,f,1,0.583207335287,01,03,60.0223859254,PLT_learning_01,A,2014_Mrz_26_1627,P24,
stim_fb/ques.jpg,stim_fb/negf.jpg,stim_fb/posf.jpg,stim_01/f.jpg,stim_01/e.jpg,1,3,f,4,32,272,40,f,1,0.549844954548,01,03,60.0223859254,PLT_learning_01,A,2014_Mrz_26_1627,P24,
stim_fb/ques.jpg,stim_fb/negf.jpg,stim_fb/posf.jpg,stim_01/b.jpg,stim_01/a.jpg,1,1,f,4,33,273,6,f,1,0.649664637109,01,03,60.0223859254,PLT_learning_01,A,2014_Mrz_26_1627,P24,
stim_fb/ques.jpg,stim_fb/posf.jpg,stim_fb/negf.jpg,stim_01/e.jpg,stim_01/f.jpg,2,3,j,4,34,274,59,j,1,0.566527541898,01,03,60.0223859254,PLT_learning_01,A,2014_Mrz_26_1627,P24,
stim_fb/ques.jpg,stim_fb/negf.jpg,stim_fb/posf.jpg,stim_01/a.jpg,stim_01/b.jpg,2,1,j,4,35,275,10,j,1,0.533138156858,01,03,60.0223859254,PLT_learning_01,A,2014_Mrz_26_1627,P24,
stim_fb/ques.jpg,stim_fb/negf.jpg,stim_fb/posf.jpg,stim_01/c.jpg,stim_01/d.jpg,2,2,j,4,36,276,36,j,1,0.549904824777,01,03,60.0223859254,PLT_learning_01,A,2014_Mrz_26_1627,P24,
stim_fb/ques.jpg,stim_fb/negf.jpg,stim_fb/posf.jpg,stim_01/f.jpg,stim_01/e.jpg,1,3,f,4,37,277,44,j,0,0.616515081841,01,03,60.0223859254,PLT_learning_01,A,2014_Mrz_26_1627,P24,
stim_fb/ques.jpg,stim_fb/posf.jpg,stim_fb/negf.jpg,stim_01/e.jpg,stim_01/f.jpg,2,3,j,4,38,278,58,j,1,0.533195383494,01,03,60.0223859254,PLT_learning_01,A,2014_Mrz_26_1627,P24,
stim_fb/ques.jpg,stim_fb/negf.jpg,stim_fb/posf.jpg,stim_01/a.jpg,stim_01/b.jpg,2,1,j,4,39,279,12,j,1,0.666474591919,01,03,60.0223859254,PLT_learning_01,A,2014_Mrz_26_1627,P24,
stim_fb/ques.jpg,stim_fb/posf.jpg,stim_fb/negf.jpg,stim_01/b.jpg,stim_01/a.jpg,1,1,f,4,40,280,8,f,1,0.499922015624,01,03,60.0223859254,PLT_learning_01,A,2014_Mrz_26_1627,P24,
stim_fb/ques.jpg,stim_fb/negf.jpg,stim_fb/posf.jpg,stim_01/b.jpg,stim_01/a.jpg,1,1,f,4,41,281,3,f,1,0.399907823248,01,03,60.0223859254,PLT_learning_01,A,2014_Mrz_26_1627,P24,
stim_fb/ques.jpg,stim_fb/posf.jpg,stim_fb/negf.jpg,stim_01/a.jpg,stim_01/b.jpg,2,1,j,4,42,282,19,j,1,0.516530958412,01,03,60.0223859254,PLT_learning_01,A,2014_Mrz_26_1627,P24,
stim_fb/ques.jpg,stim_fb/negf.jpg,stim_fb/posf.jpg,stim_01/a.jpg,stim_01/b.jpg,2,1,j,4,43,283,17,j,1,0.49988905948,01,03,60.0223859254,PLT_learning_01,A,2014_Mrz_26_1627,P24,
stim_fb/ques.jpg,stim_fb/posf.jpg,stim_fb/negf.jpg,stim_01/c.jpg,stim_01/d.jpg,2,2,j,4,44,284,38,j,1,0.583179600151,01,03,60.0223859254,PLT_learning_01,A,2014_Mrz_26_1627,P24,
stim_fb/ques.jpg,stim_fb/negf.jpg,stim_fb/posf.jpg,stim_01/f.jpg,stim_01/e.jpg,1,3,f,4,45,285,45,f,1,0.833109173615,01,03,60.0223859254,PLT_learning_01,A,2014_Mrz_26_1627,P24,
stim_fb/ques.jpg,stim_fb/posf.jpg,stim_fb/negf.jpg,stim_01/c.jpg,stim_01/d.jpg,2,2,j,4,46,286,39,j,1,0.649843652303,01,03,60.0223859254,PLT_learning_01,A,2014_Mrz_26_1627,P24,
stim_fb/ques.jpg,stim_fb/negf.jpg,stim_fb/posf.jpg,stim_01/a.jpg,stim_01/b.jpg,2,1,j,4,47,287,11,j,1,1.29964118165,01,03,60.0223859254,PLT_learning_01,A,2014_Mrz_26_1627,P24,
stim_fb/ques.jpg,stim_fb/negf.jpg,stim_fb/posf.jpg,stim_01/b.jpg,stim_01/a.jpg,1,1,f,4,48,288,4,f,1,0.466548013923,01,03,60.0223859254,PLT_learning_01,A,2014_Mrz_26_1627,P24,
stim_fb/ques.jpg,stim_fb/negf.jpg,stim_fb/posf.jpg,stim_01/e.jpg,stim_01/f.jpg,2,3,j,4,49,289,53,j,1,0.683155010865,01,03,60.0223859254,PLT_learning_01,A,2014_Mrz_26_1627,P24,
stim_fb/ques.jpg,stim_fb/negf.jpg,stim_fb/posf.jpg,stim_01/b.jpg,stim_01/a.jpg,1,1,f,4,50,290,2,f,1,0.516532961406,01,03,60.0223859254,PLT_learning_01,A,2014_Mrz_26_1627,P24,
stim_fb/ques.jpg,stim_fb/negf.jpg,stim_fb/posf.jpg,stim_01/e.jpg,stim_01/f.jpg,2,3,j,4,51,291,50,j,1,0.583208679633,01,03,60.0223859254,PLT_learning_01,A,2014_Mrz_26_1627,P24,
stim_fb/ques.jpg,stim_fb/negf.jpg,stim_fb/posf.jpg,stim_01/d.jpg,stim_01/c.jpg,1,2,f,4,52,292,26,f,1,0.533186144465,01,03,60.0223859254,PLT_learning_01,A,2014_Mrz_26_1627,P24,
stim_fb/ques.jpg,stim_fb/negf.jpg,stim_fb/posf.jpg,stim_01/d.jpg,stim_01/c.jpg,1,2,f,4,53,293,22,f,1,0.716448850762,01,03,60.0223859254,PLT_learning_01,A,2014_Mrz_26_1627,P24,
stim_fb/ques.jpg,stim_fb/negf.jpg,stim_fb/posf.jpg,stim_01/a.jpg,stim_01/b.jpg,2,1,j,4,54,294,16,j,1,0.584132182466,01,03,60.0223859254,PLT_learning_01,A,2014_Mrz_26_1627,P24,
stim_fb/ques.jpg,stim_fb/posf.jpg,stim_fb/negf.jpg,stim_01/e.jpg,stim_01/f.jpg,2,3,j,4,55,295,56,j,1,0.49986570928,01,03,60.0223859254,PLT_learning_01,A,2014_Mrz_26_1627,P24,
stim_fb/ques.jpg,stim_fb/posf.jpg,stim_fb/negf.jpg,stim_01/d.jpg,stim_01/c.jpg,1,2,f,4,56,296,27,f,1,0.533184499363,01,03,60.0223859254,PLT_learning_01,A,2014_Mrz_26_1627,P24,
stim_fb/ques.jpg,stim_fb/negf.jpg,stim_fb/posf.jpg,stim_01/a.jpg,stim_01/b.jpg,2,1,j,4,57,297,15,j,1,0.449904265381,01,03,60.0223859254,PLT_learning_01,A,2014_Mrz_26_1627,P24,
stim_fb/ques.jpg,stim_fb/negf.jpg,stim_fb/posf.jpg,stim_01/c.jpg,stim_01/d.jpg,2,2,j,4,58,298,30,j,1,0.616514826204,01,03,60.0223859254,PLT_learning_01,A,2014_Mrz_26_1627,P24,
stim_fb/ques.jpg,stim_fb/negf.jpg,stim_fb/posf.jpg,stim_01/f.jpg,stim_01/e.jpg,1,3,f,4,59,299,43,f,1,1.21632571785,01,03,60.0223859254,PLT_learning_01,A,2014_Mrz_26_1627,P24,
stim_fb/ques.jpg,stim_fb/negf.jpg,stim_fb/posf.jpg,stim_01/d.jpg,stim_01/c.jpg,1,2,f,5,0,300,22,f,1,0.516553487567,01,03,60.0223859254,PLT_learning_01,A,2014_Mrz_26_1627,P24,
stim_fb/ques.jpg,stim_fb/negf.jpg,stim_fb/posf.jpg,stim_01/b.jpg,stim_01/a.jpg,1,1,f,5,1,301,6,f,1,0.466530098271,01,03,60.0223859254,PLT_learning_01,A,2014_Mrz_26_1627,P24,
stim_fb/ques.jpg,stim_fb/posf.jpg,stim_fb/negf.jpg,stim_01/e.jpg,stim_01/f.jpg,2,3,j,5,2,302,59,j,1,0.516594034631,01,03,60.0223859254,PLT_learning_01,A,2014_Mrz_26_1627,P24,
stim_fb/ques.jpg,stim_fb/negf.jpg,stim_fb/posf.jpg,stim_01/f.jpg,stim_01/e.jpg,1,3,f,5,3,303,43,f,1,0.466534946354,01,03,60.0223859254,PLT_learning_01,A,2014_Mrz_26_1627,P24,
stim_fb/ques.jpg,stim_fb/negf.jpg,stim_fb/posf.jpg,stim_01/e.jpg,stim_01/f.jpg,2,3,j,5,4,304,53,j,1,0.533502217277,01,03,60.0223859254,PLT_learning_01,A,2014_Mrz_26_1627,P24,
stim_fb/ques.jpg,stim_fb/posf.jpg,stim_fb/negf.jpg,stim_01/c.jpg,stim_01/d.jpg,2,2,j,5,5,305,38,j,1,0.583180691872,01,03,60.0223859254,PLT_learning_01,A,2014_Mrz_26_1627,P24,
stim_fb/ques.jpg,stim_fb/negf.jpg,stim_fb/posf.jpg,stim_01/f.jpg,stim_01/e.jpg,1,3,f,5,6,306,40,f,1,0.383239416245,01,03,60.0223859254,PLT_learning_01,A,2014_Mrz_26_1627,P24,
stim_fb/ques.jpg,stim_fb/posf.jpg,stim_fb/negf.jpg,stim_01/a.jpg,stim_01/b.jpg,2,1,j,5,7,307,19,j,1,0.4498456974,01,03,60.0223859254,PLT_learning_01,A,2014_Mrz_26_1627,P24,
stim_fb/ques.jpg,stim_fb/negf.jpg,stim_fb/posf.jpg,stim_01/a.jpg,stim_01/b.jpg,2,1,j,5,8,308,16,j,1,0.54989433162,01,03,60.0223859254,PLT_learning_01,A,2014_Mrz_26_1627,P24,
stim_fb/ques.jpg,stim_fb/negf.jpg,stim_fb/posf.jpg,stim_01/a.jpg,stim_01/b.jpg,2,1,j,5,9,309,12,j,1,0.416573731025,01,03,60.0223859254,PLT_learning_01,A,2014_Mrz_26_1627,P24,
stim_fb/ques.jpg,stim_fb/negf.jpg,stim_fb/posf.jpg,stim_01/e.jpg,stim_01/f.jpg,2,3,j,5,10,310,50,j,1,0.599898325578,01,03,60.0223859254,PLT_learning_01,A,2014_Mrz_26_1627,P24,
stim_fb/ques.jpg,stim_fb/negf.jpg,stim_fb/posf.jpg,stim_01/f.jpg,stim_01/e.jpg,1,3,f,5,11,311,41,f,1,0.549905883418,01,03,60.0223859254,PLT_learning_01,A,2014_Mrz_26_1627,P24,
stim_fb/ques.jpg,stim_fb/negf.jpg,stim_fb/posf.jpg,stim_01/c.jpg,stim_01/d.jpg,2,2,j,5,12,312,33,j,1,0.599840166615,01,03,60.0223859254,PLT_learning_01,A,2014_Mrz_26_1627,P24,
stim_fb/ques.jpg,stim_fb/posf.jpg,stim_fb/negf.jpg,stim_01/d.jpg,stim_01/c.jpg,1,2,f,5,13,313,29,f,1,0.583134698234,01,03,60.0223859254,PLT_learning_01,A,2014_Mrz_26_1627,P24,
stim_fb/ques.jpg,stim_fb/posf.jpg,stim_fb/negf.jpg,stim_01/b.jpg,stim_01/a.jpg,1,1,f,5,14,314,8,f,1,0.683201040592,01,03,60.0223859254,PLT_learning_01,A,2014_Mrz_26_1627,P24,
stim_fb/ques.jpg,stim_fb/posf.jpg,stim_fb/negf.jpg,stim_01/f.jpg,stim_01/e.jpg,1,3,f,5,15,315,46,f,1,0.566549427451,01,03,60.0223859254,PLT_learning_01,A,2014_Mrz_26_1627,P24,
stim_fb/ques.jpg,stim_fb/negf.jpg,stim_fb/posf.jpg,stim_01/b.jpg,stim_01/a.jpg,1,1,f,5,16,316,0,f,1,0.599841529012,01,03,60.0223859254,PLT_learning_01,A,2014_Mrz_26_1627,P24,
stim_fb/ques.jpg,stim_fb/negf.jpg,stim_fb/posf.jpg,stim_01/c.jpg,stim_01/d.jpg,2,2,j,5,17,317,30,j,1,0.649825348682,01,03,60.0223859254,PLT_learning_01,A,2014_Mrz_26_1627,P24,
stim_fb/ques.jpg,stim_fb/negf.jpg,stim_fb/posf.jpg,stim_01/c.jpg,stim_01/d.jpg,2,2,j,5,18,318,35,j,1,0.483225097556,01,03,60.0223859254,PLT_learning_01,A,2014_Mrz_26_1627,P24,
stim_fb/ques.jpg,stim_fb/posf.jpg,stim_fb/negf.jpg,stim_01/d.jpg,stim_01/c.jpg,1,2,f,5,19,319,27,f,1,0.899739168879,01,03,60.0223859254,PLT_learning_01,A,2014_Mrz_26_1627,P24,
stim_fb/ques.jpg,stim_fb/negf.jpg,stim_fb/posf.jpg,stim_01/d.jpg,stim_01/c.jpg,1,2,f,5,20,320,23,f,1,0.549903895462,01,03,60.0223859254,PLT_learning_01,A,2014_Mrz_26_1627,P24,
stim_fb/ques.jpg,stim_fb/negf.jpg,stim_fb/posf.jpg,stim_01/e.jpg,stim_01/f.jpg,2,3,j,5,21,321,52,j,1,0.616455810108,01,03,60.0223859254,PLT_learning_01,A,2014_Mrz_26_1627,P24,
stim_fb/ques.jpg,stim_fb/negf.jpg,stim_fb/posf.jpg,stim_01/a.jpg,stim_01/b.jpg,2,1,j,5,22,322,13,j,1,0.716493566215,01,03,60.0223859254,PLT_learning_01,A,2014_Mrz_26_1627,P24,
stim_fb/ques.jpg,stim_fb/posf.jpg,stim_fb/negf.jpg,stim_01/f.jpg,stim_01/e.jpg,1,3,f,5,23,323,48,f,1,0.499864864174,01,03,60.0223859254,PLT_learning_01,A,2014_Mrz_26_1627,P24,
stim_fb/ques.jpg,stim_fb/negf.jpg,stim_fb/posf.jpg,stim_01/a.jpg,stim_01/b.jpg,2,1,j,5,24,324,10,j,1,0.533200920294,01,03,60.0223859254,PLT_learning_01,A,2014_Mrz_26_1627,P24,
stim_fb/ques.jpg,stim_fb/posf.jpg,stim_fb/negf.jpg,stim_01/e.jpg,stim_01/f.jpg,2,3,j,5,25,325,58,j,1,0.516553646965,01,03,60.0223859254,PLT_learning_01,A,2014_Mrz_26_1627,P24,
stim_fb/ques.jpg,stim_fb/negf.jpg,stim_fb/posf.jpg,stim_01/a.jpg,stim_01/b.jpg,2,1,j,5,26,326,17,j,1,0.649843703432,01,03,60.0223859254,PLT_learning_01,A,2014_Mrz_26_1627,P24,
stim_fb/ques.jpg,stim_fb/negf.jpg,stim_fb/posf.jpg,stim_01/d.jpg,stim_01/c.jpg,1,2,f,5,27,327,24,f,1,0.516537003481,01,03,60.0223859254,PLT_learning_01,A,2014_Mrz_26_1627,P24,
stim_fb/ques.jpg,stim_fb/negf.jpg,stim_fb/posf.jpg,stim_01/b.jpg,stim_01/a.jpg,1,1,f,5,28,328,1,f,1,0.583178484372,01,03,60.0223859254,PLT_learning_01,A,2014_Mrz_26_1627,P24,
stim_fb/ques.jpg,stim_fb/negf.jpg,stim_fb/posf.jpg,stim_01/f.jpg,stim_01/e.jpg,1,3,f,5,29,329,42,f,1,0.566569006249,01,03,60.0223859254,PLT_learning_01,A,2014_Mrz_26_1627,P24,
stim_fb/ques.jpg,stim_fb/negf.jpg,stim_fb/posf.jpg,stim_01/c.jpg,stim_01/d.jpg,2,2,j,5,30,330,36,j,1,0.566521638182,01,03,60.0223859254,PLT_learning_01,A,2014_Mrz_26_1627,P24,
stim_fb/ques.jpg,stim_fb/negf.jpg,stim_fb/posf.jpg,stim_01/d.jpg,stim_01/c.jpg,1,2,f,5,31,331,26,f,1,0.46655388155,01,03,60.0223859254,PLT_learning_01,A,2014_Mrz_26_1627,P24,
stim_fb/ques.jpg,stim_fb/posf.jpg,stim_fb/negf.jpg,stim_01/f.jpg,stim_01/e.jpg,1,3,f,5,32,332,47,f,1,0.583174171621,01,03,60.0223859254,PLT_learning_01,A,2014_Mrz_26_1627,P24,
stim_fb/ques.jpg,stim_fb/negf.jpg,stim_fb/posf.jpg,stim_01/a.jpg,stim_01/b.jpg,2,1,j,5,33,333,11,j,1,0.716488381291,01,03,60.0223859254,PLT_learning_01,A,2014_Mrz_26_1627,P24,
stim_fb/ques.jpg,stim_fb/posf.jpg,stim_fb/negf.jpg,stim_01/a.jpg,stim_01/b.jpg,2,1,j,5,34,334,18,j,1,0.949786567016,01,03,60.0223859254,PLT_learning_01,A,2014_Mrz_26_1627,P24,
stim_fb/ques.jpg,stim_fb/negf.jpg,stim_fb/posf.jpg,stim_01/e.jpg,stim_01/f.jpg,2,3,j,5,35,335,55,j,1,0.44988960083,01,03,60.0223859254,PLT_learning_01,A,2014_Mrz_26_1627,P24,
stim_fb/ques.jpg,stim_fb/negf.jpg,stim_fb/posf.jpg,stim_01/b.jpg,stim_01/a.jpg,1,1,f,5,36,336,7,f,1,0.449914120945,01,03,60.0223859254,PLT_learning_01,A,2014_Mrz_26_1627,P24,
stim_fb/ques.jpg,stim_fb/posf.jpg,stim_fb/negf.jpg,stim_01/d.jpg,stim_01/c.jpg,1,2,f,5,37,337,28,f,1,0.566521842691,01,03,60.0223859254,PLT_learning_01,A,2014_Mrz_26_1627,P24,
stim_fb/ques.jpg,stim_fb/posf.jpg,stim_fb/negf.jpg,stim_01/e.jpg,stim_01/f.jpg,2,3,j,5,38,338,56,j,1,0.466565069437,01,03,60.0223859254,PLT_learning_01,A,2014_Mrz_26_1627,P24,
stim_fb/ques.jpg,stim_fb/negf.jpg,stim_fb/posf.jpg,stim_01/b.jpg,stim_01/a.jpg,1,1,f,5,39,339,2,f,1,0.566526952429,01,03,60.0223859254,PLT_learning_01,A,2014_Mrz_26_1627,P24,
stim_fb/ques.jpg,stim_fb/negf.jpg,stim_fb/posf.jpg,stim_01/d.jpg,stim_01/c.jpg,1,2,f,5,40,340,20,f,1,0.483284146736,01,03,60.0223859254,PLT_learning_01,A,2014_Mrz_26_1627,P24,
stim_fb/ques.jpg,stim_fb/negf.jpg,stim_fb/posf.jpg,stim_01/e.jpg,stim_01/f.jpg,2,3,j,5,41,341,54,j,1,0.816405560861,01,03,60.0223859254,PLT_learning_01,A,2014_Mrz_26_1627,P24,
stim_fb/ques.jpg,stim_fb/posf.jpg,stim_fb/negf.jpg,stim_01/b.jpg,stim_01/a.jpg,1,1,f,5,42,342,9,f,1,0.466575228758,01,03,60.0223859254,PLT_learning_01,A,2014_Mrz_26_1627,P24,
stim_fb/ques.jpg,stim_fb/negf.jpg,stim_fb/posf.jpg,stim_01/c.jpg,stim_01/d.jpg,2,2,j,5,43,343,34,j,1,0.649803261629,01,03,60.0223859254,PLT_learning_01,A,2014_Mrz_26_1627,P24,
stim_fb/ques.jpg,stim_fb/posf.jpg,stim_fb/negf.jpg,stim_01/c.jpg,stim_01/d.jpg,2,2,j,5,44,344,37,j,1,0.48318153698,01,03,60.0223859254,PLT_learning_01,A,2014_Mrz_26_1627,P24,
stim_fb/ques.jpg,stim_fb/posf.jpg,stim_fb/negf.jpg,stim_01/c.jpg,stim_01/d.jpg,2,2,j,5,45,345,39,j,1,0.433262814568,01,03,60.0223859254,PLT_learning_01,A,2014_Mrz_26_1627,P24,
stim_fb/ques.jpg,stim_fb/negf.jpg,stim_fb/posf.jpg,stim_01/f.jpg,stim_01/e.jpg,1,3,f,5,46,346,45,f,1,0.666581971564,01,03,60.0223859254,PLT_learning_01,A,2014_Mrz_26_1627,P24,
stim_fb/ques.jpg,stim_fb/negf.jpg,stim_fb/posf.jpg,stim_01/f.jpg,stim_01/e.jpg,1,3,f,5,47,347,44,f,1,0.516552056,01,03,60.0223859254,PLT_learning_01,A,2014_Mrz_26_1627,P24,
stim_fb/ques.jpg,stim_fb/negf.jpg,stim_fb/posf.jpg,stim_01/c.jpg,stim_01/d.jpg,2,2,j,5,48,348,31,j,1,0.54986419651,01,03,60.0223859254,PLT_learning_01,A,2014_Mrz_26_1627,P24,
stim_fb/ques.jpg,stim_fb/negf.jpg,stim_fb/posf.jpg,stim_01/d.jpg,stim_01/c.jpg,1,2,f,5,49,349,21,f,1,0.433204941317,01,03,60.0223859254,PLT_learning_01,A,2014_Mrz_26_1627,P24,
stim_fb/ques.jpg,stim_fb/negf.jpg,stim_fb/posf.jpg,stim_01/b.jpg,stim_01/a.jpg,1,1,f,5,50,350,5,f,1,0.549829357675,01,03,60.0223859254,PLT_learning_01,A,2014_Mrz_26_1627,P24,
stim_fb/ques.jpg,stim_fb/negf.jpg,stim_fb/posf.jpg,stim_01/e.jpg,stim_01/f.jpg,2,3,j,5,51,351,51,j,1,0.399919711883,01,03,60.0223859254,PLT_learning_01,A,2014_Mrz_26_1627,P24,
stim_fb/ques.jpg,stim_fb/posf.jpg,stim_fb/negf.jpg,stim_01/e.jpg,stim_01/f.jpg,2,3,j,5,52,352,57,j,1,0.499884812896,01,03,60.0223859254,PLT_learning_01,A,2014_Mrz_26_1627,P24,
stim_fb/ques.jpg,stim_fb/negf.jpg,stim_fb/posf.jpg,stim_01/a.jpg,stim_01/b.jpg,2,1,j,5,53,353,14,j,1,0.683155513118,01,03,60.0223859254,PLT_learning_01,A,2014_Mrz_26_1627,P24,
stim_fb/ques.jpg,stim_fb/negf.jpg,stim_fb/posf.jpg,stim_01/b.jpg,stim_01/a.jpg,1,1,f,5,54,354,4,f,1,0.466570825782,01,03,60.0223859254,PLT_learning_01,A,2014_Mrz_26_1627,P24,
stim_fb/ques.jpg,stim_fb/negf.jpg,stim_fb/posf.jpg,stim_01/c.jpg,stim_01/d.jpg,2,2,j,5,55,355,32,j,1,0.466572001715,01,03,60.0223859254,PLT_learning_01,A,2014_Mrz_26_1627,P24,
stim_fb/ques.jpg,stim_fb/posf.jpg,stim_fb/negf.jpg,stim_01/f.jpg,stim_01/e.jpg,1,3,f,5,56,356,49,j,0,0.583265292742,01,03,60.0223859254,PLT_learning_01,A,2014_Mrz_26_1627,P24,
stim_fb/ques.jpg,stim_fb/negf.jpg,stim_fb/posf.jpg,stim_01/a.jpg,stim_01/b.jpg,2,1,j,5,57,357,15,j,1,0.499918520913,01,03,60.0223859254,PLT_learning_01,A,2014_Mrz_26_1627,P24,
stim_fb/ques.jpg,stim_fb/negf.jpg,stim_fb/posf.jpg,stim_01/b.jpg,stim_01/a.jpg,1,1,f,5,58,358,3,f,1,0.466636843332,01,03,60.0223859254,PLT_learning_01,A,2014_Mrz_26_1627,P24,
stim_fb/ques.jpg,stim_fb/negf.jpg,stim_fb/posf.jpg,stim_01/d.jpg,stim_01/c.jpg,1,2,f,5,59,359,25,f,1,0.566522750956,01,03,60.0223859254,PLT_learning_01,A,2014_Mrz_26_1627,P24,
