Fb3,Fb2,Fb1,Symbol2,Symbol1,PosCond,Pair,Correct,trials.thisRepN,trials.thisTrialN,trials.thisN,trials.thisIndex,Response.keys,Response.corr,Response.rt,Version,Session Number,frameRate,expName,StimCondition,date,Participant,
stim_fb/ques.jpg,stim_fb/negf.jpg,stim_fb/posf.jpg,stim_02/d.jpg,stim_02/c.jpg,1,2,f,0,0,0,20,j,0,1.03306794986,02,02,60.0186372253,PLT_learning_02,A,2014_Mrz_12_1759,P25,
stim_fb/ques.jpg,stim_fb/posf.jpg,stim_fb/negf.jpg,stim_02/a.jpg,stim_02/b.jpg,2,1,j,0,1,1,19,j,1,0.899720835179,02,02,60.0186372253,PLT_learning_02,A,2014_Mrz_12_1759,P25,
stim_fb/ques.jpg,stim_fb/negf.jpg,stim_fb/posf.jpg,stim_02/c.jpg,stim_02/d.jpg,2,2,j,0,2,2,31,f,0,0.549874352826,02,02,60.0186372253,PLT_learning_02,A,2014_Mrz_12_1759,P25,
stim_fb/ques.jpg,stim_fb/negf.jpg,stim_fb/posf.jpg,stim_02/c.jpg,stim_02/d.jpg,2,2,j,0,3,3,30,f,0,0.766485975295,02,02,60.0186372253,PLT_learning_02,A,2014_Mrz_12_1759,P25,
stim_fb/ques.jpg,stim_fb/negf.jpg,stim_fb/posf.jpg,stim_02/d.jpg,stim_02/c.jpg,1,2,f,0,4,4,26,f,1,0.883081784348,02,02,60.0186372253,PLT_learning_02,A,2014_Mrz_12_1759,P25,
stim_fb/ques.jpg,stim_fb/negf.jpg,stim_fb/posf.jpg,stim_02/f.jpg,stim_02/e.jpg,1,3,f,0,5,5,42,j,0,0.733128568958,02,02,60.0186372253,PLT_learning_02,A,2014_Mrz_12_1759,P25,
stim_fb/ques.jpg,stim_fb/negf.jpg,stim_fb/posf.jpg,stim_02/e.jpg,stim_02/f.jpg,2,3,j,0,6,6,52,j,1,0.782984900863,02,02,60.0186372253,PLT_learning_02,A,2014_Mrz_12_1759,P25,
stim_fb/ques.jpg,stim_fb/negf.jpg,stim_fb/posf.jpg,stim_02/e.jpg,stim_02/f.jpg,2,3,j,0,7,7,53,j,1,0.516546810926,02,02,60.0186372253,PLT_learning_02,A,2014_Mrz_12_1759,P25,
stim_fb/ques.jpg,stim_fb/posf.jpg,stim_fb/negf.jpg,stim_02/d.jpg,stim_02/c.jpg,1,2,f,0,8,8,27,j,0,0.949752528177,02,02,60.0186372253,PLT_learning_02,A,2014_Mrz_12_1759,P25,
stim_fb/ques.jpg,stim_fb/negf.jpg,stim_fb/posf.jpg,stim_02/b.jpg,stim_02/a.jpg,1,1,f,0,9,9,5,j,0,1.01637701672,02,02,60.0186372253,PLT_learning_02,A,2014_Mrz_12_1759,P25,
stim_fb/ques.jpg,stim_fb/posf.jpg,stim_fb/negf.jpg,stim_02/e.jpg,stim_02/f.jpg,2,3,j,0,10,10,59,f,0,0.833153095089,02,02,60.0186372253,PLT_learning_02,A,2014_Mrz_12_1759,P25,
stim_fb/ques.jpg,stim_fb/negf.jpg,stim_fb/posf.jpg,stim_02/c.jpg,stim_02/d.jpg,2,2,j,0,11,11,34,f,0,0.883128692265,02,02,60.0186372253,PLT_learning_02,A,2014_Mrz_12_1759,P25,
stim_fb/ques.jpg,stim_fb/negf.jpg,stim_fb/posf.jpg,stim_02/e.jpg,stim_02/f.jpg,2,3,j,0,12,12,55,f,0,0.916405744319,02,02,60.0186372253,PLT_learning_02,A,2014_Mrz_12_1759,P25,
stim_fb/ques.jpg,stim_fb/negf.jpg,stim_fb/posf.jpg,stim_02/d.jpg,stim_02/c.jpg,1,2,f,0,13,13,22,j,0,0.849799463165,02,02,60.0186372253,PLT_learning_02,A,2014_Mrz_12_1759,P25,
stim_fb/ques.jpg,stim_fb/negf.jpg,stim_fb/posf.jpg,stim_02/b.jpg,stim_02/a.jpg,1,1,f,0,14,14,7,f,1,0.616494465456,02,02,60.0186372253,PLT_learning_02,A,2014_Mrz_12_1759,P25,
stim_fb/ques.jpg,stim_fb/posf.jpg,stim_fb/negf.jpg,stim_02/e.jpg,stim_02/f.jpg,2,3,j,0,15,15,56,f,0,1.0497030278,02,02,60.0186372253,PLT_learning_02,A,2014_Mrz_12_1759,P25,
stim_fb/ques.jpg,stim_fb/negf.jpg,stim_fb/posf.jpg,stim_02/d.jpg,stim_02/c.jpg,1,2,f,0,16,16,23,j,0,0.899799845112,02,02,60.0186372253,PLT_learning_02,A,2014_Mrz_12_1759,P25,
stim_fb/ques.jpg,stim_fb/negf.jpg,stim_fb/posf.jpg,stim_02/a.jpg,stim_02/b.jpg,2,1,j,0,17,17,12,j,1,0.716531740363,02,02,60.0186372253,PLT_learning_02,A,2014_Mrz_12_1759,P25,
stim_fb/ques.jpg,stim_fb/posf.jpg,stim_fb/negf.jpg,stim_02/a.jpg,stim_02/b.jpg,2,1,j,0,18,18,18,j,1,0.516565331087,02,02,60.0186372253,PLT_learning_02,A,2014_Mrz_12_1759,P25,
stim_fb/ques.jpg,stim_fb/negf.jpg,stim_fb/posf.jpg,stim_02/a.jpg,stim_02/b.jpg,2,1,j,0,19,19,15,j,1,0.683151750738,02,02,60.0186372253,PLT_learning_02,A,2014_Mrz_12_1759,P25,
stim_fb/ques.jpg,stim_fb/negf.jpg,stim_fb/posf.jpg,stim_02/c.jpg,stim_02/d.jpg,2,2,j,0,20,20,36,f,0,0.88306134841,02,02,60.0186372253,PLT_learning_02,A,2014_Mrz_12_1759,P25,
stim_fb/ques.jpg,stim_fb/negf.jpg,stim_fb/posf.jpg,stim_02/a.jpg,stim_02/b.jpg,2,1,j,0,21,21,17,j,1,0.649840747061,02,02,60.0186372253,PLT_learning_02,A,2014_Mrz_12_1759,P25,
stim_fb/ques.jpg,stim_fb/negf.jpg,stim_fb/posf.jpg,stim_02/c.jpg,stim_02/d.jpg,2,2,j,0,22,22,35,f,0,0.78312836144,02,02,60.0186372253,PLT_learning_02,A,2014_Mrz_12_1759,P25,
stim_fb/ques.jpg,stim_fb/posf.jpg,stim_fb/negf.jpg,stim_02/c.jpg,stim_02/d.jpg,2,2,j,0,23,23,38,f,0,0.749805637552,02,02,60.0186372253,PLT_learning_02,A,2014_Mrz_12_1759,P25,
stim_fb/ques.jpg,stim_fb/negf.jpg,stim_fb/posf.jpg,stim_02/b.jpg,stim_02/a.jpg,1,1,f,0,24,24,4,f,1,0.666523683281,02,02,60.0186372253,PLT_learning_02,A,2014_Mrz_12_1759,P25,
stim_fb/ques.jpg,stim_fb/posf.jpg,stim_fb/negf.jpg,stim_02/b.jpg,stim_02/a.jpg,1,1,f,0,25,25,9,f,1,0.633175197181,02,02,60.0186372253,PLT_learning_02,A,2014_Mrz_12_1759,P25,
stim_fb/ques.jpg,stim_fb/negf.jpg,stim_fb/posf.jpg,stim_02/f.jpg,stim_02/e.jpg,1,3,f,0,26,26,45,j,0,0.699825132142,02,02,60.0186372253,PLT_learning_02,A,2014_Mrz_12_1759,P25,
stim_fb/ques.jpg,stim_fb/negf.jpg,stim_fb/posf.jpg,stim_02/b.jpg,stim_02/a.jpg,1,1,f,0,27,27,6,f,1,0.599844040269,02,02,60.0186372253,PLT_learning_02,A,2014_Mrz_12_1759,P25,
stim_fb/ques.jpg,stim_fb/posf.jpg,stim_fb/negf.jpg,stim_02/b.jpg,stim_02/a.jpg,1,1,f,0,28,28,8,f,1,0.666502197728,02,02,60.0186372253,PLT_learning_02,A,2014_Mrz_12_1759,P25,
stim_fb/ques.jpg,stim_fb/negf.jpg,stim_fb/posf.jpg,stim_02/b.jpg,stim_02/a.jpg,1,1,f,0,29,29,2,f,1,0.899789586547,02,02,60.0186372253,PLT_learning_02,A,2014_Mrz_12_1759,P25,
stim_fb/ques.jpg,stim_fb/negf.jpg,stim_fb/posf.jpg,stim_02/b.jpg,stim_02/a.jpg,1,1,f,0,30,30,3,j,0,0.649832699004,02,02,60.0186372253,PLT_learning_02,A,2014_Mrz_12_1759,P25,
stim_fb/ques.jpg,stim_fb/posf.jpg,stim_fb/negf.jpg,stim_02/f.jpg,stim_02/e.jpg,1,3,f,0,31,31,48,j,0,0.733174887406,02,02,60.0186372253,PLT_learning_02,A,2014_Mrz_12_1759,P25,
stim_fb/ques.jpg,stim_fb/negf.jpg,stim_fb/posf.jpg,stim_02/e.jpg,stim_02/f.jpg,2,3,j,0,32,32,51,f,0,0.583215741233,02,02,60.0186372253,PLT_learning_02,A,2014_Mrz_12_1759,P25,
stim_fb/ques.jpg,stim_fb/posf.jpg,stim_fb/negf.jpg,stim_02/e.jpg,stim_02/f.jpg,2,3,j,0,33,33,57,j,1,0.86643072759,02,02,60.0186372253,PLT_learning_02,A,2014_Mrz_12_1759,P25,
stim_fb/ques.jpg,stim_fb/negf.jpg,stim_fb/posf.jpg,stim_02/a.jpg,stim_02/b.jpg,2,1,j,0,34,34,13,j,1,0.649849086847,02,02,60.0186372253,PLT_learning_02,A,2014_Mrz_12_1759,P25,
stim_fb/ques.jpg,stim_fb/negf.jpg,stim_fb/posf.jpg,stim_02/d.jpg,stim_02/c.jpg,1,2,f,0,35,35,24,f,1,0.849823321627,02,02,60.0186372253,PLT_learning_02,A,2014_Mrz_12_1759,P25,
stim_fb/ques.jpg,stim_fb/posf.jpg,stim_fb/negf.jpg,stim_02/d.jpg,stim_02/c.jpg,1,2,f,0,36,36,28,j,0,0.683160959692,02,02,60.0186372253,PLT_learning_02,A,2014_Mrz_12_1759,P25,
stim_fb/ques.jpg,stim_fb/negf.jpg,stim_fb/posf.jpg,stim_02/a.jpg,stim_02/b.jpg,2,1,j,0,37,37,14,j,1,0.966397840617,02,02,60.0186372253,PLT_learning_02,A,2014_Mrz_12_1759,P25,
stim_fb/ques.jpg,stim_fb/negf.jpg,stim_fb/posf.jpg,stim_02/b.jpg,stim_02/a.jpg,1,1,f,0,38,38,0,j,0,0.716490919614,02,02,60.0186372253,PLT_learning_02,A,2014_Mrz_12_1759,P25,
stim_fb/ques.jpg,stim_fb/posf.jpg,stim_fb/negf.jpg,stim_02/f.jpg,stim_02/e.jpg,1,3,f,0,39,39,47,j,0,0.749811742771,02,02,60.0186372253,PLT_learning_02,A,2014_Mrz_12_1759,P25,
stim_fb/ques.jpg,stim_fb/negf.jpg,stim_fb/posf.jpg,stim_02/f.jpg,stim_02/e.jpg,1,3,f,0,40,40,40,f,1,0.633182890357,02,02,60.0186372253,PLT_learning_02,A,2014_Mrz_12_1759,P25,
stim_fb/ques.jpg,stim_fb/posf.jpg,stim_fb/negf.jpg,stim_02/f.jpg,stim_02/e.jpg,1,3,f,0,41,41,49,j,0,0.816460456688,02,02,60.0186372253,PLT_learning_02,A,2014_Mrz_12_1759,P25,
stim_fb/ques.jpg,stim_fb/negf.jpg,stim_fb/posf.jpg,stim_02/f.jpg,stim_02/e.jpg,1,3,f,0,42,42,44,j,0,0.749800326314,02,02,60.0186372253,PLT_learning_02,A,2014_Mrz_12_1759,P25,
stim_fb/ques.jpg,stim_fb/negf.jpg,stim_fb/posf.jpg,stim_02/f.jpg,stim_02/e.jpg,1,3,f,0,43,43,41,j,0,0.799788314373,02,02,60.0186372253,PLT_learning_02,A,2014_Mrz_12_1759,P25,
stim_fb/ques.jpg,stim_fb/posf.jpg,stim_fb/negf.jpg,stim_02/c.jpg,stim_02/d.jpg,2,2,j,0,44,44,39,f,0,0.766508723995,02,02,60.0186372253,PLT_learning_02,A,2014_Mrz_12_1759,P25,
stim_fb/ques.jpg,stim_fb/negf.jpg,stim_fb/posf.jpg,stim_02/d.jpg,stim_02/c.jpg,1,2,f,0,45,45,25,f,1,0.71650522327,02,02,60.0186372253,PLT_learning_02,A,2014_Mrz_12_1759,P25,
stim_fb/ques.jpg,stim_fb/posf.jpg,stim_fb/negf.jpg,stim_02/f.jpg,stim_02/e.jpg,1,3,f,0,46,46,46,f,1,0.949721114877,02,02,60.0186372253,PLT_learning_02,A,2014_Mrz_12_1759,P25,
stim_fb/ques.jpg,stim_fb/negf.jpg,stim_fb/posf.jpg,stim_02/f.jpg,stim_02/e.jpg,1,3,f,0,47,47,43,j,0,0.649838398207,02,02,60.0186372253,PLT_learning_02,A,2014_Mrz_12_1759,P25,
stim_fb/ques.jpg,stim_fb/negf.jpg,stim_fb/posf.jpg,stim_02/e.jpg,stim_02/f.jpg,2,3,j,0,48,48,50,f,0,0.666517223177,02,02,60.0186372253,PLT_learning_02,A,2014_Mrz_12_1759,P25,
stim_fb/ques.jpg,stim_fb/negf.jpg,stim_fb/posf.jpg,stim_02/c.jpg,stim_02/d.jpg,2,2,j,0,49,49,33,f,0,0.749799369929,02,02,60.0186372253,PLT_learning_02,A,2014_Mrz_12_1759,P25,
stim_fb/ques.jpg,stim_fb/posf.jpg,stim_fb/negf.jpg,stim_02/c.jpg,stim_02/d.jpg,2,2,j,0,50,50,37,f,0,0.783131994496,02,02,60.0186372253,PLT_learning_02,A,2014_Mrz_12_1759,P25,
stim_fb/ques.jpg,stim_fb/negf.jpg,stim_fb/posf.jpg,stim_02/c.jpg,stim_02/d.jpg,2,2,j,0,51,51,32,j,1,0.733142526748,02,02,60.0186372253,PLT_learning_02,A,2014_Mrz_12_1759,P25,
stim_fb/ques.jpg,stim_fb/negf.jpg,stim_fb/posf.jpg,stim_02/d.jpg,stim_02/c.jpg,1,2,f,0,52,52,21,f,1,0.78312470733,02,02,60.0186372253,PLT_learning_02,A,2014_Mrz_12_1759,P25,
stim_fb/ques.jpg,stim_fb/negf.jpg,stim_fb/posf.jpg,stim_02/a.jpg,stim_02/b.jpg,2,1,j,0,53,53,16,f,0,0.833064731843,02,02,60.0186372253,PLT_learning_02,A,2014_Mrz_12_1759,P25,
stim_fb/ques.jpg,stim_fb/negf.jpg,stim_fb/posf.jpg,stim_02/b.jpg,stim_02/a.jpg,1,1,f,0,54,54,1,f,1,0.699788705348,02,02,60.0186372253,PLT_learning_02,A,2014_Mrz_12_1759,P25,
stim_fb/ques.jpg,stim_fb/posf.jpg,stim_fb/negf.jpg,stim_02/e.jpg,stim_02/f.jpg,2,3,j,0,55,55,58,j,1,0.816455689808,02,02,60.0186372253,PLT_learning_02,A,2014_Mrz_12_1759,P25,
stim_fb/ques.jpg,stim_fb/negf.jpg,stim_fb/posf.jpg,stim_02/a.jpg,stim_02/b.jpg,2,1,j,0,56,56,10,j,1,0.766460161951,02,02,60.0186372253,PLT_learning_02,A,2014_Mrz_12_1759,P25,
stim_fb/ques.jpg,stim_fb/negf.jpg,stim_fb/posf.jpg,stim_02/e.jpg,stim_02/f.jpg,2,3,j,0,57,57,54,j,1,0.849785758004,02,02,60.0186372253,PLT_learning_02,A,2014_Mrz_12_1759,P25,
stim_fb/ques.jpg,stim_fb/posf.jpg,stim_fb/negf.jpg,stim_02/d.jpg,stim_02/c.jpg,1,2,f,0,58,58,29,f,1,0.799792852686,02,02,60.0186372253,PLT_learning_02,A,2014_Mrz_12_1759,P25,
stim_fb/ques.jpg,stim_fb/negf.jpg,stim_fb/posf.jpg,stim_02/a.jpg,stim_02/b.jpg,2,1,j,0,59,59,11,j,1,0.783117648738,02,02,60.0186372253,PLT_learning_02,A,2014_Mrz_12_1759,P25,
stim_fb/ques.jpg,stim_fb/negf.jpg,stim_fb/posf.jpg,stim_02/b.jpg,stim_02/a.jpg,1,1,f,1,0,60,2,f,1,0.616516738974,02,02,60.0186372253,PLT_learning_02,A,2014_Mrz_12_1759,P25,
stim_fb/ques.jpg,stim_fb/negf.jpg,stim_fb/posf.jpg,stim_02/b.jpg,stim_02/a.jpg,1,1,f,1,1,61,0,f,1,0.616480077591,02,02,60.0186372253,PLT_learning_02,A,2014_Mrz_12_1759,P25,
stim_fb/ques.jpg,stim_fb/negf.jpg,stim_fb/posf.jpg,stim_02/c.jpg,stim_02/d.jpg,2,2,j,1,2,62,31,j,1,0.983057826634,02,02,60.0186372253,PLT_learning_02,A,2014_Mrz_12_1759,P25,
stim_fb/ques.jpg,stim_fb/negf.jpg,stim_fb/posf.jpg,stim_02/e.jpg,stim_02/f.jpg,2,3,j,1,3,63,55,f,0,0.699868816024,02,02,60.0186372253,PLT_learning_02,A,2014_Mrz_12_1759,P25,
stim_fb/ques.jpg,stim_fb/posf.jpg,stim_fb/negf.jpg,stim_02/e.jpg,stim_02/f.jpg,2,3,j,1,4,64,58,f,0,0.733126487772,02,02,60.0186372253,PLT_learning_02,A,2014_Mrz_12_1759,P25,
stim_fb/ques.jpg,stim_fb/negf.jpg,stim_fb/posf.jpg,stim_02/e.jpg,stim_02/f.jpg,2,3,j,1,5,65,52,f,0,0.63312170585,02,02,60.0186372253,PLT_learning_02,A,2014_Mrz_12_1759,P25,
stim_fb/ques.jpg,stim_fb/negf.jpg,stim_fb/posf.jpg,stim_02/c.jpg,stim_02/d.jpg,2,2,j,1,6,66,32,j,1,0.833158523619,02,02,60.0186372253,PLT_learning_02,A,2014_Mrz_12_1759,P25,
stim_fb/ques.jpg,stim_fb/posf.jpg,stim_fb/negf.jpg,stim_02/a.jpg,stim_02/b.jpg,2,1,j,1,7,67,18,j,1,0.983048166556,02,02,60.0186372253,PLT_learning_02,A,2014_Mrz_12_1759,P25,
stim_fb/ques.jpg,stim_fb/negf.jpg,stim_fb/posf.jpg,stim_02/b.jpg,stim_02/a.jpg,1,1,f,1,8,68,4,f,1,0.7331487673,02,02,60.0186372253,PLT_learning_02,A,2014_Mrz_12_1759,P25,
stim_fb/ques.jpg,stim_fb/negf.jpg,stim_fb/posf.jpg,stim_02/b.jpg,stim_02/a.jpg,1,1,f,1,9,69,6,j,0,0.899756913106,02,02,60.0186372253,PLT_learning_02,A,2014_Mrz_12_1759,P25,
stim_fb/ques.jpg,stim_fb/negf.jpg,stim_fb/posf.jpg,stim_02/b.jpg,stim_02/a.jpg,1,1,f,1,10,70,5,f,1,0.549880006914,02,02,60.0186372253,PLT_learning_02,A,2014_Mrz_12_1759,P25,
stim_fb/ques.jpg,stim_fb/posf.jpg,stim_fb/negf.jpg,stim_02/e.jpg,stim_02/f.jpg,2,3,j,1,11,71,56,j,1,0.916412381863,02,02,60.0186372253,PLT_learning_02,A,2014_Mrz_12_1759,P25,
stim_fb/ques.jpg,stim_fb/posf.jpg,stim_fb/negf.jpg,stim_02/c.jpg,stim_02/d.jpg,2,2,j,1,12,72,39,f,0,0.84976987241,02,02,60.0186372253,PLT_learning_02,A,2014_Mrz_12_1759,P25,
stim_fb/ques.jpg,stim_fb/negf.jpg,stim_fb/posf.jpg,stim_02/c.jpg,stim_02/d.jpg,2,2,j,1,13,73,30,j,1,0.966407596934,02,02,60.0186372253,PLT_learning_02,A,2014_Mrz_12_1759,P25,
stim_fb/ques.jpg,stim_fb/negf.jpg,stim_fb/posf.jpg,stim_02/f.jpg,stim_02/e.jpg,1,3,f,1,14,74,44,j,0,1.14966885662,02,02,60.0186372253,PLT_learning_02,A,2014_Mrz_12_1759,P25,
stim_fb/ques.jpg,stim_fb/posf.jpg,stim_fb/negf.jpg,stim_02/c.jpg,stim_02/d.jpg,2,2,j,1,15,75,38,j,1,0.816450661274,02,02,60.0186372253,PLT_learning_02,A,2014_Mrz_12_1759,P25,
stim_fb/ques.jpg,stim_fb/negf.jpg,stim_fb/posf.jpg,stim_02/a.jpg,stim_02/b.jpg,2,1,j,1,16,76,12,f,0,0.999769857368,02,02,60.0186372253,PLT_learning_02,A,2014_Mrz_12_1759,P25,
stim_fb/ques.jpg,stim_fb/negf.jpg,stim_fb/posf.jpg,stim_02/b.jpg,stim_02/a.jpg,1,1,f,1,17,77,7,f,1,0.816440935032,02,02,60.0186372253,PLT_learning_02,A,2014_Mrz_12_1759,P25,
stim_fb/ques.jpg,stim_fb/posf.jpg,stim_fb/negf.jpg,stim_02/a.jpg,stim_02/b.jpg,2,1,j,1,18,78,19,j,1,0.699862016078,02,02,60.0186372253,PLT_learning_02,A,2014_Mrz_12_1759,P25,
stim_fb/ques.jpg,stim_fb/posf.jpg,stim_fb/negf.jpg,stim_02/f.jpg,stim_02/e.jpg,1,3,f,1,19,79,47,j,0,0.716486188827,02,02,60.0186372253,PLT_learning_02,A,2014_Mrz_12_1759,P25,
stim_fb/ques.jpg,stim_fb/negf.jpg,stim_fb/posf.jpg,stim_02/d.jpg,stim_02/c.jpg,1,2,f,1,20,80,22,f,1,0.883106388676,02,02,60.0186372253,PLT_learning_02,A,2014_Mrz_12_1759,P25,
stim_fb/ques.jpg,stim_fb/posf.jpg,stim_fb/negf.jpg,stim_02/d.jpg,stim_02/c.jpg,1,2,f,1,21,81,29,j,0,0.649797748891,02,02,60.0186372253,PLT_learning_02,A,2014_Mrz_12_1759,P25,
stim_fb/ques.jpg,stim_fb/posf.jpg,stim_fb/negf.jpg,stim_02/b.jpg,stim_02/a.jpg,1,1,f,1,22,82,8,f,1,0.849736335818,02,02,60.0186372253,PLT_learning_02,A,2014_Mrz_12_1759,P25,
stim_fb/ques.jpg,stim_fb/negf.jpg,stim_fb/posf.jpg,stim_02/d.jpg,stim_02/c.jpg,1,2,f,1,23,83,23,j,0,0.999738588431,02,02,60.0186372253,PLT_learning_02,A,2014_Mrz_12_1759,P25,
stim_fb/ques.jpg,stim_fb/negf.jpg,stim_fb/posf.jpg,stim_02/e.jpg,stim_02/f.jpg,2,3,j,1,24,84,50,f,0,0.783130295262,02,02,60.0186372253,PLT_learning_02,A,2014_Mrz_12_1759,P25,
stim_fb/ques.jpg,stim_fb/negf.jpg,stim_fb/posf.jpg,stim_02/c.jpg,stim_02/d.jpg,2,2,j,1,25,85,36,j,1,0.98302850956,02,02,60.0186372253,PLT_learning_02,A,2014_Mrz_12_1759,P25,
stim_fb/ques.jpg,stim_fb/negf.jpg,stim_fb/posf.jpg,stim_02/f.jpg,stim_02/e.jpg,1,3,f,1,26,86,40,f,1,0.949748997376,02,02,60.0186372253,PLT_learning_02,A,2014_Mrz_12_1759,P25,
stim_fb/ques.jpg,stim_fb/posf.jpg,stim_fb/negf.jpg,stim_02/c.jpg,stim_02/d.jpg,2,2,j,1,27,87,37,j,1,0.899763959671,02,02,60.0186372253,PLT_learning_02,A,2014_Mrz_12_1759,P25,
stim_fb/ques.jpg,stim_fb/negf.jpg,stim_fb/posf.jpg,stim_02/d.jpg,stim_02/c.jpg,1,2,f,1,28,88,26,f,1,0.766466444613,02,02,60.0186372253,PLT_learning_02,A,2014_Mrz_12_1759,P25,
stim_fb/ques.jpg,stim_fb/posf.jpg,stim_fb/negf.jpg,stim_02/d.jpg,stim_02/c.jpg,1,2,f,1,29,89,28,f,1,0.533210769841,02,02,60.0186372253,PLT_learning_02,A,2014_Mrz_12_1759,P25,
stim_fb/ques.jpg,stim_fb/negf.jpg,stim_fb/posf.jpg,stim_02/a.jpg,stim_02/b.jpg,2,1,j,1,30,90,14,j,1,1.01636236419,02,02,60.0186372253,PLT_learning_02,A,2014_Mrz_12_1759,P25,
stim_fb/ques.jpg,stim_fb/negf.jpg,stim_fb/posf.jpg,stim_02/e.jpg,stim_02/f.jpg,2,3,j,1,31,91,53,j,1,0.86645025526,02,02,60.0186372253,PLT_learning_02,A,2014_Mrz_12_1759,P25,
stim_fb/ques.jpg,stim_fb/negf.jpg,stim_fb/posf.jpg,stim_02/d.jpg,stim_02/c.jpg,1,2,f,1,32,92,25,j,0,0.966403064638,02,02,60.0186372253,PLT_learning_02,A,2014_Mrz_12_1759,P25,
stim_fb/ques.jpg,stim_fb/negf.jpg,stim_fb/posf.jpg,stim_02/a.jpg,stim_02/b.jpg,2,1,j,1,33,93,13,j,1,0.733134538837,02,02,60.0186372253,PLT_learning_02,A,2014_Mrz_12_1759,P25,
stim_fb/ques.jpg,stim_fb/negf.jpg,stim_fb/posf.jpg,stim_02/f.jpg,stim_02/e.jpg,1,3,f,1,34,94,45,j,0,0.69980118646,02,02,60.0186372253,PLT_learning_02,A,2014_Mrz_12_1759,P25,
stim_fb/ques.jpg,stim_fb/posf.jpg,stim_fb/negf.jpg,stim_02/e.jpg,stim_02/f.jpg,2,3,j,1,35,95,59,f,0,0.866418920159,02,02,60.0186372253,PLT_learning_02,A,2014_Mrz_12_1759,P25,
stim_fb/ques.jpg,stim_fb/negf.jpg,stim_fb/posf.jpg,stim_02/c.jpg,stim_02/d.jpg,2,2,j,1,36,96,33,j,1,0.999730672702,02,02,60.0186372253,PLT_learning_02,A,2014_Mrz_12_1759,P25,
stim_fb/ques.jpg,stim_fb/negf.jpg,stim_fb/posf.jpg,stim_02/a.jpg,stim_02/b.jpg,2,1,j,1,37,97,15,j,1,0.816378273848,02,02,60.0186372253,PLT_learning_02,A,2014_Mrz_12_1759,P25,
stim_fb/ques.jpg,stim_fb/negf.jpg,stim_fb/posf.jpg,stim_02/d.jpg,stim_02/c.jpg,1,2,f,1,38,98,20,f,1,0.883091706077,02,02,60.0186372253,PLT_learning_02,A,2014_Mrz_12_1759,P25,
stim_fb/ques.jpg,stim_fb/negf.jpg,stim_fb/posf.jpg,stim_02/c.jpg,stim_02/d.jpg,2,2,j,1,39,99,34,j,1,0.78309542936,02,02,60.0186372253,PLT_learning_02,A,2014_Mrz_12_1759,P25,
stim_fb/ques.jpg,stim_fb/posf.jpg,stim_fb/negf.jpg,stim_02/f.jpg,stim_02/e.jpg,1,3,f,1,40,100,49,j,0,0.833110710442,02,02,60.0186372253,PLT_learning_02,A,2014_Mrz_12_1759,P25,
stim_fb/ques.jpg,stim_fb/negf.jpg,stim_fb/posf.jpg,stim_02/b.jpg,stim_02/a.jpg,1,1,f,1,41,101,1,f,1,0.64983296366,02,02,60.0186372253,PLT_learning_02,A,2014_Mrz_12_1759,P25,
stim_fb/ques.jpg,stim_fb/negf.jpg,stim_fb/posf.jpg,stim_02/a.jpg,stim_02/b.jpg,2,1,j,1,42,102,16,j,1,0.6832316539,02,02,60.0186372253,PLT_learning_02,A,2014_Mrz_12_1759,P25,
stim_fb/ques.jpg,stim_fb/negf.jpg,stim_fb/posf.jpg,stim_02/f.jpg,stim_02/e.jpg,1,3,f,1,43,103,43,j,0,0.666510976611,02,02,60.0186372253,PLT_learning_02,A,2014_Mrz_12_1759,P25,
stim_fb/ques.jpg,stim_fb/negf.jpg,stim_fb/posf.jpg,stim_02/f.jpg,stim_02/e.jpg,1,3,f,1,44,104,41,f,1,0.816459864211,02,02,60.0186372253,PLT_learning_02,A,2014_Mrz_12_1759,P25,
stim_fb/ques.jpg,stim_fb/posf.jpg,stim_fb/negf.jpg,stim_02/b.jpg,stim_02/a.jpg,1,1,f,1,45,105,9,f,1,0.916481536227,02,02,60.0186372253,PLT_learning_02,A,2014_Mrz_12_1759,P25,
stim_fb/ques.jpg,stim_fb/posf.jpg,stim_fb/negf.jpg,stim_02/f.jpg,stim_02/e.jpg,1,3,f,1,46,106,48,f,1,1.08303149901,02,02,60.0186372253,PLT_learning_02,A,2014_Mrz_12_1759,P25,
stim_fb/ques.jpg,stim_fb/negf.jpg,stim_fb/posf.jpg,stim_02/f.jpg,stim_02/e.jpg,1,3,f,1,47,107,42,j,0,0.766428294522,02,02,60.0186372253,PLT_learning_02,A,2014_Mrz_12_1759,P25,
stim_fb/ques.jpg,stim_fb/negf.jpg,stim_fb/posf.jpg,stim_02/a.jpg,stim_02/b.jpg,2,1,j,1,48,108,11,f,0,1.03304484026,02,02,60.0186372253,PLT_learning_02,A,2014_Mrz_12_1759,P25,
stim_fb/ques.jpg,stim_fb/negf.jpg,stim_fb/posf.jpg,stim_02/a.jpg,stim_02/b.jpg,2,1,j,1,49,109,10,j,1,0.66649810152,02,02,60.0186372253,PLT_learning_02,A,2014_Mrz_12_1759,P25,
stim_fb/ques.jpg,stim_fb/negf.jpg,stim_fb/posf.jpg,stim_02/e.jpg,stim_02/f.jpg,2,3,j,1,50,110,54,j,1,1.14968031518,02,02,60.0186372253,PLT_learning_02,A,2014_Mrz_12_1759,P25,
stim_fb/ques.jpg,stim_fb/negf.jpg,stim_fb/posf.jpg,stim_02/e.jpg,stim_02/f.jpg,2,3,j,1,51,111,51,j,1,0.716471828033,02,02,60.0186372253,PLT_learning_02,A,2014_Mrz_12_1759,P25,
stim_fb/ques.jpg,stim_fb/negf.jpg,stim_fb/posf.jpg,stim_02/c.jpg,stim_02/d.jpg,2,2,j,1,52,112,35,j,1,1.06636392208,02,02,60.0186372253,PLT_learning_02,A,2014_Mrz_12_1759,P25,
stim_fb/ques.jpg,stim_fb/posf.jpg,stim_fb/negf.jpg,stim_02/e.jpg,stim_02/f.jpg,2,3,j,1,53,113,57,j,1,0.666483776815,02,02,60.0186372253,PLT_learning_02,A,2014_Mrz_12_1759,P25,
stim_fb/ques.jpg,stim_fb/posf.jpg,stim_fb/negf.jpg,stim_02/d.jpg,stim_02/c.jpg,1,2,f,1,54,114,27,f,1,0.799795147403,02,02,60.0186372253,PLT_learning_02,A,2014_Mrz_12_1759,P25,
stim_fb/ques.jpg,stim_fb/negf.jpg,stim_fb/posf.jpg,stim_02/a.jpg,stim_02/b.jpg,2,1,j,1,55,115,17,j,1,0.78315428305,02,02,60.0186372253,PLT_learning_02,A,2014_Mrz_12_1759,P25,
stim_fb/ques.jpg,stim_fb/posf.jpg,stim_fb/negf.jpg,stim_02/f.jpg,stim_02/e.jpg,1,3,f,1,56,116,46,f,1,0.799653019149,02,02,60.0186372253,PLT_learning_02,A,2014_Mrz_12_1759,P25,
stim_fb/ques.jpg,stim_fb/negf.jpg,stim_fb/posf.jpg,stim_02/d.jpg,stim_02/c.jpg,1,2,f,1,57,117,24,f,1,0.799789099328,02,02,60.0186372253,PLT_learning_02,A,2014_Mrz_12_1759,P25,
stim_fb/ques.jpg,stim_fb/negf.jpg,stim_fb/posf.jpg,stim_02/d.jpg,stim_02/c.jpg,1,2,f,1,58,118,21,f,1,0.81646249878,02,02,60.0186372253,PLT_learning_02,A,2014_Mrz_12_1759,P25,
stim_fb/ques.jpg,stim_fb/negf.jpg,stim_fb/posf.jpg,stim_02/b.jpg,stim_02/a.jpg,1,1,f,1,59,119,3,j,0,0.966435623792,02,02,60.0186372253,PLT_learning_02,A,2014_Mrz_12_1759,P25,
stim_fb/ques.jpg,stim_fb/negf.jpg,stim_fb/posf.jpg,stim_02/b.jpg,stim_02/a.jpg,1,1,f,2,0,120,6,f,1,0.716466471684,02,02,60.0186372253,PLT_learning_02,A,2014_Mrz_12_1759,P25,
stim_fb/ques.jpg,stim_fb/posf.jpg,stim_fb/negf.jpg,stim_02/c.jpg,stim_02/d.jpg,2,2,j,2,1,121,39,j,1,1.16634002752,02,02,60.0186372253,PLT_learning_02,A,2014_Mrz_12_1759,P25,
stim_fb/ques.jpg,stim_fb/posf.jpg,stim_fb/negf.jpg,stim_02/d.jpg,stim_02/c.jpg,1,2,f,2,2,122,29,f,1,0.783088978278,02,02,60.0186372253,PLT_learning_02,A,2014_Mrz_12_1759,P25,
stim_fb/ques.jpg,stim_fb/negf.jpg,stim_fb/posf.jpg,stim_02/a.jpg,stim_02/b.jpg,2,1,j,2,3,123,17,j,1,0.949693891023,02,02,60.0186372253,PLT_learning_02,A,2014_Mrz_12_1759,P25,
stim_fb/ques.jpg,stim_fb/negf.jpg,stim_fb/posf.jpg,stim_02/a.jpg,stim_02/b.jpg,2,1,j,2,4,124,16,j,1,0.599826861449,02,02,60.0186372253,PLT_learning_02,A,2014_Mrz_12_1759,P25,
stim_fb/ques.jpg,stim_fb/negf.jpg,stim_fb/posf.jpg,stim_02/e.jpg,stim_02/f.jpg,2,3,j,2,5,125,50,j,1,0.983064428088,02,02,60.0186372253,PLT_learning_02,A,2014_Mrz_12_1759,P25,
stim_fb/ques.jpg,stim_fb/negf.jpg,stim_fb/posf.jpg,stim_02/e.jpg,stim_02/f.jpg,2,3,j,2,6,126,53,j,1,0.63317369343,02,02,60.0186372253,PLT_learning_02,A,2014_Mrz_12_1759,P25,
stim_fb/ques.jpg,stim_fb/posf.jpg,stim_fb/negf.jpg,stim_02/a.jpg,stim_02/b.jpg,2,1,j,2,7,127,19,j,1,0.983061375478,02,02,60.0186372253,PLT_learning_02,A,2014_Mrz_12_1759,P25,
stim_fb/ques.jpg,stim_fb/posf.jpg,stim_fb/negf.jpg,stim_02/f.jpg,stim_02/e.jpg,1,3,f,2,8,128,47,f,1,0.93308152871,02,02,60.0186372253,PLT_learning_02,A,2014_Mrz_12_1759,P25,
stim_fb/ques.jpg,stim_fb/posf.jpg,stim_fb/negf.jpg,stim_02/c.jpg,stim_02/d.jpg,2,2,j,2,9,129,38,j,1,0.733148382344,02,02,60.0186372253,PLT_learning_02,A,2014_Mrz_12_1759,P25,
stim_fb/ques.jpg,stim_fb/posf.jpg,stim_fb/negf.jpg,stim_02/e.jpg,stim_02/f.jpg,2,3,j,2,10,130,58,f,0,0.816328481742,02,02,60.0186372253,PLT_learning_02,A,2014_Mrz_12_1759,P25,
stim_fb/ques.jpg,stim_fb/negf.jpg,stim_fb/posf.jpg,stim_02/f.jpg,stim_02/e.jpg,1,3,f,2,11,131,45,j,0,0.716486676039,02,02,60.0186372253,PLT_learning_02,A,2014_Mrz_12_1759,P25,
stim_fb/ques.jpg,stim_fb/negf.jpg,stim_fb/posf.jpg,stim_02/c.jpg,stim_02/d.jpg,2,2,j,2,12,132,30,j,1,0.783110078872,02,02,60.0186372253,PLT_learning_02,A,2014_Mrz_12_1759,P25,
stim_fb/ques.jpg,stim_fb/negf.jpg,stim_fb/posf.jpg,stim_02/d.jpg,stim_02/c.jpg,1,2,f,2,13,133,24,f,1,0.616513963054,02,02,60.0186372253,PLT_learning_02,A,2014_Mrz_12_1759,P25,
stim_fb/ques.jpg,stim_fb/negf.jpg,stim_fb/posf.jpg,stim_02/f.jpg,stim_02/e.jpg,1,3,f,2,14,134,44,j,0,1.03305367328,02,02,60.0186372253,PLT_learning_02,A,2014_Mrz_12_1759,P25,
stim_fb/ques.jpg,stim_fb/posf.jpg,stim_fb/negf.jpg,stim_02/d.jpg,stim_02/c.jpg,1,2,f,2,15,135,27,f,1,0.816441304953,02,02,60.0186372253,PLT_learning_02,A,2014_Mrz_12_1759,P25,
stim_fb/ques.jpg,stim_fb/negf.jpg,stim_fb/posf.jpg,stim_02/c.jpg,stim_02/d.jpg,2,2,j,2,16,136,32,j,1,0.766474339289,02,02,60.0186372253,PLT_learning_02,A,2014_Mrz_12_1759,P25,
stim_fb/ques.jpg,stim_fb/negf.jpg,stim_fb/posf.jpg,stim_02/a.jpg,stim_02/b.jpg,2,1,j,2,17,137,14,j,1,0.849784609141,02,02,60.0186372253,PLT_learning_02,A,2014_Mrz_12_1759,P25,
stim_fb/ques.jpg,stim_fb/negf.jpg,stim_fb/posf.jpg,stim_02/d.jpg,stim_02/c.jpg,1,2,f,2,18,138,23,f,1,0.8164434102,02,02,60.0186372253,PLT_learning_02,A,2014_Mrz_12_1759,P25,
stim_fb/ques.jpg,stim_fb/negf.jpg,stim_fb/posf.jpg,stim_02/f.jpg,stim_02/e.jpg,1,3,f,2,19,139,42,j,0,0.949731283225,02,02,60.0186372253,PLT_learning_02,A,2014_Mrz_12_1759,P25,
stim_fb/ques.jpg,stim_fb/negf.jpg,stim_fb/posf.jpg,stim_02/f.jpg,stim_02/e.jpg,1,3,f,2,20,140,40,f,1,0.566568534072,02,02,60.0186372253,PLT_learning_02,A,2014_Mrz_12_1759,P25,
stim_fb/ques.jpg,stim_fb/negf.jpg,stim_fb/posf.jpg,stim_02/d.jpg,stim_02/c.jpg,1,2,f,2,21,141,22,f,1,0.933088319638,02,02,60.0186372253,PLT_learning_02,A,2014_Mrz_12_1759,P25,
stim_fb/ques.jpg,stim_fb/negf.jpg,stim_fb/posf.jpg,stim_02/c.jpg,stim_02/d.jpg,2,2,j,2,22,142,35,j,1,0.833081913668,02,02,60.0186372253,PLT_learning_02,A,2014_Mrz_12_1759,P25,
stim_fb/ques.jpg,stim_fb/negf.jpg,stim_fb/posf.jpg,stim_02/b.jpg,stim_02/a.jpg,1,1,f,2,23,143,4,f,1,0.849766759649,02,02,60.0186372253,PLT_learning_02,A,2014_Mrz_12_1759,P25,
stim_fb/ques.jpg,stim_fb/negf.jpg,stim_fb/posf.jpg,stim_02/e.jpg,stim_02/f.jpg,2,3,j,2,24,144,52,f,0,0.599853483807,02,02,60.0186372253,PLT_learning_02,A,2014_Mrz_12_1759,P25,
stim_fb/ques.jpg,stim_fb/negf.jpg,stim_fb/posf.jpg,stim_02/a.jpg,stim_02/b.jpg,2,1,j,2,25,145,12,j,1,0.766426941151,02,02,60.0186372253,PLT_learning_02,A,2014_Mrz_12_1759,P25,
stim_fb/ques.jpg,stim_fb/negf.jpg,stim_fb/posf.jpg,stim_02/d.jpg,stim_02/c.jpg,1,2,f,2,26,146,26,f,1,0.933082229458,02,02,60.0186372253,PLT_learning_02,A,2014_Mrz_12_1759,P25,
stim_fb/ques.jpg,stim_fb/posf.jpg,stim_fb/negf.jpg,stim_02/d.jpg,stim_02/c.jpg,1,2,f,2,27,147,28,f,1,0.783010133757,02,02,60.0186372253,PLT_learning_02,A,2014_Mrz_12_1759,P25,
stim_fb/ques.jpg,stim_fb/negf.jpg,stim_fb/posf.jpg,stim_02/a.jpg,stim_02/b.jpg,2,1,j,2,28,148,10,j,1,0.683156956715,02,02,60.0186372253,PLT_learning_02,A,2014_Mrz_12_1759,P25,
stim_fb/ques.jpg,stim_fb/negf.jpg,stim_fb/posf.jpg,stim_02/c.jpg,stim_02/d.jpg,2,2,j,2,29,149,34,j,1,0.783148803392,02,02,60.0186372253,PLT_learning_02,A,2014_Mrz_12_1759,P25,
stim_fb/ques.jpg,stim_fb/posf.jpg,stim_fb/negf.jpg,stim_02/f.jpg,stim_02/e.jpg,1,3,f,2,30,150,46,f,1,0.983038401213,02,02,60.0186372253,PLT_learning_02,A,2014_Mrz_12_1759,P25,
stim_fb/ques.jpg,stim_fb/posf.jpg,stim_fb/negf.jpg,stim_02/c.jpg,stim_02/d.jpg,2,2,j,2,31,151,37,j,1,0.866440177138,02,02,60.0186372253,PLT_learning_02,A,2014_Mrz_12_1759,P25,
stim_fb/ques.jpg,stim_fb/posf.jpg,stim_fb/negf.jpg,stim_02/e.jpg,stim_02/f.jpg,2,3,j,2,32,152,59,f,0,0.716496200777,02,02,60.0186372253,PLT_learning_02,A,2014_Mrz_12_1759,P25,
stim_fb/ques.jpg,stim_fb/posf.jpg,stim_fb/negf.jpg,stim_02/b.jpg,stim_02/a.jpg,1,1,f,2,33,153,8,f,1,0.899743048547,02,02,60.0186372253,PLT_learning_02,A,2014_Mrz_12_1759,P25,
stim_fb/ques.jpg,stim_fb/negf.jpg,stim_fb/posf.jpg,stim_02/c.jpg,stim_02/d.jpg,2,2,j,2,34,154,33,j,1,0.983051186078,02,02,60.0186372253,PLT_learning_02,A,2014_Mrz_12_1759,P25,
stim_fb/ques.jpg,stim_fb/posf.jpg,stim_fb/negf.jpg,stim_02/f.jpg,stim_02/e.jpg,1,3,f,2,35,155,49,j,0,0.799769060384,02,02,60.0186372253,PLT_learning_02,A,2014_Mrz_12_1759,P25,
stim_fb/ques.jpg,stim_fb/negf.jpg,stim_fb/posf.jpg,stim_02/b.jpg,stim_02/a.jpg,1,1,f,2,36,156,5,f,1,0.799816266044,02,02,60.0186372253,PLT_learning_02,A,2014_Mrz_12_1759,P25,
stim_fb/ques.jpg,stim_fb/negf.jpg,stim_fb/posf.jpg,stim_02/d.jpg,stim_02/c.jpg,1,2,f,2,37,157,25,f,1,0.583252222164,02,02,60.0186372253,PLT_learning_02,A,2014_Mrz_12_1759,P25,
stim_fb/ques.jpg,stim_fb/posf.jpg,stim_fb/negf.jpg,stim_02/a.jpg,stim_02/b.jpg,2,1,j,2,38,158,18,j,1,0.583251307882,02,02,60.0186372253,PLT_learning_02,A,2014_Mrz_12_1759,P25,
stim_fb/ques.jpg,stim_fb/negf.jpg,stim_fb/posf.jpg,stim_02/e.jpg,stim_02/f.jpg,2,3,j,2,39,159,54,f,0,0.616553628919,02,02,60.0186372253,PLT_learning_02,A,2014_Mrz_12_1759,P25,
stim_fb/ques.jpg,stim_fb/negf.jpg,stim_fb/posf.jpg,stim_02/e.jpg,stim_02/f.jpg,2,3,j,2,40,160,55,j,1,0.616505566122,02,02,60.0186372253,PLT_learning_02,A,2014_Mrz_12_1759,P25,
stim_fb/ques.jpg,stim_fb/posf.jpg,stim_fb/negf.jpg,stim_02/f.jpg,stim_02/e.jpg,1,3,f,2,41,161,48,f,1,0.516505987172,02,02,60.0186372253,PLT_learning_02,A,2014_Mrz_12_1759,P25,
stim_fb/ques.jpg,stim_fb/negf.jpg,stim_fb/posf.jpg,stim_02/c.jpg,stim_02/d.jpg,2,2,j,2,42,162,31,j,1,0.799812130736,02,02,60.0186372253,PLT_learning_02,A,2014_Mrz_12_1759,P25,
stim_fb/ques.jpg,stim_fb/posf.jpg,stim_fb/negf.jpg,stim_02/e.jpg,stim_02/f.jpg,2,3,j,2,43,163,56,j,1,0.816465641608,02,02,60.0186372253,PLT_learning_02,A,2014_Mrz_12_1759,P25,
stim_fb/ques.jpg,stim_fb/negf.jpg,stim_fb/posf.jpg,stim_02/a.jpg,stim_02/b.jpg,2,1,j,2,44,164,15,f,0,0.883085715144,02,02,60.0186372253,PLT_learning_02,A,2014_Mrz_12_1759,P25,
stim_fb/ques.jpg,stim_fb/negf.jpg,stim_fb/posf.jpg,stim_02/f.jpg,stim_02/e.jpg,1,3,f,2,45,165,43,j,0,0.549900072932,02,02,60.0186372253,PLT_learning_02,A,2014_Mrz_12_1759,P25,
stim_fb/ques.jpg,stim_fb/negf.jpg,stim_fb/posf.jpg,stim_02/c.jpg,stim_02/d.jpg,2,2,j,2,46,166,36,j,1,0.766491716604,02,02,60.0186372253,PLT_learning_02,A,2014_Mrz_12_1759,P25,
stim_fb/ques.jpg,stim_fb/negf.jpg,stim_fb/posf.jpg,stim_02/b.jpg,stim_02/a.jpg,1,1,f,2,47,167,1,f,1,1.09967005962,02,02,60.0186372253,PLT_learning_02,A,2014_Mrz_12_1759,P25,
stim_fb/ques.jpg,stim_fb/negf.jpg,stim_fb/posf.jpg,stim_02/a.jpg,stim_02/b.jpg,2,1,j,2,48,168,11,j,1,0.966394860188,02,02,60.0186372253,PLT_learning_02,A,2014_Mrz_12_1759,P25,
stim_fb/ques.jpg,stim_fb/negf.jpg,stim_fb/posf.jpg,stim_02/d.jpg,stim_02/c.jpg,1,2,f,2,49,169,20,f,1,1.04969903685,02,02,60.0186372253,PLT_learning_02,A,2014_Mrz_12_1759,P25,
stim_fb/ques.jpg,stim_fb/negf.jpg,stim_fb/posf.jpg,stim_02/b.jpg,stim_02/a.jpg,1,1,f,2,50,170,2,f,1,0.733105997697,02,02,60.0186372253,PLT_learning_02,A,2014_Mrz_12_1759,P25,
stim_fb/ques.jpg,stim_fb/negf.jpg,stim_fb/posf.jpg,stim_02/e.jpg,stim_02/f.jpg,2,3,j,2,51,171,51,j,1,1.08302166149,02,02,60.0186372253,PLT_learning_02,A,2014_Mrz_12_1759,P25,
stim_fb/ques.jpg,stim_fb/negf.jpg,stim_fb/posf.jpg,stim_02/a.jpg,stim_02/b.jpg,2,1,j,2,52,172,13,j,1,0.849776356568,02,02,60.0186372253,PLT_learning_02,A,2014_Mrz_12_1759,P25,
stim_fb/ques.jpg,stim_fb/negf.jpg,stim_fb/posf.jpg,stim_02/b.jpg,stim_02/a.jpg,1,1,f,2,53,173,3,f,1,0.649880064058,02,02,60.0186372253,PLT_learning_02,A,2014_Mrz_12_1759,P25,
stim_fb/ques.jpg,stim_fb/posf.jpg,stim_fb/negf.jpg,stim_02/e.jpg,stim_02/f.jpg,2,3,j,2,54,174,57,j,1,1.14967137089,02,02,60.0186372253,PLT_learning_02,A,2014_Mrz_12_1759,P25,
stim_fb/ques.jpg,stim_fb/posf.jpg,stim_fb/negf.jpg,stim_02/b.jpg,stim_02/a.jpg,1,1,f,2,55,175,9,f,1,0.883083570799,02,02,60.0186372253,PLT_learning_02,A,2014_Mrz_12_1759,P25,
stim_fb/ques.jpg,stim_fb/negf.jpg,stim_fb/posf.jpg,stim_02/d.jpg,stim_02/c.jpg,1,2,f,2,56,176,21,f,1,1.01643072759,02,02,60.0186372253,PLT_learning_02,A,2014_Mrz_12_1759,P25,
stim_fb/ques.jpg,stim_fb/negf.jpg,stim_fb/posf.jpg,stim_02/f.jpg,stim_02/e.jpg,1,3,f,2,57,177,41,j,0,0.81646779197,02,02,60.0186372253,PLT_learning_02,A,2014_Mrz_12_1759,P25,
stim_fb/ques.jpg,stim_fb/negf.jpg,stim_fb/posf.jpg,stim_02/b.jpg,stim_02/a.jpg,1,1,f,2,58,178,7,j,0,1.03303196517,02,02,60.0186372253,PLT_learning_02,A,2014_Mrz_12_1759,P25,
stim_fb/ques.jpg,stim_fb/negf.jpg,stim_fb/posf.jpg,stim_02/b.jpg,stim_02/a.jpg,1,1,f,2,59,179,0,f,1,0.683159768723,02,02,60.0186372253,PLT_learning_02,A,2014_Mrz_12_1759,P25,
stim_fb/ques.jpg,stim_fb/negf.jpg,stim_fb/posf.jpg,stim_02/d.jpg,stim_02/c.jpg,1,2,f,3,0,180,20,f,1,0.78313971173,02,02,60.0186372253,PLT_learning_02,A,2014_Mrz_12_1759,P25,
stim_fb/ques.jpg,stim_fb/negf.jpg,stim_fb/posf.jpg,stim_02/d.jpg,stim_02/c.jpg,1,2,f,3,1,181,23,f,1,0.58324372298,02,02,60.0186372253,PLT_learning_02,A,2014_Mrz_12_1759,P25,
stim_fb/ques.jpg,stim_fb/negf.jpg,stim_fb/posf.jpg,stim_02/b.jpg,stim_02/a.jpg,1,1,f,3,2,182,1,j,0,1.16628976023,02,02,60.0186372253,PLT_learning_02,A,2014_Mrz_12_1759,P25,
stim_fb/ques.jpg,stim_fb/negf.jpg,stim_fb/posf.jpg,stim_02/b.jpg,stim_02/a.jpg,1,1,f,3,3,183,7,f,1,0.566545827474,02,02,60.0186372253,PLT_learning_02,A,2014_Mrz_12_1759,P25,
stim_fb/ques.jpg,stim_fb/negf.jpg,stim_fb/posf.jpg,stim_02/b.jpg,stim_02/a.jpg,1,1,f,3,4,184,0,f,1,0.583193891776,02,02,60.0186372253,PLT_learning_02,A,2014_Mrz_12_1759,P25,
stim_fb/ques.jpg,stim_fb/posf.jpg,stim_fb/negf.jpg,stim_02/d.jpg,stim_02/c.jpg,1,2,f,3,5,185,29,f,1,0.933097645884,02,02,60.0186372253,PLT_learning_02,A,2014_Mrz_12_1759,P25,
stim_fb/ques.jpg,stim_fb/negf.jpg,stim_fb/posf.jpg,stim_02/f.jpg,stim_02/e.jpg,1,3,f,3,6,186,43,j,0,0.849786681305,02,02,60.0186372253,PLT_learning_02,A,2014_Mrz_12_1759,P25,
stim_fb/ques.jpg,stim_fb/posf.jpg,stim_fb/negf.jpg,stim_02/e.jpg,stim_02/f.jpg,2,3,j,3,7,187,57,f,0,0.799806927767,02,02,60.0186372253,PLT_learning_02,A,2014_Mrz_12_1759,P25,
stim_fb/ques.jpg,stim_fb/posf.jpg,stim_fb/negf.jpg,stim_02/c.jpg,stim_02/d.jpg,2,2,j,3,8,188,39,j,1,0.649842951556,02,02,60.0186372253,PLT_learning_02,A,2014_Mrz_12_1759,P25,
stim_fb/ques.jpg,stim_fb/negf.jpg,stim_fb/posf.jpg,stim_02/f.jpg,stim_02/e.jpg,1,3,f,3,9,189,41,j,0,1.01638674296,02,02,60.0186372253,PLT_learning_02,A,2014_Mrz_12_1759,P25,
stim_fb/ques.jpg,stim_fb/negf.jpg,stim_fb/posf.jpg,stim_02/a.jpg,stim_02/b.jpg,2,1,j,3,10,190,11,j,1,0.833088948202,02,02,60.0186372253,PLT_learning_02,A,2014_Mrz_12_1759,P25,
stim_fb/ques.jpg,stim_fb/negf.jpg,stim_fb/posf.jpg,stim_02/a.jpg,stim_02/b.jpg,2,1,j,3,11,191,14,j,1,0.649843291405,02,02,60.0186372253,PLT_learning_02,A,2014_Mrz_12_1759,P25,
stim_fb/ques.jpg,stim_fb/negf.jpg,stim_fb/posf.jpg,stim_02/b.jpg,stim_02/a.jpg,1,1,f,3,12,192,6,f,1,0.699816278073,02,02,60.0186372253,PLT_learning_02,A,2014_Mrz_12_1759,P25,
stim_fb/ques.jpg,stim_fb/posf.jpg,stim_fb/negf.jpg,stim_02/c.jpg,stim_02/d.jpg,2,2,j,3,13,193,37,j,1,0.933081609914,02,02,60.0186372253,PLT_learning_02,A,2014_Mrz_12_1759,P25,
stim_fb/ques.jpg,stim_fb/negf.jpg,stim_fb/posf.jpg,stim_02/e.jpg,stim_02/f.jpg,2,3,j,3,14,194,54,f,0,0.899757460473,02,02,60.0186372253,PLT_learning_02,A,2014_Mrz_12_1759,P25,
stim_fb/ques.jpg,stim_fb/negf.jpg,stim_fb/posf.jpg,stim_02/b.jpg,stim_02/a.jpg,1,1,f,3,15,195,4,f,1,0.983036046346,02,02,60.0186372253,PLT_learning_02,A,2014_Mrz_12_1759,P25,
stim_fb/ques.jpg,stim_fb/negf.jpg,stim_fb/posf.jpg,stim_02/e.jpg,stim_02/f.jpg,2,3,j,3,16,196,53,j,1,0.883097940619,02,02,60.0186372253,PLT_learning_02,A,2014_Mrz_12_1759,P25,
stim_fb/ques.jpg,stim_fb/negf.jpg,stim_fb/posf.jpg,stim_02/e.jpg,stim_02/f.jpg,2,3,j,3,17,197,52,j,1,0.666494381247,02,02,60.0186372253,PLT_learning_02,A,2014_Mrz_12_1759,P25,
stim_fb/ques.jpg,stim_fb/negf.jpg,stim_fb/posf.jpg,stim_02/d.jpg,stim_02/c.jpg,1,2,f,3,18,198,26,f,1,1.06632467124,02,02,60.0186372253,PLT_learning_02,A,2014_Mrz_12_1759,P25,
stim_fb/ques.jpg,stim_fb/posf.jpg,stim_fb/negf.jpg,stim_02/c.jpg,stim_02/d.jpg,2,2,j,3,19,199,38,j,1,0.766483036969,02,02,60.0186372253,PLT_learning_02,A,2014_Mrz_12_1759,P25,
stim_fb/ques.jpg,stim_fb/negf.jpg,stim_fb/posf.jpg,stim_02/c.jpg,stim_02/d.jpg,2,2,j,3,20,200,30,f,0,0.816500504508,02,02,60.0186372253,PLT_learning_02,A,2014_Mrz_12_1759,P25,
stim_fb/ques.jpg,stim_fb/posf.jpg,stim_fb/negf.jpg,stim_02/b.jpg,stim_02/a.jpg,1,1,f,3,21,201,8,j,0,0.816473265615,02,02,60.0186372253,PLT_learning_02,A,2014_Mrz_12_1759,P25,
stim_fb/ques.jpg,stim_fb/negf.jpg,stim_fb/posf.jpg,stim_02/f.jpg,stim_02/e.jpg,1,3,f,3,22,202,44,f,1,0.916410574358,02,02,60.0186372253,PLT_learning_02,A,2014_Mrz_12_1759,P25,
stim_fb/ques.jpg,stim_fb/negf.jpg,stim_fb/posf.jpg,stim_02/d.jpg,stim_02/c.jpg,1,2,f,3,23,203,21,f,1,0.799789288802,02,02,60.0186372253,PLT_learning_02,A,2014_Mrz_12_1759,P25,
stim_fb/ques.jpg,stim_fb/negf.jpg,stim_fb/posf.jpg,stim_02/f.jpg,stim_02/e.jpg,1,3,f,3,24,204,40,j,0,0.666503842829,02,02,60.0186372253,PLT_learning_02,A,2014_Mrz_12_1759,P25,
stim_fb/ques.jpg,stim_fb/negf.jpg,stim_fb/posf.jpg,stim_02/c.jpg,stim_02/d.jpg,2,2,j,3,25,205,32,f,0,0.749834683949,02,02,60.0186372253,PLT_learning_02,A,2014_Mrz_12_1759,P25,
stim_fb/ques.jpg,stim_fb/negf.jpg,stim_fb/posf.jpg,stim_02/b.jpg,stim_02/a.jpg,1,1,f,3,26,206,5,j,0,1.01638321516,02,02,60.0186372253,PLT_learning_02,A,2014_Mrz_12_1759,P25,
stim_fb/ques.jpg,stim_fb/negf.jpg,stim_fb/posf.jpg,stim_02/a.jpg,stim_02/b.jpg,2,1,j,3,27,207,16,j,1,1.03304445831,02,02,60.0186372253,PLT_learning_02,A,2014_Mrz_12_1759,P25,
stim_fb/ques.jpg,stim_fb/negf.jpg,stim_fb/posf.jpg,stim_02/f.jpg,stim_02/e.jpg,1,3,f,3,28,208,45,j,0,0.999741481643,02,02,60.0186372253,PLT_learning_02,A,2014_Mrz_12_1759,P25,
stim_fb/ques.jpg,stim_fb/negf.jpg,stim_fb/posf.jpg,stim_02/a.jpg,stim_02/b.jpg,2,1,j,3,29,209,13,j,1,0.699793321855,02,02,60.0186372253,PLT_learning_02,A,2014_Mrz_12_1759,P25,
stim_fb/ques.jpg,stim_fb/negf.jpg,stim_fb/posf.jpg,stim_02/f.jpg,stim_02/e.jpg,1,3,f,3,30,210,42,f,1,0.699768275426,02,02,60.0186372253,PLT_learning_02,A,2014_Mrz_12_1759,P25,
stim_fb/ques.jpg,stim_fb/posf.jpg,stim_fb/negf.jpg,stim_02/b.jpg,stim_02/a.jpg,1,1,f,3,31,211,9,f,1,0.74985069285,02,02,60.0186372253,PLT_learning_02,A,2014_Mrz_12_1759,P25,
stim_fb/ques.jpg,stim_fb/negf.jpg,stim_fb/posf.jpg,stim_02/a.jpg,stim_02/b.jpg,2,1,j,3,32,212,15,j,1,0.549894154181,02,02,60.0186372253,PLT_learning_02,A,2014_Mrz_12_1759,P25,
stim_fb/ques.jpg,stim_fb/posf.jpg,stim_fb/negf.jpg,stim_02/d.jpg,stim_02/c.jpg,1,2,f,3,33,213,27,f,1,0.883076175371,02,02,60.0186372253,PLT_learning_02,A,2014_Mrz_12_1759,P25,
stim_fb/ques.jpg,stim_fb/negf.jpg,stim_fb/posf.jpg,stim_02/e.jpg,stim_02/f.jpg,2,3,j,3,34,214,51,j,1,0.716509764585,02,02,60.0186372253,PLT_learning_02,A,2014_Mrz_12_1759,P25,
stim_fb/ques.jpg,stim_fb/posf.jpg,stim_fb/negf.jpg,stim_02/f.jpg,stim_02/e.jpg,1,3,f,3,35,215,49,f,1,1.09966213788,02,02,60.0186372253,PLT_learning_02,A,2014_Mrz_12_1759,P25,
stim_fb/ques.jpg,stim_fb/negf.jpg,stim_fb/posf.jpg,stim_02/d.jpg,stim_02/c.jpg,1,2,f,3,36,216,25,j,0,0.94973287118,02,02,60.0186372253,PLT_learning_02,A,2014_Mrz_12_1759,P25,
stim_fb/ques.jpg,stim_fb/negf.jpg,stim_fb/posf.jpg,stim_02/a.jpg,stim_02/b.jpg,2,1,j,3,37,217,10,f,0,0.86643344336,02,02,60.0186372253,PLT_learning_02,A,2014_Mrz_12_1759,P25,
stim_fb/ques.jpg,stim_fb/negf.jpg,stim_fb/posf.jpg,stim_02/c.jpg,stim_02/d.jpg,2,2,j,3,38,218,35,j,1,0.599849327449,02,02,60.0186372253,PLT_learning_02,A,2014_Mrz_12_1759,P25,
stim_fb/ques.jpg,stim_fb/posf.jpg,stim_fb/negf.jpg,stim_02/a.jpg,stim_02/b.jpg,2,1,j,3,39,219,18,j,1,1.08302009759,02,02,60.0186372253,PLT_learning_02,A,2014_Mrz_12_1759,P25,
stim_fb/ques.jpg,stim_fb/negf.jpg,stim_fb/posf.jpg,stim_02/a.jpg,stim_02/b.jpg,2,1,j,3,40,220,17,j,1,0.749791691793,02,02,60.0186372253,PLT_learning_02,A,2014_Mrz_12_1759,P25,
stim_fb/ques.jpg,stim_fb/posf.jpg,stim_fb/negf.jpg,stim_02/e.jpg,stim_02/f.jpg,2,3,j,3,41,221,56,f,0,0.633194075232,02,02,60.0186372253,PLT_learning_02,A,2014_Mrz_12_1759,P25,
stim_fb/ques.jpg,stim_fb/negf.jpg,stim_fb/posf.jpg,stim_02/c.jpg,stim_02/d.jpg,2,2,j,3,42,222,33,j,1,0.883088376781,02,02,60.0186372253,PLT_learning_02,A,2014_Mrz_12_1759,P25,
stim_fb/ques.jpg,stim_fb/negf.jpg,stim_fb/posf.jpg,stim_02/c.jpg,stim_02/d.jpg,2,2,j,3,43,223,31,j,1,1.08306618747,02,02,60.0186372253,PLT_learning_02,A,2014_Mrz_12_1759,P25,
stim_fb/ques.jpg,stim_fb/posf.jpg,stim_fb/negf.jpg,stim_02/d.jpg,stim_02/c.jpg,1,2,f,3,44,224,28,f,1,0.966365137105,02,02,60.0186372253,PLT_learning_02,A,2014_Mrz_12_1759,P25,
stim_fb/ques.jpg,stim_fb/posf.jpg,stim_fb/negf.jpg,stim_02/f.jpg,stim_02/e.jpg,1,3,f,3,45,225,46,f,1,0.799802353366,02,02,60.0186372253,PLT_learning_02,A,2014_Mrz_12_1759,P25,
stim_fb/ques.jpg,stim_fb/posf.jpg,stim_fb/negf.jpg,stim_02/e.jpg,stim_02/f.jpg,2,3,j,3,46,226,59,j,1,0.733069919774,02,02,60.0186372253,PLT_learning_02,A,2014_Mrz_12_1759,P25,
stim_fb/ques.jpg,stim_fb/negf.jpg,stim_fb/posf.jpg,stim_02/e.jpg,stim_02/f.jpg,2,3,j,3,47,227,50,f,0,0.599873345316,02,02,60.0186372253,PLT_learning_02,A,2014_Mrz_12_1759,P25,
stim_fb/ques.jpg,stim_fb/negf.jpg,stim_fb/posf.jpg,stim_02/c.jpg,stim_02/d.jpg,2,2,j,3,48,228,34,j,1,0.733149561282,02,02,60.0186372253,PLT_learning_02,A,2014_Mrz_12_1759,P25,
stim_fb/ques.jpg,stim_fb/negf.jpg,stim_fb/posf.jpg,stim_02/b.jpg,stim_02/a.jpg,1,1,f,3,49,229,3,f,1,0.766447942497,02,02,60.0186372253,PLT_learning_02,A,2014_Mrz_12_1759,P25,
stim_fb/ques.jpg,stim_fb/negf.jpg,stim_fb/posf.jpg,stim_02/e.jpg,stim_02/f.jpg,2,3,j,3,50,230,55,j,1,0.916399741356,02,02,60.0186372253,PLT_learning_02,A,2014_Mrz_12_1759,P25,
stim_fb/ques.jpg,stim_fb/posf.jpg,stim_fb/negf.jpg,stim_02/e.jpg,stim_02/f.jpg,2,3,j,3,51,231,58,f,0,0.883082256525,02,02,60.0186372253,PLT_learning_02,A,2014_Mrz_12_1759,P25,
stim_fb/ques.jpg,stim_fb/negf.jpg,stim_fb/posf.jpg,stim_02/b.jpg,stim_02/a.jpg,1,1,f,3,52,232,2,j,0,0.983074181397,02,02,60.0186372253,PLT_learning_02,A,2014_Mrz_12_1759,P25,
stim_fb/ques.jpg,stim_fb/negf.jpg,stim_fb/posf.jpg,stim_02/d.jpg,stim_02/c.jpg,1,2,f,3,53,233,22,f,1,0.766466336343,02,02,60.0186372253,PLT_learning_02,A,2014_Mrz_12_1759,P25,
stim_fb/ques.jpg,stim_fb/posf.jpg,stim_fb/negf.jpg,stim_02/a.jpg,stim_02/b.jpg,2,1,j,3,54,234,19,j,1,0.849765451389,02,02,60.0186372253,PLT_learning_02,A,2014_Mrz_12_1759,P25,
stim_fb/ques.jpg,stim_fb/posf.jpg,stim_fb/negf.jpg,stim_02/f.jpg,stim_02/e.jpg,1,3,f,3,55,235,48,f,1,0.716470682175,02,02,60.0186372253,PLT_learning_02,A,2014_Mrz_12_1759,P25,
stim_fb/ques.jpg,stim_fb/posf.jpg,stim_fb/negf.jpg,stim_02/f.jpg,stim_02/e.jpg,1,3,f,3,56,236,47,f,1,0.916426899046,02,02,60.0186372253,PLT_learning_02,A,2014_Mrz_12_1759,P25,
stim_fb/ques.jpg,stim_fb/negf.jpg,stim_fb/posf.jpg,stim_02/d.jpg,stim_02/c.jpg,1,2,f,3,57,237,24,f,1,0.933083570802,02,02,60.0186372253,PLT_learning_02,A,2014_Mrz_12_1759,P25,
stim_fb/ques.jpg,stim_fb/negf.jpg,stim_fb/posf.jpg,stim_02/c.jpg,stim_02/d.jpg,2,2,j,3,58,238,36,j,1,0.74984462974,02,02,60.0186372253,PLT_learning_02,A,2014_Mrz_12_1759,P25,
stim_fb/ques.jpg,stim_fb/negf.jpg,stim_fb/posf.jpg,stim_02/a.jpg,stim_02/b.jpg,2,1,j,3,59,239,12,j,1,0.949746140257,02,02,60.0186372253,PLT_learning_02,A,2014_Mrz_12_1759,P25,
stim_fb/ques.jpg,stim_fb/negf.jpg,stim_fb/posf.jpg,stim_02/b.jpg,stim_02/a.jpg,1,1,f,4,0,240,3,f,1,0.749846220708,02,02,60.0186372253,PLT_learning_02,A,2014_Mrz_12_1759,P25,
stim_fb/ques.jpg,stim_fb/negf.jpg,stim_fb/posf.jpg,stim_02/e.jpg,stim_02/f.jpg,2,3,j,4,1,241,51,j,1,1.31628914068,02,02,60.0186372253,PLT_learning_02,A,2014_Mrz_12_1759,P25,
stim_fb/ques.jpg,stim_fb/negf.jpg,stim_fb/posf.jpg,stim_02/d.jpg,stim_02/c.jpg,1,2,f,4,2,242,21,f,1,0.733158779258,02,02,60.0186372253,PLT_learning_02,A,2014_Mrz_12_1759,P25,
stim_fb/ques.jpg,stim_fb/negf.jpg,stim_fb/posf.jpg,stim_02/d.jpg,stim_02/c.jpg,1,2,f,4,3,243,24,f,1,0.583216529198,02,02,60.0186372253,PLT_learning_02,A,2014_Mrz_12_1759,P25,
stim_fb/ques.jpg,stim_fb/posf.jpg,stim_fb/negf.jpg,stim_02/f.jpg,stim_02/e.jpg,1,3,f,4,4,244,48,f,1,1.09969041436,02,02,60.0186372253,PLT_learning_02,A,2014_Mrz_12_1759,P25,
stim_fb/ques.jpg,stim_fb/posf.jpg,stim_fb/negf.jpg,stim_02/d.jpg,stim_02/c.jpg,1,2,f,4,5,245,28,f,1,0.883102542084,02,02,60.0186372253,PLT_learning_02,A,2014_Mrz_12_1759,P25,
stim_fb/ques.jpg,stim_fb/negf.jpg,stim_fb/posf.jpg,stim_02/c.jpg,stim_02/d.jpg,2,2,j,4,6,246,35,f,0,0.766485199358,02,02,60.0186372253,PLT_learning_02,A,2014_Mrz_12_1759,P25,
stim_fb/ques.jpg,stim_fb/negf.jpg,stim_fb/posf.jpg,stim_02/b.jpg,stim_02/a.jpg,1,1,f,4,7,247,0,f,1,1.01639418952,02,02,60.0186372253,PLT_learning_02,A,2014_Mrz_12_1759,P25,
stim_fb/ques.jpg,stim_fb/negf.jpg,stim_fb/posf.jpg,stim_02/c.jpg,stim_02/d.jpg,2,2,j,4,8,248,32,j,1,0.816460315335,02,02,60.0186372253,PLT_learning_02,A,2014_Mrz_12_1759,P25,
stim_fb/ques.jpg,stim_fb/negf.jpg,stim_fb/posf.jpg,stim_02/d.jpg,stim_02/c.jpg,1,2,f,4,9,249,23,f,1,0.599857715355,02,02,60.0186372253,PLT_learning_02,A,2014_Mrz_12_1759,P25,
stim_fb/ques.jpg,stim_fb/negf.jpg,stim_fb/posf.jpg,stim_02/a.jpg,stim_02/b.jpg,2,1,j,4,10,250,10,j,1,0.666497554153,02,02,60.0186372253,PLT_learning_02,A,2014_Mrz_12_1759,P25,
stim_fb/ques.jpg,stim_fb/negf.jpg,stim_fb/posf.jpg,stim_02/a.jpg,stim_02/b.jpg,2,1,j,4,11,251,12,j,1,0.983021881038,02,02,60.0186372253,PLT_learning_02,A,2014_Mrz_12_1759,P25,
stim_fb/ques.jpg,stim_fb/posf.jpg,stim_fb/negf.jpg,stim_02/b.jpg,stim_02/a.jpg,1,1,f,4,12,252,9,f,1,0.732999763914,02,02,60.0186372253,PLT_learning_02,A,2014_Mrz_12_1759,P25,
stim_fb/ques.jpg,stim_fb/negf.jpg,stim_fb/posf.jpg,stim_02/f.jpg,stim_02/e.jpg,1,3,f,4,13,253,42,f,1,0.983051089843,02,02,60.0186372253,PLT_learning_02,A,2014_Mrz_12_1759,P25,
stim_fb/ques.jpg,stim_fb/posf.jpg,stim_fb/negf.jpg,stim_02/e.jpg,stim_02/f.jpg,2,3,j,4,14,254,59,j,1,0.633167323555,02,02,60.0186372253,PLT_learning_02,A,2014_Mrz_12_1759,P25,
stim_fb/ques.jpg,stim_fb/negf.jpg,stim_fb/posf.jpg,stim_02/d.jpg,stim_02/c.jpg,1,2,f,4,15,255,25,f,1,0.649836584689,02,02,60.0186372253,PLT_learning_02,A,2014_Mrz_12_1759,P25,
stim_fb/ques.jpg,stim_fb/negf.jpg,stim_fb/posf.jpg,stim_02/c.jpg,stim_02/d.jpg,2,2,j,4,16,256,34,j,1,0.699853321403,02,02,60.0186372253,PLT_learning_02,A,2014_Mrz_12_1759,P25,
stim_fb/ques.jpg,stim_fb/posf.jpg,stim_fb/negf.jpg,stim_02/c.jpg,stim_02/d.jpg,2,2,j,4,17,257,39,j,1,0.649833580199,02,02,60.0186372253,PLT_learning_02,A,2014_Mrz_12_1759,P25,
stim_fb/ques.jpg,stim_fb/posf.jpg,stim_fb/negf.jpg,stim_02/f.jpg,stim_02/e.jpg,1,3,f,4,18,258,46,j,0,0.783109832257,02,02,60.0186372253,PLT_learning_02,A,2014_Mrz_12_1759,P25,
stim_fb/ques.jpg,stim_fb/posf.jpg,stim_fb/negf.jpg,stim_02/d.jpg,stim_02/c.jpg,1,2,f,4,19,259,29,f,1,0.633187906857,02,02,60.0186372253,PLT_learning_02,A,2014_Mrz_12_1759,P25,
stim_fb/ques.jpg,stim_fb/posf.jpg,stim_fb/negf.jpg,stim_02/e.jpg,stim_02/f.jpg,2,3,j,4,20,260,56,j,1,0.883032620808,02,02,60.0186372253,PLT_learning_02,A,2014_Mrz_12_1759,P25,
stim_fb/ques.jpg,stim_fb/negf.jpg,stim_fb/posf.jpg,stim_02/a.jpg,stim_02/b.jpg,2,1,j,4,21,261,11,j,1,0.733109269855,02,02,60.0186372253,PLT_learning_02,A,2014_Mrz_12_1759,P25,
stim_fb/ques.jpg,stim_fb/negf.jpg,stim_fb/posf.jpg,stim_02/c.jpg,stim_02/d.jpg,2,2,j,4,22,262,33,f,0,1.06637156713,02,02,60.0186372253,PLT_learning_02,A,2014_Mrz_12_1759,P25,
stim_fb/ques.jpg,stim_fb/negf.jpg,stim_fb/posf.jpg,stim_02/b.jpg,stim_02/a.jpg,1,1,f,4,23,263,7,f,1,0.866385290334,02,02,60.0186372253,PLT_learning_02,A,2014_Mrz_12_1759,P25,
stim_fb/ques.jpg,stim_fb/negf.jpg,stim_fb/posf.jpg,stim_02/e.jpg,stim_02/f.jpg,2,3,j,4,24,264,55,f,0,0.599900530069,02,02,60.0186372253,PLT_learning_02,A,2014_Mrz_12_1759,P25,
stim_fb/ques.jpg,stim_fb/posf.jpg,stim_fb/negf.jpg,stim_02/d.jpg,stim_02/c.jpg,1,2,f,4,25,265,27,f,1,0.73313818693,02,02,60.0186372253,PLT_learning_02,A,2014_Mrz_12_1759,P25,
stim_fb/ques.jpg,stim_fb/negf.jpg,stim_fb/posf.jpg,stim_02/b.jpg,stim_02/a.jpg,1,1,f,4,26,266,2,f,1,0.716469379928,02,02,60.0186372253,PLT_learning_02,A,2014_Mrz_12_1759,P25,
stim_fb/ques.jpg,stim_fb/posf.jpg,stim_fb/negf.jpg,stim_02/c.jpg,stim_02/d.jpg,2,2,j,4,27,267,37,j,1,0.733136800474,02,02,60.0186372253,PLT_learning_02,A,2014_Mrz_12_1759,P25,
stim_fb/ques.jpg,stim_fb/negf.jpg,stim_fb/posf.jpg,stim_02/b.jpg,stim_02/a.jpg,1,1,f,4,28,268,1,f,1,0.782984732446,02,02,60.0186372253,PLT_learning_02,A,2014_Mrz_12_1759,P25,
stim_fb/ques.jpg,stim_fb/negf.jpg,stim_fb/posf.jpg,stim_02/e.jpg,stim_02/f.jpg,2,3,j,4,29,269,53,f,0,0.66648050466,02,02,60.0186372253,PLT_learning_02,A,2014_Mrz_12_1759,P25,
stim_fb/ques.jpg,stim_fb/negf.jpg,stim_fb/posf.jpg,stim_02/a.jpg,stim_02/b.jpg,2,1,j,4,30,270,15,j,1,0.633177013708,02,02,60.0186372253,PLT_learning_02,A,2014_Mrz_12_1759,P25,
stim_fb/ques.jpg,stim_fb/negf.jpg,stim_fb/posf.jpg,stim_02/f.jpg,stim_02/e.jpg,1,3,f,4,31,271,40,f,1,0.749807902197,02,02,60.0186372253,PLT_learning_02,A,2014_Mrz_12_1759,P25,
stim_fb/ques.jpg,stim_fb/negf.jpg,stim_fb/posf.jpg,stim_02/d.jpg,stim_02/c.jpg,1,2,f,4,32,272,26,j,0,0.783162938627,02,02,60.0186372253,PLT_learning_02,A,2014_Mrz_12_1759,P25,
stim_fb/ques.jpg,stim_fb/posf.jpg,stim_fb/negf.jpg,stim_02/a.jpg,stim_02/b.jpg,2,1,j,4,33,273,19,f,0,0.649848157533,02,02,60.0186372253,PLT_learning_02,A,2014_Mrz_12_1759,P25,
stim_fb/ques.jpg,stim_fb/negf.jpg,stim_fb/posf.jpg,stim_02/c.jpg,stim_02/d.jpg,2,2,j,4,34,274,31,j,1,0.799802485697,02,02,60.0186372253,PLT_learning_02,A,2014_Mrz_12_1759,P25,
stim_fb/ques.jpg,stim_fb/posf.jpg,stim_fb/negf.jpg,stim_02/e.jpg,stim_02/f.jpg,2,3,j,4,35,275,57,f,0,0.683163007798,02,02,60.0186372253,PLT_learning_02,A,2014_Mrz_12_1759,P25,
stim_fb/ques.jpg,stim_fb/posf.jpg,stim_fb/negf.jpg,stim_02/c.jpg,stim_02/d.jpg,2,2,j,4,36,276,38,j,1,1.04972432388,02,02,60.0186372253,PLT_learning_02,A,2014_Mrz_12_1759,P25,
stim_fb/ques.jpg,stim_fb/negf.jpg,stim_fb/posf.jpg,stim_02/c.jpg,stim_02/d.jpg,2,2,j,4,37,277,30,j,1,0.66649799325,02,02,60.0186372253,PLT_learning_02,A,2014_Mrz_12_1759,P25,
stim_fb/ques.jpg,stim_fb/negf.jpg,stim_fb/posf.jpg,stim_02/f.jpg,stim_02/e.jpg,1,3,f,4,38,278,45,j,0,0.74980041353,02,02,60.0186372253,PLT_learning_02,A,2014_Mrz_12_1759,P25,
stim_fb/ques.jpg,stim_fb/negf.jpg,stim_fb/posf.jpg,stim_02/a.jpg,stim_02/b.jpg,2,1,j,4,39,279,16,j,1,0.649759352185,02,02,60.0186372253,PLT_learning_02,A,2014_Mrz_12_1759,P25,
stim_fb/ques.jpg,stim_fb/negf.jpg,stim_fb/posf.jpg,stim_02/c.jpg,stim_02/d.jpg,2,2,j,4,40,280,36,j,1,0.799778946024,02,02,60.0186372253,PLT_learning_02,A,2014_Mrz_12_1759,P25,
stim_fb/ques.jpg,stim_fb/negf.jpg,stim_fb/posf.jpg,stim_02/b.jpg,stim_02/a.jpg,1,1,f,4,41,281,6,f,1,0.749812239006,02,02,60.0186372253,PLT_learning_02,A,2014_Mrz_12_1759,P25,
stim_fb/ques.jpg,stim_fb/negf.jpg,stim_fb/posf.jpg,stim_02/a.jpg,stim_02/b.jpg,2,1,j,4,42,282,17,j,1,0.649859958947,02,02,60.0186372253,PLT_learning_02,A,2014_Mrz_12_1759,P25,
stim_fb/ques.jpg,stim_fb/posf.jpg,stim_fb/negf.jpg,stim_02/b.jpg,stim_02/a.jpg,1,1,f,4,43,283,8,f,1,0.533203094714,02,02,60.0186372253,PLT_learning_02,A,2014_Mrz_12_1759,P25,
stim_fb/ques.jpg,stim_fb/negf.jpg,stim_fb/posf.jpg,stim_02/e.jpg,stim_02/f.jpg,2,3,j,4,44,284,52,j,1,0.833111272848,02,02,60.0186372253,PLT_learning_02,A,2014_Mrz_12_1759,P25,
stim_fb/ques.jpg,stim_fb/posf.jpg,stim_fb/negf.jpg,stim_02/f.jpg,stim_02/e.jpg,1,3,f,4,45,285,47,f,1,0.633180767061,02,02,60.0186372253,PLT_learning_02,A,2014_Mrz_12_1759,P25,
stim_fb/ques.jpg,stim_fb/posf.jpg,stim_fb/negf.jpg,stim_02/e.jpg,stim_02/f.jpg,2,3,j,4,46,286,58,j,1,0.549898340614,02,02,60.0186372253,PLT_learning_02,A,2014_Mrz_12_1759,P25,
stim_fb/ques.jpg,stim_fb/negf.jpg,stim_fb/posf.jpg,stim_02/e.jpg,stim_02/f.jpg,2,3,j,4,47,287,50,f,0,0.616495623341,02,02,60.0186372253,PLT_learning_02,A,2014_Mrz_12_1759,P25,
stim_fb/ques.jpg,stim_fb/negf.jpg,stim_fb/posf.jpg,stim_02/f.jpg,stim_02/e.jpg,1,3,f,4,48,288,43,f,1,0.649835980181,02,02,60.0186372253,PLT_learning_02,A,2014_Mrz_12_1759,P25,
stim_fb/ques.jpg,stim_fb/negf.jpg,stim_fb/posf.jpg,stim_02/b.jpg,stim_02/a.jpg,1,1,f,4,49,289,4,f,1,0.749794678235,02,02,60.0186372253,PLT_learning_02,A,2014_Mrz_12_1759,P25,
stim_fb/ques.jpg,stim_fb/negf.jpg,stim_fb/posf.jpg,stim_02/b.jpg,stim_02/a.jpg,1,1,f,4,50,290,5,f,1,0.599826726117,02,02,60.0186372253,PLT_learning_02,A,2014_Mrz_12_1759,P25,
stim_fb/ques.jpg,stim_fb/negf.jpg,stim_fb/posf.jpg,stim_02/f.jpg,stim_02/e.jpg,1,3,f,4,51,291,41,f,1,0.549936710253,02,02,60.0186372253,PLT_learning_02,A,2014_Mrz_12_1759,P25,
stim_fb/ques.jpg,stim_fb/negf.jpg,stim_fb/posf.jpg,stim_02/d.jpg,stim_02/c.jpg,1,2,f,4,52,292,22,f,1,0.616487539191,02,02,60.0186372253,PLT_learning_02,A,2014_Mrz_12_1759,P25,
stim_fb/ques.jpg,stim_fb/negf.jpg,stim_fb/posf.jpg,stim_02/f.jpg,stim_02/e.jpg,1,3,f,4,53,293,44,j,0,0.41658511139,02,02,60.0186372253,PLT_learning_02,A,2014_Mrz_12_1759,P25,
stim_fb/ques.jpg,stim_fb/posf.jpg,stim_fb/negf.jpg,stim_02/a.jpg,stim_02/b.jpg,2,1,j,4,54,294,18,f,0,0.266610816459,02,02,60.0186372253,PLT_learning_02,A,2014_Mrz_12_1759,P25,
stim_fb/ques.jpg,stim_fb/negf.jpg,stim_fb/posf.jpg,stim_02/a.jpg,stim_02/b.jpg,2,1,j,4,55,295,13,j,1,0.699827050925,02,02,60.0186372253,PLT_learning_02,A,2014_Mrz_12_1759,P25,
stim_fb/ques.jpg,stim_fb/posf.jpg,stim_fb/negf.jpg,stim_02/f.jpg,stim_02/e.jpg,1,3,f,4,56,296,49,f,1,0.916427311073,02,02,60.0186372253,PLT_learning_02,A,2014_Mrz_12_1759,P25,
stim_fb/ques.jpg,stim_fb/negf.jpg,stim_fb/posf.jpg,stim_02/d.jpg,stim_02/c.jpg,1,2,f,4,57,297,20,j,0,0.816452210136,02,02,60.0186372253,PLT_learning_02,A,2014_Mrz_12_1759,P25,
stim_fb/ques.jpg,stim_fb/negf.jpg,stim_fb/posf.jpg,stim_02/a.jpg,stim_02/b.jpg,2,1,j,4,58,298,14,j,1,0.649820398343,02,02,60.0186372253,PLT_learning_02,A,2014_Mrz_12_1759,P25,
stim_fb/ques.jpg,stim_fb/negf.jpg,stim_fb/posf.jpg,stim_02/e.jpg,stim_02/f.jpg,2,3,j,4,59,299,54,f,0,0.566497244381,02,02,60.0186372253,PLT_learning_02,A,2014_Mrz_12_1759,P25,
stim_fb/ques.jpg,stim_fb/posf.jpg,stim_fb/negf.jpg,stim_02/c.jpg,stim_02/d.jpg,2,2,j,5,0,300,38,j,1,0.816408775874,02,02,60.0186372253,PLT_learning_02,A,2014_Mrz_12_1759,P25,
stim_fb/ques.jpg,stim_fb/negf.jpg,stim_fb/posf.jpg,stim_02/e.jpg,stim_02/f.jpg,2,3,j,5,1,301,51,f,0,0.58319315494,02,02,60.0186372253,PLT_learning_02,A,2014_Mrz_12_1759,P25,
stim_fb/ques.jpg,stim_fb/negf.jpg,stim_fb/posf.jpg,stim_02/f.jpg,stim_02/e.jpg,1,3,f,5,2,302,43,f,1,0.88309775716,02,02,60.0186372253,PLT_learning_02,A,2014_Mrz_12_1759,P25,
stim_fb/ques.jpg,stim_fb/negf.jpg,stim_fb/posf.jpg,stim_02/c.jpg,stim_02/d.jpg,2,2,j,5,3,303,36,j,1,0.599852259758,02,02,60.0186372253,PLT_learning_02,A,2014_Mrz_12_1759,P25,
stim_fb/ques.jpg,stim_fb/posf.jpg,stim_fb/negf.jpg,stim_02/c.jpg,stim_02/d.jpg,2,2,j,5,4,304,39,f,0,0.600152347724,02,02,60.0186372253,PLT_learning_02,A,2014_Mrz_12_1759,P25,
stim_fb/ques.jpg,stim_fb/negf.jpg,stim_fb/posf.jpg,stim_02/a.jpg,stim_02/b.jpg,2,1,j,5,5,305,16,j,1,0.483219058504,02,02,60.0186372253,PLT_learning_02,A,2014_Mrz_12_1759,P25,
stim_fb/ques.jpg,stim_fb/negf.jpg,stim_fb/posf.jpg,stim_02/a.jpg,stim_02/b.jpg,2,1,j,5,6,306,13,j,1,0.683134875679,02,02,60.0186372253,PLT_learning_02,A,2014_Mrz_12_1759,P25,
stim_fb/ques.jpg,stim_fb/negf.jpg,stim_fb/posf.jpg,stim_02/a.jpg,stim_02/b.jpg,2,1,j,5,7,307,15,j,1,0.733091796305,02,02,60.0186372253,PLT_learning_02,A,2014_Mrz_12_1759,P25,
stim_fb/ques.jpg,stim_fb/posf.jpg,stim_fb/negf.jpg,stim_02/e.jpg,stim_02/f.jpg,2,3,j,5,8,308,58,j,1,0.916416589349,02,02,60.0186372253,PLT_learning_02,A,2014_Mrz_12_1759,P25,
stim_fb/ques.jpg,stim_fb/negf.jpg,stim_fb/posf.jpg,stim_02/c.jpg,stim_02/d.jpg,2,2,j,5,9,309,35,j,1,0.966410857061,02,02,60.0186372253,PLT_learning_02,A,2014_Mrz_12_1759,P25,
stim_fb/ques.jpg,stim_fb/posf.jpg,stim_fb/negf.jpg,stim_02/d.jpg,stim_02/c.jpg,1,2,f,5,10,310,27,f,1,0.666512408177,02,02,60.0186372253,PLT_learning_02,A,2014_Mrz_12_1759,P25,
stim_fb/ques.jpg,stim_fb/negf.jpg,stim_fb/posf.jpg,stim_02/b.jpg,stim_02/a.jpg,1,1,f,5,11,311,4,f,1,0.916402544342,02,02,60.0186372253,PLT_learning_02,A,2014_Mrz_12_1759,P25,
stim_fb/ques.jpg,stim_fb/posf.jpg,stim_fb/negf.jpg,stim_02/a.jpg,stim_02/b.jpg,2,1,j,5,12,312,19,j,1,0.683181257285,02,02,60.0186372253,PLT_learning_02,A,2014_Mrz_12_1759,P25,
stim_fb/ques.jpg,stim_fb/negf.jpg,stim_fb/posf.jpg,stim_02/a.jpg,stim_02/b.jpg,2,1,j,5,13,313,17,j,1,0.699837309494,02,02,60.0186372253,PLT_learning_02,A,2014_Mrz_12_1759,P25,
stim_fb/ques.jpg,stim_fb/negf.jpg,stim_fb/posf.jpg,stim_02/d.jpg,stim_02/c.jpg,1,2,f,5,14,314,24,f,1,0.816424908084,02,02,60.0186372253,PLT_learning_02,A,2014_Mrz_12_1759,P25,
stim_fb/ques.jpg,stim_fb/negf.jpg,stim_fb/posf.jpg,stim_02/b.jpg,stim_02/a.jpg,1,1,f,5,15,315,3,f,1,0.683125239659,02,02,60.0186372253,PLT_learning_02,A,2014_Mrz_12_1759,P25,
stim_fb/ques.jpg,stim_fb/negf.jpg,stim_fb/posf.jpg,stim_02/a.jpg,stim_02/b.jpg,2,1,j,5,16,316,14,j,1,0.499864226585,02,02,60.0186372253,PLT_learning_02,A,2014_Mrz_12_1759,P25,
stim_fb/ques.jpg,stim_fb/posf.jpg,stim_fb/negf.jpg,stim_02/b.jpg,stim_02/a.jpg,1,1,f,5,17,317,8,f,1,0.716477752798,02,02,60.0186372253,PLT_learning_02,A,2014_Mrz_12_1759,P25,
stim_fb/ques.jpg,stim_fb/posf.jpg,stim_fb/negf.jpg,stim_02/f.jpg,stim_02/e.jpg,1,3,f,5,18,318,48,j,0,0.833112620203,02,02,60.0186372253,PLT_learning_02,A,2014_Mrz_12_1759,P25,
stim_fb/ques.jpg,stim_fb/negf.jpg,stim_fb/posf.jpg,stim_02/e.jpg,stim_02/f.jpg,2,3,j,5,19,319,54,j,1,0.916372764113,02,02,60.0186372253,PLT_learning_02,A,2014_Mrz_12_1759,P25,
stim_fb/ques.jpg,stim_fb/negf.jpg,stim_fb/posf.jpg,stim_02/d.jpg,stim_02/c.jpg,1,2,f,5,20,320,20,f,1,0.899757586783,02,02,60.0186372253,PLT_learning_02,A,2014_Mrz_12_1759,P25,
stim_fb/ques.jpg,stim_fb/negf.jpg,stim_fb/posf.jpg,stim_02/d.jpg,stim_02/c.jpg,1,2,f,5,21,321,22,f,1,0.666501996224,02,02,60.0186372253,PLT_learning_02,A,2014_Mrz_12_1759,P25,
stim_fb/ques.jpg,stim_fb/negf.jpg,stim_fb/posf.jpg,stim_02/c.jpg,stim_02/d.jpg,2,2,j,5,22,322,34,j,1,0.649823676511,02,02,60.0186372253,PLT_learning_02,A,2014_Mrz_12_1759,P25,
stim_fb/ques.jpg,stim_fb/negf.jpg,stim_fb/posf.jpg,stim_02/d.jpg,stim_02/c.jpg,1,2,f,5,23,323,21,f,1,0.633178162567,02,02,60.0186372253,PLT_learning_02,A,2014_Mrz_12_1759,P25,
stim_fb/ques.jpg,stim_fb/negf.jpg,stim_fb/posf.jpg,stim_02/c.jpg,stim_02/d.jpg,2,2,j,5,24,324,32,j,1,0.666490444433,02,02,60.0186372253,PLT_learning_02,A,2014_Mrz_12_1759,P25,
stim_fb/ques.jpg,stim_fb/negf.jpg,stim_fb/posf.jpg,stim_02/b.jpg,stim_02/a.jpg,1,1,f,5,25,325,1,f,1,1.0164225502,02,02,60.0186372253,PLT_learning_02,A,2014_Mrz_12_1759,P25,
stim_fb/ques.jpg,stim_fb/negf.jpg,stim_fb/posf.jpg,stim_02/e.jpg,stim_02/f.jpg,2,3,j,5,26,326,55,j,1,0.683160343153,02,02,60.0186372253,PLT_learning_02,A,2014_Mrz_12_1759,P25,
stim_fb/ques.jpg,stim_fb/negf.jpg,stim_fb/posf.jpg,stim_02/c.jpg,stim_02/d.jpg,2,2,j,5,27,327,33,j,1,0.616501800738,02,02,60.0186372253,PLT_learning_02,A,2014_Mrz_12_1759,P25,
stim_fb/ques.jpg,stim_fb/posf.jpg,stim_fb/negf.jpg,stim_02/d.jpg,stim_02/c.jpg,1,2,f,5,28,328,28,f,1,0.783100548117,02,02,60.0186372253,PLT_learning_02,A,2014_Mrz_12_1759,P25,
stim_fb/ques.jpg,stim_fb/negf.jpg,stim_fb/posf.jpg,stim_02/b.jpg,stim_02/a.jpg,1,1,f,5,29,329,0,f,1,0.78309969098,02,02,60.0186372253,PLT_learning_02,A,2014_Mrz_12_1759,P25,
stim_fb/ques.jpg,stim_fb/posf.jpg,stim_fb/negf.jpg,stim_02/f.jpg,stim_02/e.jpg,1,3,f,5,30,330,46,f,1,0.94980438042,02,02,60.0186372253,PLT_learning_02,A,2014_Mrz_12_1759,P25,
stim_fb/ques.jpg,stim_fb/negf.jpg,stim_fb/posf.jpg,stim_02/e.jpg,stim_02/f.jpg,2,3,j,5,31,331,50,f,0,0.916402412015,02,02,60.0186372253,PLT_learning_02,A,2014_Mrz_12_1759,P25,
stim_fb/ques.jpg,stim_fb/posf.jpg,stim_fb/negf.jpg,stim_02/e.jpg,stim_02/f.jpg,2,3,j,5,32,332,57,j,1,0.516525397554,02,02,60.0186372253,PLT_learning_02,A,2014_Mrz_12_1759,P25,
stim_fb/ques.jpg,stim_fb/negf.jpg,stim_fb/posf.jpg,stim_02/d.jpg,stim_02/c.jpg,1,2,f,5,33,333,25,f,1,0.616514089368,02,02,60.0186372253,PLT_learning_02,A,2014_Mrz_12_1759,P25,
stim_fb/ques.jpg,stim_fb/negf.jpg,stim_fb/posf.jpg,stim_02/d.jpg,stim_02/c.jpg,1,2,f,5,34,334,23,f,1,0.566539033542,02,02,60.0186372253,PLT_learning_02,A,2014_Mrz_12_1759,P25,
stim_fb/ques.jpg,stim_fb/posf.jpg,stim_fb/negf.jpg,stim_02/c.jpg,stim_02/d.jpg,2,2,j,5,35,335,37,j,1,0.716478549784,02,02,60.0186372253,PLT_learning_02,A,2014_Mrz_12_1759,P25,
stim_fb/ques.jpg,stim_fb/posf.jpg,stim_fb/negf.jpg,stim_02/f.jpg,stim_02/e.jpg,1,3,f,5,36,336,49,j,0,0.833114935976,02,02,60.0186372253,PLT_learning_02,A,2014_Mrz_12_1759,P25,
stim_fb/ques.jpg,stim_fb/negf.jpg,stim_fb/posf.jpg,stim_02/a.jpg,stim_02/b.jpg,2,1,j,5,37,337,11,j,1,0.749771773146,02,02,60.0186372253,PLT_learning_02,A,2014_Mrz_12_1759,P25,
stim_fb/ques.jpg,stim_fb/negf.jpg,stim_fb/posf.jpg,stim_02/a.jpg,stim_02/b.jpg,2,1,j,5,38,338,12,f,0,0.699817312652,02,02,60.0186372253,PLT_learning_02,A,2014_Mrz_12_1759,P25,
stim_fb/ques.jpg,stim_fb/negf.jpg,stim_fb/posf.jpg,stim_02/e.jpg,stim_02/f.jpg,2,3,j,5,39,339,52,j,1,0.733148397383,02,02,60.0186372253,PLT_learning_02,A,2014_Mrz_12_1759,P25,
stim_fb/ques.jpg,stim_fb/negf.jpg,stim_fb/posf.jpg,stim_02/f.jpg,stim_02/e.jpg,1,3,f,5,40,340,40,f,1,0.649825411838,02,02,60.0186372253,PLT_learning_02,A,2014_Mrz_12_1759,P25,
stim_fb/ques.jpg,stim_fb/negf.jpg,stim_fb/posf.jpg,stim_02/b.jpg,stim_02/a.jpg,1,1,f,5,41,341,7,f,1,0.766465689732,02,02,60.0186372253,PLT_learning_02,A,2014_Mrz_12_1759,P25,
stim_fb/ques.jpg,stim_fb/negf.jpg,stim_fb/posf.jpg,stim_02/f.jpg,stim_02/e.jpg,1,3,f,5,42,342,42,f,1,0.84978984519,02,02,60.0186372253,PLT_learning_02,A,2014_Mrz_12_1759,P25,
stim_fb/ques.jpg,stim_fb/negf.jpg,stim_fb/posf.jpg,stim_02/b.jpg,stim_02/a.jpg,1,1,f,5,43,343,6,j,0,0.866433665913,02,02,60.0186372253,PLT_learning_02,A,2014_Mrz_12_1759,P25,
stim_fb/ques.jpg,stim_fb/negf.jpg,stim_fb/posf.jpg,stim_02/c.jpg,stim_02/d.jpg,2,2,j,5,44,344,30,j,1,0.783157765731,02,02,60.0186372253,PLT_learning_02,A,2014_Mrz_12_1759,P25,
stim_fb/ques.jpg,stim_fb/negf.jpg,stim_fb/posf.jpg,stim_02/c.jpg,stim_02/d.jpg,2,2,j,5,45,345,31,j,1,0.599865101765,02,02,60.0186372253,PLT_learning_02,A,2014_Mrz_12_1759,P25,
stim_fb/ques.jpg,stim_fb/negf.jpg,stim_fb/posf.jpg,stim_02/b.jpg,stim_02/a.jpg,1,1,f,5,46,346,2,f,1,0.566522871257,02,02,60.0186372253,PLT_learning_02,A,2014_Mrz_12_1759,P25,
stim_fb/ques.jpg,stim_fb/posf.jpg,stim_fb/negf.jpg,stim_02/d.jpg,stim_02/c.jpg,1,2,f,5,47,347,29,f,1,0.766439539551,02,02,60.0186372253,PLT_learning_02,A,2014_Mrz_12_1759,P25,
stim_fb/ques.jpg,stim_fb/posf.jpg,stim_fb/negf.jpg,stim_02/e.jpg,stim_02/f.jpg,2,3,j,5,48,348,59,f,0,0.683172673889,02,02,60.0186372253,PLT_learning_02,A,2014_Mrz_12_1759,P25,
stim_fb/ques.jpg,stim_fb/negf.jpg,stim_fb/posf.jpg,stim_02/b.jpg,stim_02/a.jpg,1,1,f,5,49,349,5,f,1,0.799783833205,02,02,60.0186372253,PLT_learning_02,A,2014_Mrz_12_1759,P25,
stim_fb/ques.jpg,stim_fb/posf.jpg,stim_fb/negf.jpg,stim_02/b.jpg,stim_02/a.jpg,1,1,f,5,50,350,9,f,1,0.666538612491,02,02,60.0186372253,PLT_learning_02,A,2014_Mrz_12_1759,P25,
stim_fb/ques.jpg,stim_fb/negf.jpg,stim_fb/posf.jpg,stim_02/a.jpg,stim_02/b.jpg,2,1,j,5,51,351,10,j,1,0.633183034715,02,02,60.0186372253,PLT_learning_02,A,2014_Mrz_12_1759,P25,
stim_fb/ques.jpg,stim_fb/posf.jpg,stim_fb/negf.jpg,stim_02/a.jpg,stim_02/b.jpg,2,1,j,5,52,352,18,j,1,0.616468143849,02,02,60.0186372253,PLT_learning_02,A,2014_Mrz_12_1759,P25,
stim_fb/ques.jpg,stim_fb/negf.jpg,stim_fb/posf.jpg,stim_02/f.jpg,stim_02/e.jpg,1,3,f,5,53,353,45,f,1,0.899741592919,02,02,60.0186372253,PLT_learning_02,A,2014_Mrz_12_1759,P25,
stim_fb/ques.jpg,stim_fb/posf.jpg,stim_fb/negf.jpg,stim_02/f.jpg,stim_02/e.jpg,1,3,f,5,54,354,47,j,0,0.583178409182,02,02,60.0186372253,PLT_learning_02,A,2014_Mrz_12_1759,P25,
stim_fb/ques.jpg,stim_fb/negf.jpg,stim_fb/posf.jpg,stim_02/e.jpg,stim_02/f.jpg,2,3,j,5,55,355,53,f,0,0.699826945664,02,02,60.0186372253,PLT_learning_02,A,2014_Mrz_12_1759,P25,
stim_fb/ques.jpg,stim_fb/negf.jpg,stim_fb/posf.jpg,stim_02/f.jpg,stim_02/e.jpg,1,3,f,5,56,356,41,f,1,0.783111675853,02,02,60.0186372253,PLT_learning_02,A,2014_Mrz_12_1759,P25,
stim_fb/ques.jpg,stim_fb/negf.jpg,stim_fb/posf.jpg,stim_02/d.jpg,stim_02/c.jpg,1,2,f,5,57,357,26,j,0,0.549852518405,02,02,60.0186372253,PLT_learning_02,A,2014_Mrz_12_1759,P25,
stim_fb/ques.jpg,stim_fb/negf.jpg,stim_fb/posf.jpg,stim_02/f.jpg,stim_02/e.jpg,1,3,f,5,58,358,44,f,1,0.51665800107,02,02,60.0186372253,PLT_learning_02,A,2014_Mrz_12_1759,P25,
stim_fb/ques.jpg,stim_fb/posf.jpg,stim_fb/negf.jpg,stim_02/e.jpg,stim_02/f.jpg,2,3,j,5,59,359,56,j,1,0.649829026846,02,02,60.0186372253,PLT_learning_02,A,2014_Mrz_12_1759,P25,
