Fb3,Fb2,Fb1,Symbol2,Symbol1,PosCond,Pair,Correct,trials.thisRepN,trials.thisTrialN,trials.thisN,trials.thisIndex,Response.keys,Response.corr,Response.rt,Version,Session Number,frameRate,expName,StimCondition,date,Participant,
stim_fb/ques.jpg,stim_fb/negf.jpg,stim_fb/posf.jpg,stim_03/a.jpg,stim_03/b.jpg,2,1,j,0,0,0,13,f,0,0.983088783209,03,03,60.0199495037,PLT_learning_3,A,2014_Mrz_31_1321,P26,
stim_fb/ques.jpg,stim_fb/posf.jpg,stim_fb/negf.jpg,stim_03/d.jpg,stim_03/c.jpg,1,2,f,0,1,1,27,f,1,0.949764984605,03,03,60.0199495037,PLT_learning_3,A,2014_Mrz_31_1321,P26,
stim_fb/ques.jpg,stim_fb/negf.jpg,stim_fb/posf.jpg,stim_03/e.jpg,stim_03/f.jpg,2,3,j,0,2,2,55,j,1,1.09967699913,03,03,60.0199495037,PLT_learning_3,A,2014_Mrz_31_1321,P26,
stim_fb/ques.jpg,stim_fb/negf.jpg,stim_fb/posf.jpg,stim_03/f.jpg,stim_03/e.jpg,1,3,f,0,3,3,42,f,1,1.08302620948,03,03,60.0199495037,PLT_learning_3,A,2014_Mrz_31_1321,P26,
stim_fb/ques.jpg,stim_fb/negf.jpg,stim_fb/posf.jpg,stim_03/a.jpg,stim_03/b.jpg,2,1,j,0,4,4,11,j,1,0.866372403319,03,03,60.0199495037,PLT_learning_3,A,2014_Mrz_31_1321,P26,
stim_fb/ques.jpg,stim_fb/negf.jpg,stim_fb/posf.jpg,stim_03/a.jpg,stim_03/b.jpg,2,1,j,0,5,5,16,j,1,0.766484320854,03,03,60.0199495037,PLT_learning_3,A,2014_Mrz_31_1321,P26,
stim_fb/ques.jpg,stim_fb/posf.jpg,stim_fb/negf.jpg,stim_03/f.jpg,stim_03/e.jpg,1,3,f,0,6,6,49,f,1,1.01640862396,03,03,60.0199495037,PLT_learning_3,A,2014_Mrz_31_1321,P26,
stim_fb/ques.jpg,stim_fb/posf.jpg,stim_fb/negf.jpg,stim_03/d.jpg,stim_03/c.jpg,1,2,f,0,7,7,29,j,0,0.999705549185,03,03,60.0199495037,PLT_learning_3,A,2014_Mrz_31_1321,P26,
stim_fb/ques.jpg,stim_fb/posf.jpg,stim_fb/negf.jpg,stim_03/a.jpg,stim_03/b.jpg,2,1,j,0,8,8,18,j,1,0.899802447341,03,03,60.0199495037,PLT_learning_3,A,2014_Mrz_31_1321,P26,
stim_fb/ques.jpg,stim_fb/posf.jpg,stim_fb/negf.jpg,stim_03/f.jpg,stim_03/e.jpg,1,3,f,0,9,9,47,f,1,0.83310027932,03,03,60.0199495037,PLT_learning_3,A,2014_Mrz_31_1321,P26,
stim_fb/ques.jpg,stim_fb/posf.jpg,stim_fb/negf.jpg,stim_03/e.jpg,stim_03/f.jpg,2,3,j,0,10,10,57,j,1,0.933067750364,03,03,60.0199495037,PLT_learning_3,A,2014_Mrz_31_1321,P26,
stim_fb/ques.jpg,stim_fb/negf.jpg,stim_fb/posf.jpg,stim_03/d.jpg,stim_03/c.jpg,1,2,f,0,11,11,26,j,0,0.949749670492,03,03,60.0199495037,PLT_learning_3,A,2014_Mrz_31_1321,P26,
stim_fb/ques.jpg,stim_fb/posf.jpg,stim_fb/negf.jpg,stim_03/c.jpg,stim_03/d.jpg,2,2,j,0,12,12,38,f,0,0.899725741439,03,03,60.0199495037,PLT_learning_3,A,2014_Mrz_31_1321,P26,
stim_fb/ques.jpg,stim_fb/negf.jpg,stim_fb/posf.jpg,stim_03/e.jpg,stim_03/f.jpg,2,3,j,0,13,13,53,j,1,0.749802975154,03,03,60.0199495037,PLT_learning_3,A,2014_Mrz_31_1321,P26,
stim_fb/ques.jpg,stim_fb/posf.jpg,stim_fb/negf.jpg,stim_03/e.jpg,stim_03/f.jpg,2,3,j,0,14,14,56,j,1,0.649823368909,03,03,60.0199495037,PLT_learning_3,A,2014_Mrz_31_1321,P26,
stim_fb/ques.jpg,stim_fb/negf.jpg,stim_fb/posf.jpg,stim_03/b.jpg,stim_03/a.jpg,1,1,f,0,15,15,4,f,1,0.799801496976,03,03,60.0199495037,PLT_learning_3,A,2014_Mrz_31_1321,P26,
stim_fb/ques.jpg,stim_fb/posf.jpg,stim_fb/negf.jpg,stim_03/e.jpg,stim_03/f.jpg,2,3,j,0,16,16,59,j,1,0.649873296166,03,03,60.0199495037,PLT_learning_3,A,2014_Mrz_31_1321,P26,
stim_fb/ques.jpg,stim_fb/negf.jpg,stim_fb/posf.jpg,stim_03/a.jpg,stim_03/b.jpg,2,1,j,0,17,17,14,f,0,0.933077244993,03,03,60.0199495037,PLT_learning_3,A,2014_Mrz_31_1321,P26,
stim_fb/ques.jpg,stim_fb/negf.jpg,stim_fb/posf.jpg,stim_03/c.jpg,stim_03/d.jpg,2,2,j,0,18,18,32,f,0,0.999714728029,03,03,60.0199495037,PLT_learning_3,A,2014_Mrz_31_1321,P26,
stim_fb/ques.jpg,stim_fb/negf.jpg,stim_fb/posf.jpg,stim_03/b.jpg,stim_03/a.jpg,1,1,f,0,19,19,2,f,1,0.949737433036,03,03,60.0199495037,PLT_learning_3,A,2014_Mrz_31_1321,P26,
stim_fb/ques.jpg,stim_fb/posf.jpg,stim_fb/negf.jpg,stim_03/e.jpg,stim_03/f.jpg,2,3,j,0,20,20,58,j,1,0.783129236888,03,03,60.0199495037,PLT_learning_3,A,2014_Mrz_31_1321,P26,
stim_fb/ques.jpg,stim_fb/negf.jpg,stim_fb/posf.jpg,stim_03/a.jpg,stim_03/b.jpg,2,1,j,0,21,21,15,j,1,0.79976292899,03,03,60.0199495037,PLT_learning_3,A,2014_Mrz_31_1321,P26,
stim_fb/ques.jpg,stim_fb/negf.jpg,stim_fb/posf.jpg,stim_03/e.jpg,stim_03/f.jpg,2,3,j,0,22,22,51,j,1,0.699837478525,03,03,60.0199495037,PLT_learning_3,A,2014_Mrz_31_1321,P26,
stim_fb/ques.jpg,stim_fb/posf.jpg,stim_fb/negf.jpg,stim_03/b.jpg,stim_03/a.jpg,1,1,f,0,23,23,8,f,1,0.96638357011,03,03,60.0199495037,PLT_learning_3,A,2014_Mrz_31_1321,P26,
stim_fb/ques.jpg,stim_fb/negf.jpg,stim_fb/posf.jpg,stim_03/c.jpg,stim_03/d.jpg,2,2,j,0,24,24,31,f,0,0.849757071913,03,03,60.0199495037,PLT_learning_3,A,2014_Mrz_31_1321,P26,
stim_fb/ques.jpg,stim_fb/negf.jpg,stim_fb/posf.jpg,stim_03/b.jpg,stim_03/a.jpg,1,1,f,0,25,25,3,f,1,0.799770540934,03,03,60.0199495037,PLT_learning_3,A,2014_Mrz_31_1321,P26,
stim_fb/ques.jpg,stim_fb/negf.jpg,stim_fb/posf.jpg,stim_03/f.jpg,stim_03/e.jpg,1,3,f,0,26,26,44,f,1,0.749826493686,03,03,60.0199495037,PLT_learning_3,A,2014_Mrz_31_1321,P26,
stim_fb/ques.jpg,stim_fb/negf.jpg,stim_fb/posf.jpg,stim_03/f.jpg,stim_03/e.jpg,1,3,f,0,27,27,45,f,1,0.716472957072,03,03,60.0199495037,PLT_learning_3,A,2014_Mrz_31_1321,P26,
stim_fb/ques.jpg,stim_fb/negf.jpg,stim_fb/posf.jpg,stim_03/c.jpg,stim_03/d.jpg,2,2,j,0,28,28,33,f,0,0.949709129596,03,03,60.0199495037,PLT_learning_3,A,2014_Mrz_31_1321,P26,
stim_fb/ques.jpg,stim_fb/negf.jpg,stim_fb/posf.jpg,stim_03/b.jpg,stim_03/a.jpg,1,1,f,0,29,29,0,f,1,0.76645318737,03,03,60.0199495037,PLT_learning_3,A,2014_Mrz_31_1321,P26,
stim_fb/ques.jpg,stim_fb/negf.jpg,stim_fb/posf.jpg,stim_03/e.jpg,stim_03/f.jpg,2,3,j,0,30,30,54,j,1,1.24962799668,03,03,60.0199495037,PLT_learning_3,A,2014_Mrz_31_1321,P26,
stim_fb/ques.jpg,stim_fb/negf.jpg,stim_fb/posf.jpg,stim_03/f.jpg,stim_03/e.jpg,1,3,f,0,31,31,41,f,1,0.649750106578,03,03,60.0199495037,PLT_learning_3,A,2014_Mrz_31_1321,P26,
stim_fb/ques.jpg,stim_fb/negf.jpg,stim_fb/posf.jpg,stim_03/a.jpg,stim_03/b.jpg,2,1,j,0,32,32,12,j,1,0.816455056522,03,03,60.0199495037,PLT_learning_3,A,2014_Mrz_31_1321,P26,
stim_fb/ques.jpg,stim_fb/posf.jpg,stim_fb/negf.jpg,stim_03/b.jpg,stim_03/a.jpg,1,1,f,0,33,33,9,f,1,0.549857690327,03,03,60.0199495037,PLT_learning_3,A,2014_Mrz_31_1321,P26,
stim_fb/ques.jpg,stim_fb/posf.jpg,stim_fb/negf.jpg,stim_03/c.jpg,stim_03/d.jpg,2,2,j,0,34,34,37,j,1,0.866419464442,03,03,60.0199495037,PLT_learning_3,A,2014_Mrz_31_1321,P26,
stim_fb/ques.jpg,stim_fb/negf.jpg,stim_fb/posf.jpg,stim_03/c.jpg,stim_03/d.jpg,2,2,j,0,35,35,35,f,0,0.766433343985,03,03,60.0199495037,PLT_learning_3,A,2014_Mrz_31_1321,P26,
stim_fb/ques.jpg,stim_fb/negf.jpg,stim_fb/posf.jpg,stim_03/b.jpg,stim_03/a.jpg,1,1,f,0,36,36,5,f,1,0.633181673891,03,03,60.0199495037,PLT_learning_3,A,2014_Mrz_31_1321,P26,
stim_fb/ques.jpg,stim_fb/negf.jpg,stim_fb/posf.jpg,stim_03/b.jpg,stim_03/a.jpg,1,1,f,0,37,37,1,f,1,0.69986376695,03,03,60.0199495037,PLT_learning_3,A,2014_Mrz_31_1321,P26,
stim_fb/ques.jpg,stim_fb/negf.jpg,stim_fb/posf.jpg,stim_03/d.jpg,stim_03/c.jpg,1,2,f,0,38,38,22,j,0,0.649823215528,03,03,60.0199495037,PLT_learning_3,A,2014_Mrz_31_1321,P26,
stim_fb/ques.jpg,stim_fb/negf.jpg,stim_fb/posf.jpg,stim_03/d.jpg,stim_03/c.jpg,1,2,f,0,39,39,25,j,0,0.799779181438,03,03,60.0199495037,PLT_learning_3,A,2014_Mrz_31_1321,P26,
stim_fb/ques.jpg,stim_fb/negf.jpg,stim_fb/posf.jpg,stim_03/c.jpg,stim_03/d.jpg,2,2,j,0,40,40,36,f,0,0.766466724059,03,03,60.0199495037,PLT_learning_3,A,2014_Mrz_31_1321,P26,
stim_fb/ques.jpg,stim_fb/negf.jpg,stim_fb/posf.jpg,stim_03/a.jpg,stim_03/b.jpg,2,1,j,0,41,41,10,j,1,0.899775055168,03,03,60.0199495037,PLT_learning_3,A,2014_Mrz_31_1321,P26,
stim_fb/ques.jpg,stim_fb/negf.jpg,stim_fb/posf.jpg,stim_03/c.jpg,stim_03/d.jpg,2,2,j,0,42,42,34,j,1,0.733075383361,03,03,60.0199495037,PLT_learning_3,A,2014_Mrz_31_1321,P26,
stim_fb/ques.jpg,stim_fb/posf.jpg,stim_fb/negf.jpg,stim_03/c.jpg,stim_03/d.jpg,2,2,j,0,43,43,39,j,1,0.466580485182,03,03,60.0199495037,PLT_learning_3,A,2014_Mrz_31_1321,P26,
stim_fb/ques.jpg,stim_fb/negf.jpg,stim_fb/posf.jpg,stim_03/f.jpg,stim_03/e.jpg,1,3,f,0,44,44,43,f,1,0.716465212798,03,03,60.0199495037,PLT_learning_3,A,2014_Mrz_31_1321,P26,
stim_fb/ques.jpg,stim_fb/negf.jpg,stim_fb/posf.jpg,stim_03/d.jpg,stim_03/c.jpg,1,2,f,0,45,45,20,f,1,0.766462447416,03,03,60.0199495037,PLT_learning_3,A,2014_Mrz_31_1321,P26,
stim_fb/ques.jpg,stim_fb/negf.jpg,stim_fb/posf.jpg,stim_03/d.jpg,stim_03/c.jpg,1,2,f,0,46,46,21,f,1,0.566534645098,03,03,60.0199495037,PLT_learning_3,A,2014_Mrz_31_1321,P26,
stim_fb/ques.jpg,stim_fb/negf.jpg,stim_fb/posf.jpg,stim_03/e.jpg,stim_03/f.jpg,2,3,j,0,47,47,52,j,1,0.816425856851,03,03,60.0199495037,PLT_learning_3,A,2014_Mrz_31_1321,P26,
stim_fb/ques.jpg,stim_fb/negf.jpg,stim_fb/posf.jpg,stim_03/c.jpg,stim_03/d.jpg,2,2,j,0,48,48,30,j,1,0.733104577016,03,03,60.0199495037,PLT_learning_3,A,2014_Mrz_31_1321,P26,
stim_fb/ques.jpg,stim_fb/negf.jpg,stim_fb/posf.jpg,stim_03/e.jpg,stim_03/f.jpg,2,3,j,0,49,49,50,j,1,0.683158725278,03,03,60.0199495037,PLT_learning_3,A,2014_Mrz_31_1321,P26,
stim_fb/ques.jpg,stim_fb/negf.jpg,stim_fb/posf.jpg,stim_03/f.jpg,stim_03/e.jpg,1,3,f,0,50,50,40,f,1,0.666490651609,03,03,60.0199495037,PLT_learning_3,A,2014_Mrz_31_1321,P26,
stim_fb/ques.jpg,stim_fb/posf.jpg,stim_fb/negf.jpg,stim_03/f.jpg,stim_03/e.jpg,1,3,f,0,51,51,46,f,1,0.949725553471,03,03,60.0199495037,PLT_learning_3,A,2014_Mrz_31_1321,P26,
stim_fb/ques.jpg,stim_fb/negf.jpg,stim_fb/posf.jpg,stim_03/d.jpg,stim_03/c.jpg,1,2,f,0,52,52,24,j,0,0.699796342146,03,03,60.0199495037,PLT_learning_3,A,2014_Mrz_31_1321,P26,
stim_fb/ques.jpg,stim_fb/negf.jpg,stim_fb/posf.jpg,stim_03/b.jpg,stim_03/a.jpg,1,1,f,0,53,53,7,f,1,0.816454671564,03,03,60.0199495037,PLT_learning_3,A,2014_Mrz_31_1321,P26,
stim_fb/ques.jpg,stim_fb/negf.jpg,stim_fb/posf.jpg,stim_03/d.jpg,stim_03/c.jpg,1,2,f,0,54,54,23,f,1,1.16618006263,03,03,60.0199495037,PLT_learning_3,A,2014_Mrz_31_1321,P26,
stim_fb/ques.jpg,stim_fb/posf.jpg,stim_fb/negf.jpg,stim_03/d.jpg,stim_03/c.jpg,1,2,f,0,55,55,28,f,1,0.516539666094,03,03,60.0199495037,PLT_learning_3,A,2014_Mrz_31_1321,P26,
stim_fb/ques.jpg,stim_fb/negf.jpg,stim_fb/posf.jpg,stim_03/a.jpg,stim_03/b.jpg,2,1,j,0,56,56,17,j,1,0.733140164585,03,03,60.0199495037,PLT_learning_3,A,2014_Mrz_31_1321,P26,
stim_fb/ques.jpg,stim_fb/posf.jpg,stim_fb/negf.jpg,stim_03/f.jpg,stim_03/e.jpg,1,3,f,0,57,57,48,f,1,0.649838652947,03,03,60.0199495037,PLT_learning_3,A,2014_Mrz_31_1321,P26,
stim_fb/ques.jpg,stim_fb/negf.jpg,stim_fb/posf.jpg,stim_03/b.jpg,stim_03/a.jpg,1,1,f,0,58,58,6,f,1,0.983086861426,03,03,60.0199495037,PLT_learning_3,A,2014_Mrz_31_1321,P26,
stim_fb/ques.jpg,stim_fb/posf.jpg,stim_fb/negf.jpg,stim_03/a.jpg,stim_03/b.jpg,2,1,j,0,59,59,19,j,1,0.683132533092,03,03,60.0199495037,PLT_learning_3,A,2014_Mrz_31_1321,P26,
stim_fb/ques.jpg,stim_fb/posf.jpg,stim_fb/negf.jpg,stim_03/c.jpg,stim_03/d.jpg,2,2,j,1,0,60,38,j,1,1.04971376413,03,03,60.0199495037,PLT_learning_3,A,2014_Mrz_31_1321,P26,
stim_fb/ques.jpg,stim_fb/negf.jpg,stim_fb/posf.jpg,stim_03/a.jpg,stim_03/b.jpg,2,1,j,1,1,61,10,j,1,0.7331345857,03,03,60.0199495037,PLT_learning_3,A,2014_Mrz_31_1321,P26,
stim_fb/ques.jpg,stim_fb/negf.jpg,stim_fb/posf.jpg,stim_03/f.jpg,stim_03/e.jpg,1,3,f,1,2,62,40,f,1,0.616520315936,03,03,60.0199495037,PLT_learning_3,A,2014_Mrz_31_1321,P26,
stim_fb/ques.jpg,stim_fb/posf.jpg,stim_fb/negf.jpg,stim_03/e.jpg,stim_03/f.jpg,2,3,j,1,3,63,58,j,1,0.54985507983,03,03,60.0199495037,PLT_learning_3,A,2014_Mrz_31_1321,P26,
stim_fb/ques.jpg,stim_fb/negf.jpg,stim_fb/posf.jpg,stim_03/f.jpg,stim_03/e.jpg,1,3,f,1,4,64,41,f,1,0.616522508393,03,03,60.0199495037,PLT_learning_3,A,2014_Mrz_31_1321,P26,
stim_fb/ques.jpg,stim_fb/negf.jpg,stim_fb/posf.jpg,stim_03/c.jpg,stim_03/d.jpg,2,2,j,1,5,65,34,j,1,0.483170634918,03,03,60.0199495037,PLT_learning_3,A,2014_Mrz_31_1321,P26,
stim_fb/ques.jpg,stim_fb/negf.jpg,stim_fb/posf.jpg,stim_03/c.jpg,stim_03/d.jpg,2,2,j,1,6,66,33,j,1,0.616554923065,03,03,60.0199495037,PLT_learning_3,A,2014_Mrz_31_1321,P26,
stim_fb/ques.jpg,stim_fb/posf.jpg,stim_fb/negf.jpg,stim_03/a.jpg,stim_03/b.jpg,2,1,j,1,7,67,18,j,1,0.633161283144,03,03,60.0199495037,PLT_learning_3,A,2014_Mrz_31_1321,P26,
stim_fb/ques.jpg,stim_fb/negf.jpg,stim_fb/posf.jpg,stim_03/b.jpg,stim_03/a.jpg,1,1,f,1,8,68,3,f,1,0.59984930997,03,03,60.0199495037,PLT_learning_3,A,2014_Mrz_31_1321,P26,
stim_fb/ques.jpg,stim_fb/posf.jpg,stim_fb/negf.jpg,stim_03/c.jpg,stim_03/d.jpg,2,2,j,1,9,69,39,j,1,0.73336431544,03,03,60.0199495037,PLT_learning_3,A,2014_Mrz_31_1321,P26,
stim_fb/ques.jpg,stim_fb/negf.jpg,stim_fb/posf.jpg,stim_03/e.jpg,stim_03/f.jpg,2,3,j,1,10,70,52,None,0,,03,03,60.0199495037,PLT_learning_3,A,2014_Mrz_31_1321,P26,
stim_fb/ques.jpg,stim_fb/negf.jpg,stim_fb/posf.jpg,stim_03/a.jpg,stim_03/b.jpg,2,1,j,1,11,71,17,j,1,0.633166952252,03,03,60.0199495037,PLT_learning_3,A,2014_Mrz_31_1321,P26,
stim_fb/ques.jpg,stim_fb/negf.jpg,stim_fb/posf.jpg,stim_03/a.jpg,stim_03/b.jpg,2,1,j,1,12,72,15,j,1,0.51650162141,03,03,60.0199495037,PLT_learning_3,A,2014_Mrz_31_1321,P26,
stim_fb/ques.jpg,stim_fb/negf.jpg,stim_fb/posf.jpg,stim_03/d.jpg,stim_03/c.jpg,1,2,f,1,13,73,23,f,1,0.783052927974,03,03,60.0199495037,PLT_learning_3,A,2014_Mrz_31_1321,P26,
stim_fb/ques.jpg,stim_fb/negf.jpg,stim_fb/posf.jpg,stim_03/a.jpg,stim_03/b.jpg,2,1,j,1,14,74,14,j,1,0.549848129533,03,03,60.0199495037,PLT_learning_3,A,2014_Mrz_31_1321,P26,
stim_fb/ques.jpg,stim_fb/negf.jpg,stim_fb/posf.jpg,stim_03/d.jpg,stim_03/c.jpg,1,2,f,1,15,75,20,f,1,0.683145540464,03,03,60.0199495037,PLT_learning_3,A,2014_Mrz_31_1321,P26,
stim_fb/ques.jpg,stim_fb/negf.jpg,stim_fb/posf.jpg,stim_03/a.jpg,stim_03/b.jpg,2,1,j,1,16,76,12,j,1,0.599839225873,03,03,60.0199495037,PLT_learning_3,A,2014_Mrz_31_1321,P26,
stim_fb/ques.jpg,stim_fb/negf.jpg,stim_fb/posf.jpg,stim_03/e.jpg,stim_03/f.jpg,2,3,j,1,17,77,51,j,1,0.699817523862,03,03,60.0199495037,PLT_learning_3,A,2014_Mrz_31_1321,P26,
stim_fb/ques.jpg,stim_fb/posf.jpg,stim_fb/negf.jpg,stim_03/f.jpg,stim_03/e.jpg,1,3,f,1,18,78,46,f,1,0.683211497615,03,03,60.0199495037,PLT_learning_3,A,2014_Mrz_31_1321,P26,
stim_fb/ques.jpg,stim_fb/negf.jpg,stim_fb/posf.jpg,stim_03/c.jpg,stim_03/d.jpg,2,2,j,1,19,79,35,j,1,0.599811878813,03,03,60.0199495037,PLT_learning_3,A,2014_Mrz_31_1321,P26,
stim_fb/ques.jpg,stim_fb/posf.jpg,stim_fb/negf.jpg,stim_03/b.jpg,stim_03/a.jpg,1,1,f,1,20,80,9,f,1,0.766449431021,03,03,60.0199495037,PLT_learning_3,A,2014_Mrz_31_1321,P26,
stim_fb/ques.jpg,stim_fb/negf.jpg,stim_fb/posf.jpg,stim_03/e.jpg,stim_03/f.jpg,2,3,j,1,21,81,53,j,1,0.516608588625,03,03,60.0199495037,PLT_learning_3,A,2014_Mrz_31_1321,P26,
stim_fb/ques.jpg,stim_fb/negf.jpg,stim_fb/posf.jpg,stim_03/f.jpg,stim_03/e.jpg,1,3,f,1,22,82,42,f,1,0.733185039267,03,03,60.0199495037,PLT_learning_3,A,2014_Mrz_31_1321,P26,
stim_fb/ques.jpg,stim_fb/posf.jpg,stim_fb/negf.jpg,stim_03/d.jpg,stim_03/c.jpg,1,2,f,1,23,83,28,f,1,0.616497308677,03,03,60.0199495037,PLT_learning_3,A,2014_Mrz_31_1321,P26,
stim_fb/ques.jpg,stim_fb/negf.jpg,stim_fb/posf.jpg,stim_03/e.jpg,stim_03/f.jpg,2,3,j,1,24,84,55,j,1,0.59981994188,03,03,60.0199495037,PLT_learning_3,A,2014_Mrz_31_1321,P26,
stim_fb/ques.jpg,stim_fb/negf.jpg,stim_fb/posf.jpg,stim_03/e.jpg,stim_03/f.jpg,2,3,j,1,25,85,54,j,1,0.649844475438,03,03,60.0199495037,PLT_learning_3,A,2014_Mrz_31_1321,P26,
stim_fb/ques.jpg,stim_fb/posf.jpg,stim_fb/negf.jpg,stim_03/a.jpg,stim_03/b.jpg,2,1,j,1,26,86,19,j,1,0.599837547697,03,03,60.0199495037,PLT_learning_3,A,2014_Mrz_31_1321,P26,
stim_fb/ques.jpg,stim_fb/posf.jpg,stim_fb/negf.jpg,stim_03/e.jpg,stim_03/f.jpg,2,3,j,1,27,87,57,j,1,0.833100826682,03,03,60.0199495037,PLT_learning_3,A,2014_Mrz_31_1321,P26,
stim_fb/ques.jpg,stim_fb/negf.jpg,stim_fb/posf.jpg,stim_03/b.jpg,stim_03/a.jpg,1,1,f,1,28,88,7,f,1,0.616506424364,03,03,60.0199495037,PLT_learning_3,A,2014_Mrz_31_1321,P26,
stim_fb/ques.jpg,stim_fb/posf.jpg,stim_fb/negf.jpg,stim_03/f.jpg,stim_03/e.jpg,1,3,f,1,29,89,49,f,1,0.599893005718,03,03,60.0199495037,PLT_learning_3,A,2014_Mrz_31_1321,P26,
stim_fb/ques.jpg,stim_fb/negf.jpg,stim_fb/posf.jpg,stim_03/b.jpg,stim_03/a.jpg,1,1,f,1,30,90,1,f,1,0.549872857073,03,03,60.0199495037,PLT_learning_3,A,2014_Mrz_31_1321,P26,
stim_fb/ques.jpg,stim_fb/negf.jpg,stim_fb/posf.jpg,stim_03/d.jpg,stim_03/c.jpg,1,2,f,1,31,91,24,f,1,0.533200431574,03,03,60.0199495037,PLT_learning_3,A,2014_Mrz_31_1321,P26,
stim_fb/ques.jpg,stim_fb/posf.jpg,stim_fb/negf.jpg,stim_03/d.jpg,stim_03/c.jpg,1,2,f,1,32,92,27,f,1,0.516502358244,03,03,60.0199495037,PLT_learning_3,A,2014_Mrz_31_1321,P26,
stim_fb/ques.jpg,stim_fb/negf.jpg,stim_fb/posf.jpg,stim_03/c.jpg,stim_03/d.jpg,2,2,j,1,33,93,36,j,1,0.849804382658,03,03,60.0199495037,PLT_learning_3,A,2014_Mrz_31_1321,P26,
stim_fb/ques.jpg,stim_fb/posf.jpg,stim_fb/negf.jpg,stim_03/f.jpg,stim_03/e.jpg,1,3,f,1,34,94,48,f,1,0.583195016598,03,03,60.0199495037,PLT_learning_3,A,2014_Mrz_31_1321,P26,
stim_fb/ques.jpg,stim_fb/negf.jpg,stim_fb/posf.jpg,stim_03/a.jpg,stim_03/b.jpg,2,1,j,1,35,95,13,j,1,0.766465325579,03,03,60.0199495037,PLT_learning_3,A,2014_Mrz_31_1321,P26,
stim_fb/ques.jpg,stim_fb/negf.jpg,stim_fb/posf.jpg,stim_03/d.jpg,stim_03/c.jpg,1,2,f,1,36,96,25,f,1,0.616520947508,03,03,60.0199495037,PLT_learning_3,A,2014_Mrz_31_1321,P26,
stim_fb/ques.jpg,stim_fb/negf.jpg,stim_fb/posf.jpg,stim_03/a.jpg,stim_03/b.jpg,2,1,j,1,37,97,16,j,1,0.849710488979,03,03,60.0199495037,PLT_learning_3,A,2014_Mrz_31_1321,P26,
stim_fb/ques.jpg,stim_fb/posf.jpg,stim_fb/negf.jpg,stim_03/f.jpg,stim_03/e.jpg,1,3,f,1,38,98,47,f,1,0.816434028188,03,03,60.0199495037,PLT_learning_3,A,2014_Mrz_31_1321,P26,
stim_fb/ques.jpg,stim_fb/posf.jpg,stim_fb/negf.jpg,stim_03/e.jpg,stim_03/f.jpg,2,3,j,1,39,99,56,j,1,1.08298236035,03,03,60.0199495037,PLT_learning_3,A,2014_Mrz_31_1321,P26,
stim_fb/ques.jpg,stim_fb/negf.jpg,stim_fb/posf.jpg,stim_03/c.jpg,stim_03/d.jpg,2,2,j,1,40,100,30,j,1,1.03303740183,03,03,60.0199495037,PLT_learning_3,A,2014_Mrz_31_1321,P26,
stim_fb/ques.jpg,stim_fb/negf.jpg,stim_fb/posf.jpg,stim_03/b.jpg,stim_03/a.jpg,1,1,f,1,41,101,5,f,1,1.08299079634,03,03,60.0199495037,PLT_learning_3,A,2014_Mrz_31_1321,P26,
stim_fb/ques.jpg,stim_fb/negf.jpg,stim_fb/posf.jpg,stim_03/a.jpg,stim_03/b.jpg,2,1,j,1,42,102,11,j,1,0.733128318102,03,03,60.0199495037,PLT_learning_3,A,2014_Mrz_31_1321,P26,
stim_fb/ques.jpg,stim_fb/negf.jpg,stim_fb/posf.jpg,stim_03/c.jpg,stim_03/d.jpg,2,2,j,1,43,103,31,j,1,0.999723251241,03,03,60.0199495037,PLT_learning_3,A,2014_Mrz_31_1321,P26,
stim_fb/ques.jpg,stim_fb/negf.jpg,stim_fb/posf.jpg,stim_03/d.jpg,stim_03/c.jpg,1,2,f,1,44,104,22,f,1,0.616508057428,03,03,60.0199495037,PLT_learning_3,A,2014_Mrz_31_1321,P26,
stim_fb/ques.jpg,stim_fb/negf.jpg,stim_fb/posf.jpg,stim_03/b.jpg,stim_03/a.jpg,1,1,f,1,45,105,2,f,1,1.06637100785,03,03,60.0199495037,PLT_learning_3,A,2014_Mrz_31_1321,P26,
stim_fb/ques.jpg,stim_fb/negf.jpg,stim_fb/posf.jpg,stim_03/d.jpg,stim_03/c.jpg,1,2,f,1,46,106,26,f,1,0.766430983109,03,03,60.0199495037,PLT_learning_3,A,2014_Mrz_31_1321,P26,
stim_fb/ques.jpg,stim_fb/negf.jpg,stim_fb/posf.jpg,stim_03/f.jpg,stim_03/e.jpg,1,3,f,1,47,107,44,j,0,0.8664428326,03,03,60.0199495037,PLT_learning_3,A,2014_Mrz_31_1321,P26,
stim_fb/ques.jpg,stim_fb/negf.jpg,stim_fb/posf.jpg,stim_03/b.jpg,stim_03/a.jpg,1,1,f,1,48,108,4,f,1,0.799765635726,03,03,60.0199495037,PLT_learning_3,A,2014_Mrz_31_1321,P26,
stim_fb/ques.jpg,stim_fb/negf.jpg,stim_fb/posf.jpg,stim_03/f.jpg,stim_03/e.jpg,1,3,f,1,49,109,43,j,0,0.833071566862,03,03,60.0199495037,PLT_learning_3,A,2014_Mrz_31_1321,P26,
stim_fb/ques.jpg,stim_fb/negf.jpg,stim_fb/posf.jpg,stim_03/b.jpg,stim_03/a.jpg,1,1,f,1,50,110,6,f,1,0.666491577914,03,03,60.0199495037,PLT_learning_3,A,2014_Mrz_31_1321,P26,
stim_fb/ques.jpg,stim_fb/negf.jpg,stim_fb/posf.jpg,stim_03/e.jpg,stim_03/f.jpg,2,3,j,1,51,111,50,j,1,0.599831872573,03,03,60.0199495037,PLT_learning_3,A,2014_Mrz_31_1321,P26,
stim_fb/ques.jpg,stim_fb/negf.jpg,stim_fb/posf.jpg,stim_03/c.jpg,stim_03/d.jpg,2,2,j,1,52,112,32,j,1,0.933038346184,03,03,60.0199495037,PLT_learning_3,A,2014_Mrz_31_1321,P26,
stim_fb/ques.jpg,stim_fb/negf.jpg,stim_fb/posf.jpg,stim_03/d.jpg,stim_03/c.jpg,1,2,f,1,53,113,21,f,1,0.883120620444,03,03,60.0199495037,PLT_learning_3,A,2014_Mrz_31_1321,P26,
stim_fb/ques.jpg,stim_fb/posf.jpg,stim_fb/negf.jpg,stim_03/e.jpg,stim_03/f.jpg,2,3,j,1,54,114,59,f,0,0.816428085398,03,03,60.0199495037,PLT_learning_3,A,2014_Mrz_31_1321,P26,
stim_fb/ques.jpg,stim_fb/posf.jpg,stim_fb/negf.jpg,stim_03/c.jpg,stim_03/d.jpg,2,2,j,1,55,115,37,j,1,0.983045529562,03,03,60.0199495037,PLT_learning_3,A,2014_Mrz_31_1321,P26,
stim_fb/ques.jpg,stim_fb/posf.jpg,stim_fb/negf.jpg,stim_03/b.jpg,stim_03/a.jpg,1,1,f,1,56,116,8,f,1,1.29964344162,03,03,60.0199495037,PLT_learning_3,A,2014_Mrz_31_1321,P26,
stim_fb/ques.jpg,stim_fb/posf.jpg,stim_fb/negf.jpg,stim_03/d.jpg,stim_03/c.jpg,1,2,f,1,57,117,29,f,1,0.749805005207,03,03,60.0199495037,PLT_learning_3,A,2014_Mrz_31_1321,P26,
stim_fb/ques.jpg,stim_fb/negf.jpg,stim_fb/posf.jpg,stim_03/b.jpg,stim_03/a.jpg,1,1,f,1,58,118,0,f,1,0.699829475608,03,03,60.0199495037,PLT_learning_3,A,2014_Mrz_31_1321,P26,
stim_fb/ques.jpg,stim_fb/negf.jpg,stim_fb/posf.jpg,stim_03/f.jpg,stim_03/e.jpg,1,3,f,1,59,119,45,j,0,1.01641242242,03,03,60.0199495037,PLT_learning_3,A,2014_Mrz_31_1321,P26,
stim_fb/ques.jpg,stim_fb/negf.jpg,stim_fb/posf.jpg,stim_03/f.jpg,stim_03/e.jpg,1,3,f,2,0,120,45,j,0,1.41622908012,03,03,60.0199495037,PLT_learning_3,A,2014_Mrz_31_1321,P26,
stim_fb/ques.jpg,stim_fb/posf.jpg,stim_fb/negf.jpg,stim_03/c.jpg,stim_03/d.jpg,2,2,j,2,1,121,38,j,1,0.683139011214,03,03,60.0199495037,PLT_learning_3,A,2014_Mrz_31_1321,P26,
stim_fb/ques.jpg,stim_fb/posf.jpg,stim_fb/negf.jpg,stim_03/e.jpg,stim_03/f.jpg,2,3,j,2,2,122,57,f,0,0.833106077751,03,03,60.0199495037,PLT_learning_3,A,2014_Mrz_31_1321,P26,
stim_fb/ques.jpg,stim_fb/posf.jpg,stim_fb/negf.jpg,stim_03/f.jpg,stim_03/e.jpg,1,3,f,2,3,123,47,None,0,,03,03,60.0199495037,PLT_learning_3,A,2014_Mrz_31_1321,P26,
stim_fb/ques.jpg,stim_fb/posf.jpg,stim_fb/negf.jpg,stim_03/b.jpg,stim_03/a.jpg,1,1,f,2,4,124,8,f,1,0.916457005372,03,03,60.0199495037,PLT_learning_3,A,2014_Mrz_31_1321,P26,
stim_fb/ques.jpg,stim_fb/posf.jpg,stim_fb/negf.jpg,stim_03/f.jpg,stim_03/e.jpg,1,3,f,2,5,125,46,j,0,0.833091136566,03,03,60.0199495037,PLT_learning_3,A,2014_Mrz_31_1321,P26,
stim_fb/ques.jpg,stim_fb/posf.jpg,stim_fb/negf.jpg,stim_03/b.jpg,stim_03/a.jpg,1,1,f,2,6,126,9,f,1,0.89977388225,03,03,60.0199495037,PLT_learning_3,A,2014_Mrz_31_1321,P26,
stim_fb/ques.jpg,stim_fb/negf.jpg,stim_fb/posf.jpg,stim_03/f.jpg,stim_03/e.jpg,1,3,f,2,7,127,44,j,0,0.949713198723,03,03,60.0199495037,PLT_learning_3,A,2014_Mrz_31_1321,P26,
stim_fb/ques.jpg,stim_fb/negf.jpg,stim_fb/posf.jpg,stim_03/c.jpg,stim_03/d.jpg,2,2,j,2,8,128,32,f,0,0.833101900354,03,03,60.0199495037,PLT_learning_3,A,2014_Mrz_31_1321,P26,
stim_fb/ques.jpg,stim_fb/negf.jpg,stim_fb/posf.jpg,stim_03/b.jpg,stim_03/a.jpg,1,1,f,2,9,129,2,f,1,0.749817883257,03,03,60.0199495037,PLT_learning_3,A,2014_Mrz_31_1321,P26,
stim_fb/ques.jpg,stim_fb/negf.jpg,stim_fb/posf.jpg,stim_03/b.jpg,stim_03/a.jpg,1,1,f,2,10,130,6,f,1,0.58318450243,03,03,60.0199495037,PLT_learning_3,A,2014_Mrz_31_1321,P26,
stim_fb/ques.jpg,stim_fb/negf.jpg,stim_fb/posf.jpg,stim_03/c.jpg,stim_03/d.jpg,2,2,j,2,11,131,36,j,1,1.01631113935,03,03,60.0199495037,PLT_learning_3,A,2014_Mrz_31_1321,P26,
stim_fb/ques.jpg,stim_fb/negf.jpg,stim_fb/posf.jpg,stim_03/a.jpg,stim_03/b.jpg,2,1,j,2,12,132,16,f,0,0.716479901354,03,03,60.0199495037,PLT_learning_3,A,2014_Mrz_31_1321,P26,
stim_fb/ques.jpg,stim_fb/negf.jpg,stim_fb/posf.jpg,stim_03/c.jpg,stim_03/d.jpg,2,2,j,2,13,133,34,j,1,0.799791996331,03,03,60.0199495037,PLT_learning_3,A,2014_Mrz_31_1321,P26,
stim_fb/ques.jpg,stim_fb/negf.jpg,stim_fb/posf.jpg,stim_03/a.jpg,stim_03/b.jpg,2,1,j,2,14,134,10,f,0,1.1663478863,03,03,60.0199495037,PLT_learning_3,A,2014_Mrz_31_1321,P26,
stim_fb/ques.jpg,stim_fb/negf.jpg,stim_fb/posf.jpg,stim_03/b.jpg,stim_03/a.jpg,1,1,f,2,15,135,1,f,1,0.899832025955,03,03,60.0199495037,PLT_learning_3,A,2014_Mrz_31_1321,P26,
stim_fb/ques.jpg,stim_fb/negf.jpg,stim_fb/posf.jpg,stim_03/c.jpg,stim_03/d.jpg,2,2,j,2,16,136,35,j,1,0.649799940602,03,03,60.0199495037,PLT_learning_3,A,2014_Mrz_31_1321,P26,
stim_fb/ques.jpg,stim_fb/negf.jpg,stim_fb/posf.jpg,stim_03/d.jpg,stim_03/c.jpg,1,2,f,2,17,137,25,f,1,0.666495719221,03,03,60.0199495037,PLT_learning_3,A,2014_Mrz_31_1321,P26,
stim_fb/ques.jpg,stim_fb/negf.jpg,stim_fb/posf.jpg,stim_03/d.jpg,stim_03/c.jpg,1,2,f,2,18,138,26,f,1,0.766472745045,03,03,60.0199495037,PLT_learning_3,A,2014_Mrz_31_1321,P26,
stim_fb/ques.jpg,stim_fb/negf.jpg,stim_fb/posf.jpg,stim_03/b.jpg,stim_03/a.jpg,1,1,f,2,19,139,7,f,1,0.966243210791,03,03,60.0199495037,PLT_learning_3,A,2014_Mrz_31_1321,P26,
stim_fb/ques.jpg,stim_fb/negf.jpg,stim_fb/posf.jpg,stim_03/b.jpg,stim_03/a.jpg,1,1,f,2,20,140,5,f,1,0.633179926542,03,03,60.0199495037,PLT_learning_3,A,2014_Mrz_31_1321,P26,
stim_fb/ques.jpg,stim_fb/negf.jpg,stim_fb/posf.jpg,stim_03/b.jpg,stim_03/a.jpg,1,1,f,2,21,141,3,f,1,0.966405924745,03,03,60.0199495037,PLT_learning_3,A,2014_Mrz_31_1321,P26,
stim_fb/ques.jpg,stim_fb/negf.jpg,stim_fb/posf.jpg,stim_03/a.jpg,stim_03/b.jpg,2,1,j,2,22,142,17,j,1,0.616502953726,03,03,60.0199495037,PLT_learning_3,A,2014_Mrz_31_1321,P26,
stim_fb/ques.jpg,stim_fb/posf.jpg,stim_fb/negf.jpg,stim_03/a.jpg,stim_03/b.jpg,2,1,j,2,23,143,19,j,1,0.583209687109,03,03,60.0199495037,PLT_learning_3,A,2014_Mrz_31_1321,P26,
stim_fb/ques.jpg,stim_fb/negf.jpg,stim_fb/posf.jpg,stim_03/d.jpg,stim_03/c.jpg,1,2,f,2,24,144,22,f,1,0.866428210208,03,03,60.0199495037,PLT_learning_3,A,2014_Mrz_31_1321,P26,
stim_fb/ques.jpg,stim_fb/posf.jpg,stim_fb/negf.jpg,stim_03/e.jpg,stim_03/f.jpg,2,3,j,2,25,145,59,j,1,1.56616127788,03,03,60.0199495037,PLT_learning_3,A,2014_Mrz_31_1321,P26,
stim_fb/ques.jpg,stim_fb/posf.jpg,stim_fb/negf.jpg,stim_03/f.jpg,stim_03/e.jpg,1,3,f,2,26,146,49,j,0,1.01637896415,03,03,60.0199495037,PLT_learning_3,A,2014_Mrz_31_1321,P26,
stim_fb/ques.jpg,stim_fb/negf.jpg,stim_fb/posf.jpg,stim_03/a.jpg,stim_03/b.jpg,2,1,j,2,27,147,14,j,1,1.03303229813,03,03,60.0199495037,PLT_learning_3,A,2014_Mrz_31_1321,P26,
stim_fb/ques.jpg,stim_fb/negf.jpg,stim_fb/posf.jpg,stim_03/f.jpg,stim_03/e.jpg,1,3,f,2,28,148,42,j,0,0.833132766172,03,03,60.0199495037,PLT_learning_3,A,2014_Mrz_31_1321,P26,
stim_fb/ques.jpg,stim_fb/negf.jpg,stim_fb/posf.jpg,stim_03/e.jpg,stim_03/f.jpg,2,3,j,2,29,149,51,f,0,1.08300902772,03,03,60.0199495037,PLT_learning_3,A,2014_Mrz_31_1321,P26,
stim_fb/ques.jpg,stim_fb/negf.jpg,stim_fb/posf.jpg,stim_03/c.jpg,stim_03/d.jpg,2,2,j,2,30,150,31,j,1,1.04970555971,03,03,60.0199495037,PLT_learning_3,A,2014_Mrz_31_1321,P26,
stim_fb/ques.jpg,stim_fb/negf.jpg,stim_fb/posf.jpg,stim_03/e.jpg,stim_03/f.jpg,2,3,j,2,31,151,55,f,0,0.766449882145,03,03,60.0199495037,PLT_learning_3,A,2014_Mrz_31_1321,P26,
stim_fb/ques.jpg,stim_fb/posf.jpg,stim_fb/negf.jpg,stim_03/e.jpg,stim_03/f.jpg,2,3,j,2,32,152,56,j,1,0.849809116439,03,03,60.0199495037,PLT_learning_3,A,2014_Mrz_31_1321,P26,
stim_fb/ques.jpg,stim_fb/negf.jpg,stim_fb/posf.jpg,stim_03/f.jpg,stim_03/e.jpg,1,3,f,2,33,153,40,f,1,0.933060691797,03,03,60.0199495037,PLT_learning_3,A,2014_Mrz_31_1321,P26,
stim_fb/ques.jpg,stim_fb/posf.jpg,stim_fb/negf.jpg,stim_03/a.jpg,stim_03/b.jpg,2,1,j,2,34,154,18,None,0,,03,03,60.0199495037,PLT_learning_3,A,2014_Mrz_31_1321,P26,
stim_fb/ques.jpg,stim_fb/negf.jpg,stim_fb/posf.jpg,stim_03/a.jpg,stim_03/b.jpg,2,1,j,2,35,155,15,j,1,0.666472841284,03,03,60.0199495037,PLT_learning_3,A,2014_Mrz_31_1321,P26,
stim_fb/ques.jpg,stim_fb/negf.jpg,stim_fb/posf.jpg,stim_03/d.jpg,stim_03/c.jpg,1,2,f,2,36,156,20,j,0,0.69978863697,03,03,60.0199495037,PLT_learning_3,A,2014_Mrz_31_1321,P26,
stim_fb/ques.jpg,stim_fb/negf.jpg,stim_fb/posf.jpg,stim_03/b.jpg,stim_03/a.jpg,1,1,f,2,37,157,0,f,1,1.21636382748,03,03,60.0199495037,PLT_learning_3,A,2014_Mrz_31_1321,P26,
stim_fb/ques.jpg,stim_fb/negf.jpg,stim_fb/posf.jpg,stim_03/d.jpg,stim_03/c.jpg,1,2,f,2,38,158,23,f,1,0.63316390567,03,03,60.0199495037,PLT_learning_3,A,2014_Mrz_31_1321,P26,
stim_fb/ques.jpg,stim_fb/posf.jpg,stim_fb/negf.jpg,stim_03/d.jpg,stim_03/c.jpg,1,2,f,2,39,159,29,f,1,0.633158275658,03,03,60.0199495037,PLT_learning_3,A,2014_Mrz_31_1321,P26,
stim_fb/ques.jpg,stim_fb/posf.jpg,stim_fb/negf.jpg,stim_03/c.jpg,stim_03/d.jpg,2,2,j,2,40,160,37,f,0,0.849746130683,03,03,60.0199495037,PLT_learning_3,A,2014_Mrz_31_1321,P26,
stim_fb/ques.jpg,stim_fb/negf.jpg,stim_fb/posf.jpg,stim_03/f.jpg,stim_03/e.jpg,1,3,f,2,41,161,41,f,1,0.799774486754,03,03,60.0199495037,PLT_learning_3,A,2014_Mrz_31_1321,P26,
stim_fb/ques.jpg,stim_fb/negf.jpg,stim_fb/posf.jpg,stim_03/c.jpg,stim_03/d.jpg,2,2,j,2,42,162,33,j,1,1.23284881749,03,03,60.0199495037,PLT_learning_3,A,2014_Mrz_31_1321,P26,
stim_fb/ques.jpg,stim_fb/negf.jpg,stim_fb/posf.jpg,stim_03/a.jpg,stim_03/b.jpg,2,1,j,2,43,163,12,j,1,0.683154072698,03,03,60.0199495037,PLT_learning_3,A,2014_Mrz_31_1321,P26,
stim_fb/ques.jpg,stim_fb/negf.jpg,stim_fb/posf.jpg,stim_03/e.jpg,stim_03/f.jpg,2,3,j,2,44,164,50,j,1,0.766440011579,03,03,60.0199495037,PLT_learning_3,A,2014_Mrz_31_1321,P26,
stim_fb/ques.jpg,stim_fb/negf.jpg,stim_fb/posf.jpg,stim_03/d.jpg,stim_03/c.jpg,1,2,f,2,45,165,24,f,1,0.549907677733,03,03,60.0199495037,PLT_learning_3,A,2014_Mrz_31_1321,P26,
stim_fb/ques.jpg,stim_fb/negf.jpg,stim_fb/posf.jpg,stim_03/b.jpg,stim_03/a.jpg,1,1,f,2,46,166,4,j,0,0.849763823716,03,03,60.0199495037,PLT_learning_3,A,2014_Mrz_31_1321,P26,
stim_fb/ques.jpg,stim_fb/negf.jpg,stim_fb/posf.jpg,stim_03/c.jpg,stim_03/d.jpg,2,2,j,2,47,167,30,j,1,1.13300655406,03,03,60.0199495037,PLT_learning_3,A,2014_Mrz_31_1321,P26,
stim_fb/ques.jpg,stim_fb/negf.jpg,stim_fb/posf.jpg,stim_03/e.jpg,stim_03/f.jpg,2,3,j,2,48,168,52,None,0,,03,03,60.0199495037,PLT_learning_3,A,2014_Mrz_31_1321,P26,
stim_fb/ques.jpg,stim_fb/negf.jpg,stim_fb/posf.jpg,stim_03/e.jpg,stim_03/f.jpg,2,3,j,2,49,169,53,f,0,0.966402502228,03,03,60.0199495037,PLT_learning_3,A,2014_Mrz_31_1321,P26,
stim_fb/ques.jpg,stim_fb/posf.jpg,stim_fb/negf.jpg,stim_03/f.jpg,stim_03/e.jpg,1,3,f,2,50,170,48,f,1,0.766442991996,03,03,60.0199495037,PLT_learning_3,A,2014_Mrz_31_1321,P26,
stim_fb/ques.jpg,stim_fb/negf.jpg,stim_fb/posf.jpg,stim_03/e.jpg,stim_03/f.jpg,2,3,j,2,51,171,54,j,1,0.766436826652,03,03,60.0199495037,PLT_learning_3,A,2014_Mrz_31_1321,P26,
stim_fb/ques.jpg,stim_fb/posf.jpg,stim_fb/negf.jpg,stim_03/d.jpg,stim_03/c.jpg,1,2,f,2,52,172,27,f,1,1.44957707695,03,03,60.0199495037,PLT_learning_3,A,2014_Mrz_31_1321,P26,
stim_fb/ques.jpg,stim_fb/posf.jpg,stim_fb/negf.jpg,stim_03/e.jpg,stim_03/f.jpg,2,3,j,2,53,173,58,j,1,0.916411189347,03,03,60.0199495037,PLT_learning_3,A,2014_Mrz_31_1321,P26,
stim_fb/ques.jpg,stim_fb/posf.jpg,stim_fb/negf.jpg,stim_03/c.jpg,stim_03/d.jpg,2,2,j,2,54,174,39,j,1,0.833106086774,03,03,60.0199495037,PLT_learning_3,A,2014_Mrz_31_1321,P26,
stim_fb/ques.jpg,stim_fb/posf.jpg,stim_fb/negf.jpg,stim_03/d.jpg,stim_03/c.jpg,1,2,f,2,55,175,28,f,1,0.649848953583,03,03,60.0199495037,PLT_learning_3,A,2014_Mrz_31_1321,P26,
stim_fb/ques.jpg,stim_fb/negf.jpg,stim_fb/posf.jpg,stim_03/a.jpg,stim_03/b.jpg,2,1,j,2,56,176,13,j,1,0.633162750796,03,03,60.0199495037,PLT_learning_3,A,2014_Mrz_31_1321,P26,
stim_fb/ques.jpg,stim_fb/negf.jpg,stim_fb/posf.jpg,stim_03/a.jpg,stim_03/b.jpg,2,1,j,2,57,177,11,j,1,0.799794745172,03,03,60.0199495037,PLT_learning_3,A,2014_Mrz_31_1321,P26,
stim_fb/ques.jpg,stim_fb/negf.jpg,stim_fb/posf.jpg,stim_03/d.jpg,stim_03/c.jpg,1,2,f,2,58,178,21,f,1,0.783135567644,03,03,60.0199495037,PLT_learning_3,A,2014_Mrz_31_1321,P26,
stim_fb/ques.jpg,stim_fb/negf.jpg,stim_fb/posf.jpg,stim_03/f.jpg,stim_03/e.jpg,1,3,f,2,59,179,43,f,1,1.23297890024,03,03,60.0199495037,PLT_learning_3,A,2014_Mrz_31_1321,P26,
stim_fb/ques.jpg,stim_fb/negf.jpg,stim_fb/posf.jpg,stim_03/f.jpg,stim_03/e.jpg,1,3,f,3,0,180,42,f,1,0.883101501863,03,03,60.0199495037,PLT_learning_3,A,2014_Mrz_31_1321,P26,
stim_fb/ques.jpg,stim_fb/posf.jpg,stim_fb/negf.jpg,stim_03/f.jpg,stim_03/e.jpg,1,3,f,3,1,181,49,f,1,0.648828706443,03,03,60.0199495037,PLT_learning_3,A,2014_Mrz_31_1321,P26,
stim_fb/ques.jpg,stim_fb/negf.jpg,stim_fb/posf.jpg,stim_03/c.jpg,stim_03/d.jpg,2,2,j,3,2,182,34,j,1,0.76651137318,03,03,60.0199495037,PLT_learning_3,A,2014_Mrz_31_1321,P26,
stim_fb/ques.jpg,stim_fb/negf.jpg,stim_fb/posf.jpg,stim_03/d.jpg,stim_03/c.jpg,1,2,f,3,3,183,22,f,1,0.699838058969,03,03,60.0199495037,PLT_learning_3,A,2014_Mrz_31_1321,P26,
stim_fb/ques.jpg,stim_fb/posf.jpg,stim_fb/negf.jpg,stim_03/b.jpg,stim_03/a.jpg,1,1,f,3,4,184,8,f,1,1.01639232339,03,03,60.0199495037,PLT_learning_3,A,2014_Mrz_31_1321,P26,
stim_fb/ques.jpg,stim_fb/negf.jpg,stim_fb/posf.jpg,stim_03/f.jpg,stim_03/e.jpg,1,3,f,3,5,185,44,j,0,0.983087318564,03,03,60.0199495037,PLT_learning_3,A,2014_Mrz_31_1321,P26,
stim_fb/ques.jpg,stim_fb/negf.jpg,stim_fb/posf.jpg,stim_03/a.jpg,stim_03/b.jpg,2,1,j,3,6,186,13,j,1,1.28298594226,03,03,60.0199495037,PLT_learning_3,A,2014_Mrz_31_1321,P26,
stim_fb/ques.jpg,stim_fb/negf.jpg,stim_fb/posf.jpg,stim_03/a.jpg,stim_03/b.jpg,2,1,j,3,7,187,12,None,0,,03,03,60.0199495037,PLT_learning_3,A,2014_Mrz_31_1321,P26,
stim_fb/ques.jpg,stim_fb/posf.jpg,stim_fb/negf.jpg,stim_03/f.jpg,stim_03/e.jpg,1,3,f,3,8,188,46,f,1,0.966384403183,03,03,60.0199495037,PLT_learning_3,A,2014_Mrz_31_1321,P26,
stim_fb/ques.jpg,stim_fb/negf.jpg,stim_fb/posf.jpg,stim_03/d.jpg,stim_03/c.jpg,1,2,f,3,9,189,25,j,0,0.649789077567,03,03,60.0199495037,PLT_learning_3,A,2014_Mrz_31_1321,P26,
stim_fb/ques.jpg,stim_fb/posf.jpg,stim_fb/negf.jpg,stim_03/d.jpg,stim_03/c.jpg,1,2,f,3,10,190,29,f,1,0.666497204918,03,03,60.0199495037,PLT_learning_3,A,2014_Mrz_31_1321,P26,
stim_fb/ques.jpg,stim_fb/negf.jpg,stim_fb/posf.jpg,stim_03/b.jpg,stim_03/a.jpg,1,1,f,3,11,191,5,f,1,0.71645051522,03,03,60.0199495037,PLT_learning_3,A,2014_Mrz_31_1321,P26,
stim_fb/ques.jpg,stim_fb/negf.jpg,stim_fb/posf.jpg,stim_03/f.jpg,stim_03/e.jpg,1,3,f,3,12,192,45,f,1,0.749785796401,03,03,60.0199495037,PLT_learning_3,A,2014_Mrz_31_1321,P26,
stim_fb/ques.jpg,stim_fb/negf.jpg,stim_fb/posf.jpg,stim_03/c.jpg,stim_03/d.jpg,2,2,j,3,13,193,35,j,1,0.783135375165,03,03,60.0199495037,PLT_learning_3,A,2014_Mrz_31_1321,P26,
stim_fb/ques.jpg,stim_fb/posf.jpg,stim_fb/negf.jpg,stim_03/b.jpg,stim_03/a.jpg,1,1,f,3,14,194,9,None,0,,03,03,60.0199495037,PLT_learning_3,A,2014_Mrz_31_1321,P26,
stim_fb/ques.jpg,stim_fb/posf.jpg,stim_fb/negf.jpg,stim_03/d.jpg,stim_03/c.jpg,1,2,f,3,15,195,27,f,1,0.683146737443,03,03,60.0199495037,PLT_learning_3,A,2014_Mrz_31_1321,P26,
stim_fb/ques.jpg,stim_fb/negf.jpg,stim_fb/posf.jpg,stim_03/b.jpg,stim_03/a.jpg,1,1,f,3,16,196,2,j,0,0.666489027567,03,03,60.0199495037,PLT_learning_3,A,2014_Mrz_31_1321,P26,
stim_fb/ques.jpg,stim_fb/negf.jpg,stim_fb/posf.jpg,stim_03/a.jpg,stim_03/b.jpg,2,1,j,3,17,197,17,j,1,0.983059932407,03,03,60.0199495037,PLT_learning_3,A,2014_Mrz_31_1321,P26,
stim_fb/ques.jpg,stim_fb/posf.jpg,stim_fb/negf.jpg,stim_03/c.jpg,stim_03/d.jpg,2,2,j,3,18,198,37,j,1,0.866437049207,03,03,60.0199495037,PLT_learning_3,A,2014_Mrz_31_1321,P26,
stim_fb/ques.jpg,stim_fb/posf.jpg,stim_fb/negf.jpg,stim_03/c.jpg,stim_03/d.jpg,2,2,j,3,19,199,38,j,1,0.566489189971,03,03,60.0199495037,PLT_learning_3,A,2014_Mrz_31_1321,P26,
stim_fb/ques.jpg,stim_fb/negf.jpg,stim_fb/posf.jpg,stim_03/c.jpg,stim_03/d.jpg,2,2,j,3,20,200,36,j,1,0.483208282613,03,03,60.0199495037,PLT_learning_3,A,2014_Mrz_31_1321,P26,
stim_fb/ques.jpg,stim_fb/negf.jpg,stim_fb/posf.jpg,stim_03/a.jpg,stim_03/b.jpg,2,1,j,3,21,201,16,j,1,0.749765778582,03,03,60.0199495037,PLT_learning_3,A,2014_Mrz_31_1321,P26,
stim_fb/ques.jpg,stim_fb/negf.jpg,stim_fb/posf.jpg,stim_03/e.jpg,stim_03/f.jpg,2,3,j,3,22,202,50,None,0,,03,03,60.0199495037,PLT_learning_3,A,2014_Mrz_31_1321,P26,
stim_fb/ques.jpg,stim_fb/negf.jpg,stim_fb/posf.jpg,stim_03/c.jpg,stim_03/d.jpg,2,2,j,3,23,203,32,j,1,0.966339149558,03,03,60.0199495037,PLT_learning_3,A,2014_Mrz_31_1321,P26,
stim_fb/ques.jpg,stim_fb/negf.jpg,stim_fb/posf.jpg,stim_03/d.jpg,stim_03/c.jpg,1,2,f,3,24,204,23,j,0,0.766431575584,03,03,60.0199495037,PLT_learning_3,A,2014_Mrz_31_1321,P26,
stim_fb/ques.jpg,stim_fb/posf.jpg,stim_fb/negf.jpg,stim_03/a.jpg,stim_03/b.jpg,2,1,j,3,25,205,18,j,1,0.599830714692,03,03,60.0199495037,PLT_learning_3,A,2014_Mrz_31_1321,P26,
stim_fb/ques.jpg,stim_fb/negf.jpg,stim_fb/posf.jpg,stim_03/a.jpg,stim_03/b.jpg,2,1,j,3,26,206,11,j,1,0.616514749081,03,03,60.0199495037,PLT_learning_3,A,2014_Mrz_31_1321,P26,
stim_fb/ques.jpg,stim_fb/negf.jpg,stim_fb/posf.jpg,stim_03/d.jpg,stim_03/c.jpg,1,2,f,3,27,207,26,f,1,0.649849305459,03,03,60.0199495037,PLT_learning_3,A,2014_Mrz_31_1321,P26,
stim_fb/ques.jpg,stim_fb/posf.jpg,stim_fb/negf.jpg,stim_03/f.jpg,stim_03/e.jpg,1,3,f,3,28,208,47,f,1,0.783118027992,03,03,60.0199495037,PLT_learning_3,A,2014_Mrz_31_1321,P26,
stim_fb/ques.jpg,stim_fb/negf.jpg,stim_fb/posf.jpg,stim_03/f.jpg,stim_03/e.jpg,1,3,f,3,29,209,41,f,1,0.649816063729,03,03,60.0199495037,PLT_learning_3,A,2014_Mrz_31_1321,P26,
stim_fb/ques.jpg,stim_fb/negf.jpg,stim_fb/posf.jpg,stim_03/d.jpg,stim_03/c.jpg,1,2,f,3,30,210,24,f,1,1.04969263053,03,03,60.0199495037,PLT_learning_3,A,2014_Mrz_31_1321,P26,
stim_fb/ques.jpg,stim_fb/negf.jpg,stim_fb/posf.jpg,stim_03/f.jpg,stim_03/e.jpg,1,3,f,3,31,211,43,f,1,0.599882196817,03,03,60.0199495037,PLT_learning_3,A,2014_Mrz_31_1321,P26,
stim_fb/ques.jpg,stim_fb/negf.jpg,stim_fb/posf.jpg,stim_03/f.jpg,stim_03/e.jpg,1,3,f,3,32,212,40,f,1,1.31624849043,03,03,60.0199495037,PLT_learning_3,A,2014_Mrz_31_1321,P26,
stim_fb/ques.jpg,stim_fb/posf.jpg,stim_fb/negf.jpg,stim_03/e.jpg,stim_03/f.jpg,2,3,j,3,33,213,57,j,1,0.799778447612,03,03,60.0199495037,PLT_learning_3,A,2014_Mrz_31_1321,P26,
stim_fb/ques.jpg,stim_fb/negf.jpg,stim_fb/posf.jpg,stim_03/c.jpg,stim_03/d.jpg,2,2,j,3,34,214,31,j,1,0.749792647451,03,03,60.0199495037,PLT_learning_3,A,2014_Mrz_31_1321,P26,
stim_fb/ques.jpg,stim_fb/posf.jpg,stim_fb/negf.jpg,stim_03/e.jpg,stim_03/f.jpg,2,3,j,3,35,215,59,f,0,0.86642532603,03,03,60.0199495037,PLT_learning_3,A,2014_Mrz_31_1321,P26,
stim_fb/ques.jpg,stim_fb/negf.jpg,stim_fb/posf.jpg,stim_03/e.jpg,stim_03/f.jpg,2,3,j,3,36,216,54,f,0,0.733161791409,03,03,60.0199495037,PLT_learning_3,A,2014_Mrz_31_1321,P26,
stim_fb/ques.jpg,stim_fb/negf.jpg,stim_fb/posf.jpg,stim_03/b.jpg,stim_03/a.jpg,1,1,f,3,37,217,6,f,1,0.849742566813,03,03,60.0199495037,PLT_learning_3,A,2014_Mrz_31_1321,P26,
stim_fb/ques.jpg,stim_fb/posf.jpg,stim_fb/negf.jpg,stim_03/c.jpg,stim_03/d.jpg,2,2,j,3,38,218,39,j,1,0.83309291399,03,03,60.0199495037,PLT_learning_3,A,2014_Mrz_31_1321,P26,
stim_fb/ques.jpg,stim_fb/negf.jpg,stim_fb/posf.jpg,stim_03/b.jpg,stim_03/a.jpg,1,1,f,3,39,219,7,f,1,0.766460976756,03,03,60.0199495037,PLT_learning_3,A,2014_Mrz_31_1321,P26,
stim_fb/ques.jpg,stim_fb/negf.jpg,stim_fb/posf.jpg,stim_03/a.jpg,stim_03/b.jpg,2,1,j,3,40,220,10,j,1,0.583169037943,03,03,60.0199495037,PLT_learning_3,A,2014_Mrz_31_1321,P26,
stim_fb/ques.jpg,stim_fb/negf.jpg,stim_fb/posf.jpg,stim_03/b.jpg,stim_03/a.jpg,1,1,f,3,41,221,0,f,1,0.549776656655,03,03,60.0199495037,PLT_learning_3,A,2014_Mrz_31_1321,P26,
stim_fb/ques.jpg,stim_fb/negf.jpg,stim_fb/posf.jpg,stim_03/d.jpg,stim_03/c.jpg,1,2,f,3,42,222,20,f,1,0.733122901621,03,03,60.0199495037,PLT_learning_3,A,2014_Mrz_31_1321,P26,
stim_fb/ques.jpg,stim_fb/negf.jpg,stim_fb/posf.jpg,stim_03/a.jpg,stim_03/b.jpg,2,1,j,3,43,223,15,j,1,0.949745450991,03,03,60.0199495037,PLT_learning_3,A,2014_Mrz_31_1321,P26,
stim_fb/ques.jpg,stim_fb/negf.jpg,stim_fb/posf.jpg,stim_03/c.jpg,stim_03/d.jpg,2,2,j,3,44,224,30,j,1,0.833092895945,03,03,60.0199495037,PLT_learning_3,A,2014_Mrz_31_1321,P26,
stim_fb/ques.jpg,stim_fb/posf.jpg,stim_fb/negf.jpg,stim_03/d.jpg,stim_03/c.jpg,1,2,f,3,45,225,28,f,1,0.683190394093,03,03,60.0199495037,PLT_learning_3,A,2014_Mrz_31_1321,P26,
stim_fb/ques.jpg,stim_fb/negf.jpg,stim_fb/posf.jpg,stim_03/e.jpg,stim_03/f.jpg,2,3,j,3,46,226,53,j,1,1.5661727755,03,03,60.0199495037,PLT_learning_3,A,2014_Mrz_31_1321,P26,
stim_fb/ques.jpg,stim_fb/negf.jpg,stim_fb/posf.jpg,stim_03/e.jpg,stim_03/f.jpg,2,3,j,3,47,227,51,j,1,0.533215799822,03,03,60.0199495037,PLT_learning_3,A,2014_Mrz_31_1321,P26,
stim_fb/ques.jpg,stim_fb/posf.jpg,stim_fb/negf.jpg,stim_03/a.jpg,stim_03/b.jpg,2,1,j,3,48,228,19,j,1,0.549879557749,03,03,60.0199495037,PLT_learning_3,A,2014_Mrz_31_1321,P26,
stim_fb/ques.jpg,stim_fb/negf.jpg,stim_fb/posf.jpg,stim_03/d.jpg,stim_03/c.jpg,1,2,f,3,49,229,21,f,1,1.46622796886,03,03,60.0199495037,PLT_learning_3,A,2014_Mrz_31_1321,P26,
stim_fb/ques.jpg,stim_fb/posf.jpg,stim_fb/negf.jpg,stim_03/e.jpg,stim_03/f.jpg,2,3,j,3,50,230,58,j,1,0.516518779111,03,03,60.0199495037,PLT_learning_3,A,2014_Mrz_31_1321,P26,
stim_fb/ques.jpg,stim_fb/negf.jpg,stim_fb/posf.jpg,stim_03/a.jpg,stim_03/b.jpg,2,1,j,3,51,231,14,j,1,0.999739497675,03,03,60.0199495037,PLT_learning_3,A,2014_Mrz_31_1321,P26,
stim_fb/ques.jpg,stim_fb/negf.jpg,stim_fb/posf.jpg,stim_03/b.jpg,stim_03/a.jpg,1,1,f,3,52,232,3,j,0,1.18300559317,03,03,60.0199495037,PLT_learning_3,A,2014_Mrz_31_1321,P26,
stim_fb/ques.jpg,stim_fb/negf.jpg,stim_fb/posf.jpg,stim_03/e.jpg,stim_03/f.jpg,2,3,j,3,53,233,52,j,1,1.04970593565,03,03,60.0199495037,PLT_learning_3,A,2014_Mrz_31_1321,P26,
stim_fb/ques.jpg,stim_fb/negf.jpg,stim_fb/posf.jpg,stim_03/c.jpg,stim_03/d.jpg,2,2,j,3,54,234,33,f,0,0.733173129627,03,03,60.0199495037,PLT_learning_3,A,2014_Mrz_31_1321,P26,
stim_fb/ques.jpg,stim_fb/posf.jpg,stim_fb/negf.jpg,stim_03/f.jpg,stim_03/e.jpg,1,3,f,3,55,235,48,f,1,0.616548378778,03,03,60.0199495037,PLT_learning_3,A,2014_Mrz_31_1321,P26,
stim_fb/ques.jpg,stim_fb/negf.jpg,stim_fb/posf.jpg,stim_03/b.jpg,stim_03/a.jpg,1,1,f,3,56,236,1,j,0,0.666477572058,03,03,60.0199495037,PLT_learning_3,A,2014_Mrz_31_1321,P26,
stim_fb/ques.jpg,stim_fb/negf.jpg,stim_fb/posf.jpg,stim_03/b.jpg,stim_03/a.jpg,1,1,f,3,57,237,4,f,1,0.949732446627,03,03,60.0199495037,PLT_learning_3,A,2014_Mrz_31_1321,P26,
stim_fb/ques.jpg,stim_fb/negf.jpg,stim_fb/posf.jpg,stim_03/e.jpg,stim_03/f.jpg,2,3,j,3,58,238,55,j,1,0.649842848389,03,03,60.0199495037,PLT_learning_3,A,2014_Mrz_31_1321,P26,
stim_fb/ques.jpg,stim_fb/posf.jpg,stim_fb/negf.jpg,stim_03/e.jpg,stim_03/f.jpg,2,3,j,3,59,239,56,f,0,0.816440046165,03,03,60.0199495037,PLT_learning_3,A,2014_Mrz_31_1321,P26,
stim_fb/ques.jpg,stim_fb/posf.jpg,stim_fb/negf.jpg,stim_03/d.jpg,stim_03/c.jpg,1,2,f,4,0,240,27,f,1,0.783189906881,03,03,60.0199495037,PLT_learning_3,A,2014_Mrz_31_1321,P26,
stim_fb/ques.jpg,stim_fb/negf.jpg,stim_fb/posf.jpg,stim_03/e.jpg,stim_03/f.jpg,2,3,j,4,1,241,50,j,1,1.13298518588,03,03,60.0199495037,PLT_learning_3,A,2014_Mrz_31_1321,P26,
stim_fb/ques.jpg,stim_fb/negf.jpg,stim_fb/posf.jpg,stim_03/d.jpg,stim_03/c.jpg,1,2,f,4,2,242,24,f,1,0.616495122235,03,03,60.0199495037,PLT_learning_3,A,2014_Mrz_31_1321,P26,
stim_fb/ques.jpg,stim_fb/posf.jpg,stim_fb/negf.jpg,stim_03/a.jpg,stim_03/b.jpg,2,1,j,4,3,243,19,j,1,0.783123835446,03,03,60.0199495037,PLT_learning_3,A,2014_Mrz_31_1321,P26,
stim_fb/ques.jpg,stim_fb/posf.jpg,stim_fb/negf.jpg,stim_03/e.jpg,stim_03/f.jpg,2,3,j,4,4,244,56,j,1,0.916416308087,03,03,60.0199495037,PLT_learning_3,A,2014_Mrz_31_1321,P26,
stim_fb/ques.jpg,stim_fb/negf.jpg,stim_fb/posf.jpg,stim_03/f.jpg,stim_03/e.jpg,1,3,f,4,5,245,41,f,1,0.766436312373,03,03,60.0199495037,PLT_learning_3,A,2014_Mrz_31_1321,P26,
stim_fb/ques.jpg,stim_fb/negf.jpg,stim_fb/posf.jpg,stim_03/a.jpg,stim_03/b.jpg,2,1,j,4,6,246,10,j,1,0.799773957437,03,03,60.0199495037,PLT_learning_3,A,2014_Mrz_31_1321,P26,
stim_fb/ques.jpg,stim_fb/negf.jpg,stim_fb/posf.jpg,stim_03/b.jpg,stim_03/a.jpg,1,1,f,4,7,247,0,f,1,0.999691056116,03,03,60.0199495037,PLT_learning_3,A,2014_Mrz_31_1321,P26,
stim_fb/ques.jpg,stim_fb/posf.jpg,stim_fb/negf.jpg,stim_03/d.jpg,stim_03/c.jpg,1,2,f,4,8,248,28,None,0,,03,03,60.0199495037,PLT_learning_3,A,2014_Mrz_31_1321,P26,
stim_fb/ques.jpg,stim_fb/posf.jpg,stim_fb/negf.jpg,stim_03/d.jpg,stim_03/c.jpg,1,2,f,4,9,249,29,f,1,0.616419989248,03,03,60.0199495037,PLT_learning_3,A,2014_Mrz_31_1321,P26,
stim_fb/ques.jpg,stim_fb/negf.jpg,stim_fb/posf.jpg,stim_03/c.jpg,stim_03/d.jpg,2,2,j,4,10,250,34,j,1,0.566522885832,03,03,60.0199495037,PLT_learning_3,A,2014_Mrz_31_1321,P26,
stim_fb/ques.jpg,stim_fb/posf.jpg,stim_fb/negf.jpg,stim_03/f.jpg,stim_03/e.jpg,1,3,f,4,11,251,48,f,1,0.999745879558,03,03,60.0199495037,PLT_learning_3,A,2014_Mrz_31_1321,P26,
stim_fb/ques.jpg,stim_fb/negf.jpg,stim_fb/posf.jpg,stim_03/e.jpg,stim_03/f.jpg,2,3,j,4,12,252,55,f,0,0.833127400819,03,03,60.0199495037,PLT_learning_3,A,2014_Mrz_31_1321,P26,
stim_fb/ques.jpg,stim_fb/negf.jpg,stim_fb/posf.jpg,stim_03/d.jpg,stim_03/c.jpg,1,2,f,4,13,253,22,j,0,0.683147787055,03,03,60.0199495037,PLT_learning_3,A,2014_Mrz_31_1321,P26,
stim_fb/ques.jpg,stim_fb/negf.jpg,stim_fb/posf.jpg,stim_03/a.jpg,stim_03/b.jpg,2,1,j,4,14,254,15,j,1,0.766448182916,03,03,60.0199495037,PLT_learning_3,A,2014_Mrz_31_1321,P26,
stim_fb/ques.jpg,stim_fb/negf.jpg,stim_fb/posf.jpg,stim_03/d.jpg,stim_03/c.jpg,1,2,f,4,15,255,23,f,1,0.899739963835,03,03,60.0199495037,PLT_learning_3,A,2014_Mrz_31_1321,P26,
stim_fb/ques.jpg,stim_fb/negf.jpg,stim_fb/posf.jpg,stim_03/f.jpg,stim_03/e.jpg,1,3,f,4,16,256,44,j,0,0.799769025161,03,03,60.0199495037,PLT_learning_3,A,2014_Mrz_31_1321,P26,
stim_fb/ques.jpg,stim_fb/negf.jpg,stim_fb/posf.jpg,stim_03/a.jpg,stim_03/b.jpg,2,1,j,4,17,257,17,j,1,0.849757297474,03,03,60.0199495037,PLT_learning_3,A,2014_Mrz_31_1321,P26,
stim_fb/ques.jpg,stim_fb/negf.jpg,stim_fb/posf.jpg,stim_03/c.jpg,stim_03/d.jpg,2,2,j,4,18,258,36,j,1,0.88309106589,03,03,60.0199495037,PLT_learning_3,A,2014_Mrz_31_1321,P26,
stim_fb/ques.jpg,stim_fb/negf.jpg,stim_fb/posf.jpg,stim_03/d.jpg,stim_03/c.jpg,1,2,f,4,19,259,26,f,1,0.783113838566,03,03,60.0199495037,PLT_learning_3,A,2014_Mrz_31_1321,P26,
stim_fb/ques.jpg,stim_fb/negf.jpg,stim_fb/posf.jpg,stim_03/d.jpg,stim_03/c.jpg,1,2,f,4,20,260,21,f,1,1.06639889325,03,03,60.0199495037,PLT_learning_3,A,2014_Mrz_31_1321,P26,
stim_fb/ques.jpg,stim_fb/negf.jpg,stim_fb/posf.jpg,stim_03/d.jpg,stim_03/c.jpg,1,2,f,4,21,261,25,f,1,0.816422449371,03,03,60.0199495037,PLT_learning_3,A,2014_Mrz_31_1321,P26,
stim_fb/ques.jpg,stim_fb/posf.jpg,stim_fb/negf.jpg,stim_03/b.jpg,stim_03/a.jpg,1,1,f,4,22,262,8,j,0,0.83310776495,03,03,60.0199495037,PLT_learning_3,A,2014_Mrz_31_1321,P26,
stim_fb/ques.jpg,stim_fb/negf.jpg,stim_fb/posf.jpg,stim_03/c.jpg,stim_03/d.jpg,2,2,j,4,23,263,31,j,1,0.949709108544,03,03,60.0199495037,PLT_learning_3,A,2014_Mrz_31_1321,P26,
stim_fb/ques.jpg,stim_fb/negf.jpg,stim_fb/posf.jpg,stim_03/f.jpg,stim_03/e.jpg,1,3,f,4,24,264,42,f,1,0.73314812239,03,03,60.0199495037,PLT_learning_3,A,2014_Mrz_31_1321,P26,
stim_fb/ques.jpg,stim_fb/posf.jpg,stim_fb/negf.jpg,stim_03/c.jpg,stim_03/d.jpg,2,2,j,4,25,265,37,None,0,,03,03,60.0199495037,PLT_learning_3,A,2014_Mrz_31_1321,P26,
stim_fb/ques.jpg,stim_fb/negf.jpg,stim_fb/posf.jpg,stim_03/f.jpg,stim_03/e.jpg,1,3,f,4,26,266,45,j,0,0.949688777946,03,03,60.0199495037,PLT_learning_3,A,2014_Mrz_31_1321,P26,
stim_fb/ques.jpg,stim_fb/negf.jpg,stim_fb/posf.jpg,stim_03/a.jpg,stim_03/b.jpg,2,1,j,4,27,267,12,j,1,0.816434990583,03,03,60.0199495037,PLT_learning_3,A,2014_Mrz_31_1321,P26,
stim_fb/ques.jpg,stim_fb/negf.jpg,stim_fb/posf.jpg,stim_03/a.jpg,stim_03/b.jpg,2,1,j,4,28,268,14,j,1,0.699788736218,03,03,60.0199495037,PLT_learning_3,A,2014_Mrz_31_1321,P26,
stim_fb/ques.jpg,stim_fb/negf.jpg,stim_fb/posf.jpg,stim_03/e.jpg,stim_03/f.jpg,2,3,j,4,29,269,51,None,0,,03,03,60.0199495037,PLT_learning_3,A,2014_Mrz_31_1321,P26,
stim_fb/ques.jpg,stim_fb/negf.jpg,stim_fb/posf.jpg,stim_03/f.jpg,stim_03/e.jpg,1,3,f,4,30,270,43,j,0,0.899730836118,03,03,60.0199495037,PLT_learning_3,A,2014_Mrz_31_1321,P26,
stim_fb/ques.jpg,stim_fb/posf.jpg,stim_fb/negf.jpg,stim_03/a.jpg,stim_03/b.jpg,2,1,j,4,31,271,18,j,1,0.616487868182,03,03,60.0199495037,PLT_learning_3,A,2014_Mrz_31_1321,P26,
stim_fb/ques.jpg,stim_fb/posf.jpg,stim_fb/negf.jpg,stim_03/e.jpg,stim_03/f.jpg,2,3,j,4,32,272,58,j,1,1.13303290564,03,03,60.0199495037,PLT_learning_3,A,2014_Mrz_31_1321,P26,
stim_fb/ques.jpg,stim_fb/negf.jpg,stim_fb/posf.jpg,stim_03/e.jpg,stim_03/f.jpg,2,3,j,4,33,273,53,j,1,0.599857243716,03,03,60.0199495037,PLT_learning_3,A,2014_Mrz_31_1321,P26,
stim_fb/ques.jpg,stim_fb/negf.jpg,stim_fb/posf.jpg,stim_03/b.jpg,stim_03/a.jpg,1,1,f,4,34,274,3,f,1,0.816440437138,03,03,60.0199495037,PLT_learning_3,A,2014_Mrz_31_1321,P26,
stim_fb/ques.jpg,stim_fb/negf.jpg,stim_fb/posf.jpg,stim_03/a.jpg,stim_03/b.jpg,2,1,j,4,35,275,13,j,1,0.899788961779,03,03,60.0199495037,PLT_learning_3,A,2014_Mrz_31_1321,P26,
stim_fb/ques.jpg,stim_fb/posf.jpg,stim_fb/negf.jpg,stim_03/f.jpg,stim_03/e.jpg,1,3,f,4,36,276,49,j,0,1.29960869013,03,03,60.0199495037,PLT_learning_3,A,2014_Mrz_31_1321,P26,
stim_fb/ques.jpg,stim_fb/negf.jpg,stim_fb/posf.jpg,stim_03/e.jpg,stim_03/f.jpg,2,3,j,4,37,277,52,f,0,1.6161759108,03,03,60.0199495037,PLT_learning_3,A,2014_Mrz_31_1321,P26,
stim_fb/ques.jpg,stim_fb/negf.jpg,stim_fb/posf.jpg,stim_03/b.jpg,stim_03/a.jpg,1,1,f,4,38,278,6,f,1,0.816442310801,03,03,60.0199495037,PLT_learning_3,A,2014_Mrz_31_1321,P26,
stim_fb/ques.jpg,stim_fb/negf.jpg,stim_fb/posf.jpg,stim_03/a.jpg,stim_03/b.jpg,2,1,j,4,39,279,11,j,1,0.583169552223,03,03,60.0199495037,PLT_learning_3,A,2014_Mrz_31_1321,P26,
stim_fb/ques.jpg,stim_fb/negf.jpg,stim_fb/posf.jpg,stim_03/c.jpg,stim_03/d.jpg,2,2,j,4,40,280,35,j,1,0.883130978222,03,03,60.0199495037,PLT_learning_3,A,2014_Mrz_31_1321,P26,
stim_fb/ques.jpg,stim_fb/posf.jpg,stim_fb/negf.jpg,stim_03/e.jpg,stim_03/f.jpg,2,3,j,4,41,281,59,j,1,0.716470481912,03,03,60.0199495037,PLT_learning_3,A,2014_Mrz_31_1321,P26,
stim_fb/ques.jpg,stim_fb/posf.jpg,stim_fb/negf.jpg,stim_03/e.jpg,stim_03/f.jpg,2,3,j,4,42,282,57,f,0,0.616494394424,03,03,60.0199495037,PLT_learning_3,A,2014_Mrz_31_1321,P26,
stim_fb/ques.jpg,stim_fb/negf.jpg,stim_fb/posf.jpg,stim_03/c.jpg,stim_03/d.jpg,2,2,j,4,43,283,32,j,1,0.783098650767,03,03,60.0199495037,PLT_learning_3,A,2014_Mrz_31_1321,P26,
stim_fb/ques.jpg,stim_fb/negf.jpg,stim_fb/posf.jpg,stim_03/e.jpg,stim_03/f.jpg,2,3,j,4,44,284,54,f,0,0.599854621189,03,03,60.0199495037,PLT_learning_3,A,2014_Mrz_31_1321,P26,
stim_fb/ques.jpg,stim_fb/posf.jpg,stim_fb/negf.jpg,stim_03/c.jpg,stim_03/d.jpg,2,2,j,4,45,285,38,j,1,0.799782321252,03,03,60.0199495037,PLT_learning_3,A,2014_Mrz_31_1321,P26,
stim_fb/ques.jpg,stim_fb/negf.jpg,stim_fb/posf.jpg,stim_03/b.jpg,stim_03/a.jpg,1,1,f,4,46,286,2,j,0,0.683149946429,03,03,60.0199495037,PLT_learning_3,A,2014_Mrz_31_1321,P26,
stim_fb/ques.jpg,stim_fb/posf.jpg,stim_fb/negf.jpg,stim_03/f.jpg,stim_03/e.jpg,1,3,f,4,47,287,47,j,0,0.999708535618,03,03,60.0199495037,PLT_learning_3,A,2014_Mrz_31_1321,P26,
stim_fb/ques.jpg,stim_fb/negf.jpg,stim_fb/posf.jpg,stim_03/b.jpg,stim_03/a.jpg,1,1,f,4,48,288,1,f,1,0.866393455713,03,03,60.0199495037,PLT_learning_3,A,2014_Mrz_31_1321,P26,
stim_fb/ques.jpg,stim_fb/negf.jpg,stim_fb/posf.jpg,stim_03/b.jpg,stim_03/a.jpg,1,1,f,4,49,289,7,f,1,0.833108922832,03,03,60.0199495037,PLT_learning_3,A,2014_Mrz_31_1321,P26,
stim_fb/ques.jpg,stim_fb/negf.jpg,stim_fb/posf.jpg,stim_03/f.jpg,stim_03/e.jpg,1,3,f,4,50,290,40,j,0,0.899688650128,03,03,60.0199495037,PLT_learning_3,A,2014_Mrz_31_1321,P26,
stim_fb/ques.jpg,stim_fb/negf.jpg,stim_fb/posf.jpg,stim_03/b.jpg,stim_03/a.jpg,1,1,f,4,51,291,4,f,1,0.733149144934,03,03,60.0199495037,PLT_learning_3,A,2014_Mrz_31_1321,P26,
stim_fb/ques.jpg,stim_fb/negf.jpg,stim_fb/posf.jpg,stim_03/b.jpg,stim_03/a.jpg,1,1,f,4,52,292,5,j,0,1.23293210678,03,03,60.0199495037,PLT_learning_3,A,2014_Mrz_31_1321,P26,
stim_fb/ques.jpg,stim_fb/negf.jpg,stim_fb/posf.jpg,stim_03/c.jpg,stim_03/d.jpg,2,2,j,4,53,293,33,j,1,0.966415786288,03,03,60.0199495037,PLT_learning_3,A,2014_Mrz_31_1321,P26,
stim_fb/ques.jpg,stim_fb/negf.jpg,stim_fb/posf.jpg,stim_03/c.jpg,stim_03/d.jpg,2,2,j,4,54,294,30,j,1,1.01634361116,03,03,60.0199495037,PLT_learning_3,A,2014_Mrz_31_1321,P26,
stim_fb/ques.jpg,stim_fb/posf.jpg,stim_fb/negf.jpg,stim_03/f.jpg,stim_03/e.jpg,1,3,f,4,55,295,46,j,0,0.866272458582,03,03,60.0199495037,PLT_learning_3,A,2014_Mrz_31_1321,P26,
stim_fb/ques.jpg,stim_fb/posf.jpg,stim_fb/negf.jpg,stim_03/c.jpg,stim_03/d.jpg,2,2,j,4,56,296,39,j,1,1.14965583696,03,03,60.0199495037,PLT_learning_3,A,2014_Mrz_31_1321,P26,
stim_fb/ques.jpg,stim_fb/posf.jpg,stim_fb/negf.jpg,stim_03/b.jpg,stim_03/a.jpg,1,1,f,4,57,297,9,f,1,0.649838397311,03,03,60.0199495037,PLT_learning_3,A,2014_Mrz_31_1321,P26,
stim_fb/ques.jpg,stim_fb/negf.jpg,stim_fb/posf.jpg,stim_03/a.jpg,stim_03/b.jpg,2,1,j,4,58,298,16,j,1,0.816431604155,03,03,60.0199495037,PLT_learning_3,A,2014_Mrz_31_1321,P26,
stim_fb/ques.jpg,stim_fb/negf.jpg,stim_fb/posf.jpg,stim_03/d.jpg,stim_03/c.jpg,1,2,f,4,59,299,20,f,1,0.716332567678,03,03,60.0199495037,PLT_learning_3,A,2014_Mrz_31_1321,P26,
stim_fb/ques.jpg,stim_fb/negf.jpg,stim_fb/posf.jpg,stim_03/d.jpg,stim_03/c.jpg,1,2,f,5,0,300,21,f,1,0.949689409518,03,03,60.0199495037,PLT_learning_3,A,2014_Mrz_31_1321,P26,
stim_fb/ques.jpg,stim_fb/posf.jpg,stim_fb/negf.jpg,stim_03/e.jpg,stim_03/f.jpg,2,3,j,5,1,301,57,j,1,0.466526109856,03,03,60.0199495037,PLT_learning_3,A,2014_Mrz_31_1321,P26,
stim_fb/ques.jpg,stim_fb/negf.jpg,stim_fb/posf.jpg,stim_03/d.jpg,stim_03/c.jpg,1,2,f,5,2,302,24,f,1,0.81645245204,03,03,60.0199495037,PLT_learning_3,A,2014_Mrz_31_1321,P26,
stim_fb/ques.jpg,stim_fb/negf.jpg,stim_fb/posf.jpg,stim_03/a.jpg,stim_03/b.jpg,2,1,j,5,3,303,15,j,1,0.599829087642,03,03,60.0199495037,PLT_learning_3,A,2014_Mrz_31_1321,P26,
stim_fb/ques.jpg,stim_fb/negf.jpg,stim_fb/posf.jpg,stim_03/a.jpg,stim_03/b.jpg,2,1,j,5,4,304,16,j,1,1.06640902245,03,03,60.0199495037,PLT_learning_3,A,2014_Mrz_31_1321,P26,
stim_fb/ques.jpg,stim_fb/negf.jpg,stim_fb/posf.jpg,stim_03/c.jpg,stim_03/d.jpg,2,2,j,5,5,305,31,f,0,0.733104892802,03,03,60.0199495037,PLT_learning_3,A,2014_Mrz_31_1321,P26,
stim_fb/ques.jpg,stim_fb/negf.jpg,stim_fb/posf.jpg,stim_03/b.jpg,stim_03/a.jpg,1,1,f,5,6,306,7,f,1,0.583171362729,03,03,60.0199495037,PLT_learning_3,A,2014_Mrz_31_1321,P26,
stim_fb/ques.jpg,stim_fb/negf.jpg,stim_fb/posf.jpg,stim_03/b.jpg,stim_03/a.jpg,1,1,f,5,7,307,3,f,1,0.566512110014,03,03,60.0199495037,PLT_learning_3,A,2014_Mrz_31_1321,P26,
stim_fb/ques.jpg,stim_fb/negf.jpg,stim_fb/posf.jpg,stim_03/a.jpg,stim_03/b.jpg,2,1,j,5,8,308,11,j,1,0.449905764973,03,03,60.0199495037,PLT_learning_3,A,2014_Mrz_31_1321,P26,
stim_fb/ques.jpg,stim_fb/negf.jpg,stim_fb/posf.jpg,stim_03/c.jpg,stim_03/d.jpg,2,2,j,5,9,309,36,j,1,0.599870524768,03,03,60.0199495037,PLT_learning_3,A,2014_Mrz_31_1321,P26,
stim_fb/ques.jpg,stim_fb/negf.jpg,stim_fb/posf.jpg,stim_03/d.jpg,stim_03/c.jpg,1,2,f,5,10,310,25,f,1,0.583115276143,03,03,60.0199495037,PLT_learning_3,A,2014_Mrz_31_1321,P26,
stim_fb/ques.jpg,stim_fb/negf.jpg,stim_fb/posf.jpg,stim_03/d.jpg,stim_03/c.jpg,1,2,f,5,11,311,23,j,0,0.549852803164,03,03,60.0199495037,PLT_learning_3,A,2014_Mrz_31_1321,P26,
stim_fb/ques.jpg,stim_fb/posf.jpg,stim_fb/negf.jpg,stim_03/a.jpg,stim_03/b.jpg,2,1,j,5,12,312,18,j,1,0.699813944956,03,03,60.0199495037,PLT_learning_3,A,2014_Mrz_31_1321,P26,
stim_fb/ques.jpg,stim_fb/posf.jpg,stim_fb/negf.jpg,stim_03/a.jpg,stim_03/b.jpg,2,1,j,5,13,313,19,j,1,0.866400640594,03,03,60.0199495037,PLT_learning_3,A,2014_Mrz_31_1321,P26,
stim_fb/ques.jpg,stim_fb/negf.jpg,stim_fb/posf.jpg,stim_03/e.jpg,stim_03/f.jpg,2,3,j,5,14,314,51,j,1,0.583183419736,03,03,60.0199495037,PLT_learning_3,A,2014_Mrz_31_1321,P26,
stim_fb/ques.jpg,stim_fb/negf.jpg,stim_fb/posf.jpg,stim_03/d.jpg,stim_03/c.jpg,1,2,f,5,15,315,20,f,1,0.766412763766,03,03,60.0199495037,PLT_learning_3,A,2014_Mrz_31_1321,P26,
stim_fb/ques.jpg,stim_fb/negf.jpg,stim_fb/posf.jpg,stim_03/f.jpg,stim_03/e.jpg,1,3,f,5,16,316,45,f,1,0.699777975437,03,03,60.0199495037,PLT_learning_3,A,2014_Mrz_31_1321,P26,
stim_fb/ques.jpg,stim_fb/posf.jpg,stim_fb/negf.jpg,stim_03/f.jpg,stim_03/e.jpg,1,3,f,5,17,317,47,f,1,0.899761148558,03,03,60.0199495037,PLT_learning_3,A,2014_Mrz_31_1321,P26,
stim_fb/ques.jpg,stim_fb/negf.jpg,stim_fb/posf.jpg,stim_03/c.jpg,stim_03/d.jpg,2,2,j,5,18,318,35,j,1,0.599849144558,03,03,60.0199495037,PLT_learning_3,A,2014_Mrz_31_1321,P26,
stim_fb/ques.jpg,stim_fb/negf.jpg,stim_fb/posf.jpg,stim_03/f.jpg,stim_03/e.jpg,1,3,f,5,19,319,42,f,1,0.666513388195,03,03,60.0199495037,PLT_learning_3,A,2014_Mrz_31_1321,P26,
stim_fb/ques.jpg,stim_fb/posf.jpg,stim_fb/negf.jpg,stim_03/d.jpg,stim_03/c.jpg,1,2,f,5,20,320,27,f,1,0.749739568351,03,03,60.0199495037,PLT_learning_3,A,2014_Mrz_31_1321,P26,
stim_fb/ques.jpg,stim_fb/negf.jpg,stim_fb/posf.jpg,stim_03/e.jpg,stim_03/f.jpg,2,3,j,5,21,321,55,j,1,1.23298115284,03,03,60.0199495037,PLT_learning_3,A,2014_Mrz_31_1321,P26,
stim_fb/ques.jpg,stim_fb/negf.jpg,stim_fb/posf.jpg,stim_03/b.jpg,stim_03/a.jpg,1,1,f,5,22,322,1,f,1,0.616508120585,03,03,60.0199495037,PLT_learning_3,A,2014_Mrz_31_1321,P26,
stim_fb/ques.jpg,stim_fb/posf.jpg,stim_fb/negf.jpg,stim_03/f.jpg,stim_03/e.jpg,1,3,f,5,23,323,49,j,0,1.0330600091,03,03,60.0199495037,PLT_learning_3,A,2014_Mrz_31_1321,P26,
stim_fb/ques.jpg,stim_fb/negf.jpg,stim_fb/posf.jpg,stim_03/b.jpg,stim_03/a.jpg,1,1,f,5,24,324,6,f,1,0.766513544584,03,03,60.0199495037,PLT_learning_3,A,2014_Mrz_31_1321,P26,
stim_fb/ques.jpg,stim_fb/posf.jpg,stim_fb/negf.jpg,stim_03/f.jpg,stim_03/e.jpg,1,3,f,5,25,325,48,j,0,0.566485463698,03,03,60.0199495037,PLT_learning_3,A,2014_Mrz_31_1321,P26,
stim_fb/ques.jpg,stim_fb/negf.jpg,stim_fb/posf.jpg,stim_03/f.jpg,stim_03/e.jpg,1,3,f,5,26,326,40,f,1,1.06618055285,03,03,60.0199495037,PLT_learning_3,A,2014_Mrz_31_1321,P26,
stim_fb/ques.jpg,stim_fb/negf.jpg,stim_fb/posf.jpg,stim_03/f.jpg,stim_03/e.jpg,1,3,f,5,27,327,44,f,1,0.649834734194,03,03,60.0199495037,PLT_learning_3,A,2014_Mrz_31_1321,P26,
stim_fb/ques.jpg,stim_fb/negf.jpg,stim_fb/posf.jpg,stim_03/b.jpg,stim_03/a.jpg,1,1,f,5,28,328,5,f,1,0.76646012263,03,03,60.0199495037,PLT_learning_3,A,2014_Mrz_31_1321,P26,
stim_fb/ques.jpg,stim_fb/negf.jpg,stim_fb/posf.jpg,stim_03/c.jpg,stim_03/d.jpg,2,2,j,5,29,329,30,None,0,,03,03,60.0199495037,PLT_learning_3,A,2014_Mrz_31_1321,P26,
stim_fb/ques.jpg,stim_fb/negf.jpg,stim_fb/posf.jpg,stim_03/c.jpg,stim_03/d.jpg,2,2,j,5,30,330,32,None,0,,03,03,60.0199495037,PLT_learning_3,A,2014_Mrz_31_1321,P26,
stim_fb/ques.jpg,stim_fb/posf.jpg,stim_fb/negf.jpg,stim_03/c.jpg,stim_03/d.jpg,2,2,j,5,31,331,37,j,1,0.566518759563,03,03,60.0199495037,PLT_learning_3,A,2014_Mrz_31_1321,P26,
stim_fb/ques.jpg,stim_fb/negf.jpg,stim_fb/posf.jpg,stim_03/a.jpg,stim_03/b.jpg,2,1,j,5,32,332,14,f,0,0.733127903069,03,03,60.0199495037,PLT_learning_3,A,2014_Mrz_31_1321,P26,
stim_fb/ques.jpg,stim_fb/posf.jpg,stim_fb/negf.jpg,stim_03/d.jpg,stim_03/c.jpg,1,2,f,5,33,333,28,f,1,0.81645438886,03,03,60.0199495037,PLT_learning_3,A,2014_Mrz_31_1321,P26,
stim_fb/ques.jpg,stim_fb/posf.jpg,stim_fb/negf.jpg,stim_03/e.jpg,stim_03/f.jpg,2,3,j,5,34,334,58,j,1,0.48327563223,03,03,60.0199495037,PLT_learning_3,A,2014_Mrz_31_1321,P26,
stim_fb/ques.jpg,stim_fb/negf.jpg,stim_fb/posf.jpg,stim_03/c.jpg,stim_03/d.jpg,2,2,j,5,35,335,33,j,1,0.899794832389,03,03,60.0199495037,PLT_learning_3,A,2014_Mrz_31_1321,P26,
stim_fb/ques.jpg,stim_fb/negf.jpg,stim_fb/posf.jpg,stim_03/b.jpg,stim_03/a.jpg,1,1,f,5,36,336,4,None,0,,03,03,60.0199495037,PLT_learning_3,A,2014_Mrz_31_1321,P26,
stim_fb/ques.jpg,stim_fb/negf.jpg,stim_fb/posf.jpg,stim_03/f.jpg,stim_03/e.jpg,1,3,f,5,37,337,41,f,1,0.832097995887,03,03,60.0199495037,PLT_learning_3,A,2014_Mrz_31_1321,P26,
stim_fb/ques.jpg,stim_fb/negf.jpg,stim_fb/posf.jpg,stim_03/e.jpg,stim_03/f.jpg,2,3,j,5,38,338,53,j,1,0.44989534103,03,03,60.0199495037,PLT_learning_3,A,2014_Mrz_31_1321,P26,
stim_fb/ques.jpg,stim_fb/posf.jpg,stim_fb/negf.jpg,stim_03/c.jpg,stim_03/d.jpg,2,2,j,5,39,339,39,j,1,1.08303102145,03,03,60.0199495037,PLT_learning_3,A,2014_Mrz_31_1321,P26,
stim_fb/ques.jpg,stim_fb/negf.jpg,stim_fb/posf.jpg,stim_03/e.jpg,stim_03/f.jpg,2,3,j,5,40,340,52,f,0,0.866420312553,03,03,60.0199495037,PLT_learning_3,A,2014_Mrz_31_1321,P26,
stim_fb/ques.jpg,stim_fb/posf.jpg,stim_fb/negf.jpg,stim_03/c.jpg,stim_03/d.jpg,2,2,j,5,41,341,38,f,0,0.833080655481,03,03,60.0199495037,PLT_learning_3,A,2014_Mrz_31_1321,P26,
stim_fb/ques.jpg,stim_fb/posf.jpg,stim_fb/negf.jpg,stim_03/b.jpg,stim_03/a.jpg,1,1,f,5,42,342,8,f,1,0.966373170228,03,03,60.0199495037,PLT_learning_3,A,2014_Mrz_31_1321,P26,
stim_fb/ques.jpg,stim_fb/negf.jpg,stim_fb/posf.jpg,stim_03/a.jpg,stim_03/b.jpg,2,1,j,5,43,343,10,f,0,0.949670639805,03,03,60.0199495037,PLT_learning_3,A,2014_Mrz_31_1321,P26,
stim_fb/ques.jpg,stim_fb/negf.jpg,stim_fb/posf.jpg,stim_03/d.jpg,stim_03/c.jpg,1,2,f,5,44,344,26,j,0,1.48291565133,03,03,60.0199495037,PLT_learning_3,A,2014_Mrz_31_1321,P26,
stim_fb/ques.jpg,stim_fb/posf.jpg,stim_fb/negf.jpg,stim_03/e.jpg,stim_03/f.jpg,2,3,j,5,45,345,59,j,1,0.716513666387,03,03,60.0199495037,PLT_learning_3,A,2014_Mrz_31_1321,P26,
stim_fb/ques.jpg,stim_fb/posf.jpg,stim_fb/negf.jpg,stim_03/d.jpg,stim_03/c.jpg,1,2,f,5,46,346,29,f,1,1.26628148104,03,03,60.0199495037,PLT_learning_3,A,2014_Mrz_31_1321,P26,
stim_fb/ques.jpg,stim_fb/negf.jpg,stim_fb/posf.jpg,stim_03/b.jpg,stim_03/a.jpg,1,1,f,5,47,347,2,j,0,0.599828441033,03,03,60.0199495037,PLT_learning_3,A,2014_Mrz_31_1321,P26,
stim_fb/ques.jpg,stim_fb/negf.jpg,stim_fb/posf.jpg,stim_03/e.jpg,stim_03/f.jpg,2,3,j,5,48,348,50,f,0,1.0496841795,03,03,60.0199495037,PLT_learning_3,A,2014_Mrz_31_1321,P26,
stim_fb/ques.jpg,stim_fb/negf.jpg,stim_fb/posf.jpg,stim_03/c.jpg,stim_03/d.jpg,2,2,j,5,49,349,34,j,1,0.733127981263,03,03,60.0199495037,PLT_learning_3,A,2014_Mrz_31_1321,P26,
stim_fb/ques.jpg,stim_fb/posf.jpg,stim_fb/negf.jpg,stim_03/b.jpg,stim_03/a.jpg,1,1,f,5,50,350,9,j,0,0.666494221494,03,03,60.0199495037,PLT_learning_3,A,2014_Mrz_31_1321,P26,
stim_fb/ques.jpg,stim_fb/negf.jpg,stim_fb/posf.jpg,stim_03/f.jpg,stim_03/e.jpg,1,3,f,5,51,351,43,f,1,0.699864933854,03,03,60.0199495037,PLT_learning_3,A,2014_Mrz_31_1321,P26,
stim_fb/ques.jpg,stim_fb/posf.jpg,stim_fb/negf.jpg,stim_03/f.jpg,stim_03/e.jpg,1,3,f,5,52,352,46,None,0,,03,03,60.0199495037,PLT_learning_3,A,2014_Mrz_31_1321,P26,
stim_fb/ques.jpg,stim_fb/negf.jpg,stim_fb/posf.jpg,stim_03/d.jpg,stim_03/c.jpg,1,2,f,5,53,353,22,f,1,0.366618559941,03,03,60.0199495037,PLT_learning_3,A,2014_Mrz_31_1321,P26,
stim_fb/ques.jpg,stim_fb/negf.jpg,stim_fb/posf.jpg,stim_03/a.jpg,stim_03/b.jpg,2,1,j,5,54,354,12,j,1,0.633159009485,03,03,60.0199495037,PLT_learning_3,A,2014_Mrz_31_1321,P26,
stim_fb/ques.jpg,stim_fb/negf.jpg,stim_fb/posf.jpg,stim_03/b.jpg,stim_03/a.jpg,1,1,f,5,55,355,0,f,1,0.583165714673,03,03,60.0199495037,PLT_learning_3,A,2014_Mrz_31_1321,P26,
stim_fb/ques.jpg,stim_fb/negf.jpg,stim_fb/posf.jpg,stim_03/a.jpg,stim_03/b.jpg,2,1,j,5,56,356,17,j,1,0.633139280384,03,03,60.0199495037,PLT_learning_3,A,2014_Mrz_31_1321,P26,
stim_fb/ques.jpg,stim_fb/posf.jpg,stim_fb/negf.jpg,stim_03/e.jpg,stim_03/f.jpg,2,3,j,5,57,357,56,f,0,0.449923088086,03,03,60.0199495037,PLT_learning_3,A,2014_Mrz_31_1321,P26,
stim_fb/ques.jpg,stim_fb/negf.jpg,stim_fb/posf.jpg,stim_03/a.jpg,stim_03/b.jpg,2,1,j,5,58,358,13,j,1,0.633177319053,03,03,60.0199495037,PLT_learning_3,A,2014_Mrz_31_1321,P26,
stim_fb/ques.jpg,stim_fb/negf.jpg,stim_fb/posf.jpg,stim_03/e.jpg,stim_03/f.jpg,2,3,j,5,59,359,54,j,1,1.33292894291,03,03,60.0199495037,PLT_learning_3,A,2014_Mrz_31_1321,P26,
