Fb3,Fb2,Fb1,Symbol2,Symbol1,PosCond,Pair,Correct,trials.thisRepN,trials.thisTrialN,trials.thisN,trials.thisIndex,Response.keys,Response.corr,Response.rt,Version,Session Number,frameRate,expName,StimCondition,date,Participant,
stim_fb/ques.jpg,stim_fb/posf.jpg,stim_fb/negf.jpg,stim_03/f.jpg,stim_03/e.jpg,1,3,f,0,0,0,47,f,1,0.899797249644,03,02,60.0221594722,PLT_learning_3,A,2014_Mrz_26_1319,P27,
stim_fb/ques.jpg,stim_fb/negf.jpg,stim_fb/posf.jpg,stim_03/c.jpg,stim_03/d.jpg,2,2,j,0,1,1,32,f,0,0.916434817784,03,02,60.0221594722,PLT_learning_3,A,2014_Mrz_26_1319,P27,
stim_fb/ques.jpg,stim_fb/negf.jpg,stim_fb/posf.jpg,stim_03/c.jpg,stim_03/d.jpg,2,2,j,0,2,2,35,f,0,1.03298661815,03,02,60.0221594722,PLT_learning_3,A,2014_Mrz_26_1319,P27,
stim_fb/ques.jpg,stim_fb/negf.jpg,stim_fb/posf.jpg,stim_03/c.jpg,stim_03/d.jpg,2,2,j,0,3,3,31,j,1,0.966351080067,03,02,60.0221594722,PLT_learning_3,A,2014_Mrz_26_1319,P27,
stim_fb/ques.jpg,stim_fb/negf.jpg,stim_fb/posf.jpg,stim_03/f.jpg,stim_03/e.jpg,1,3,f,0,4,4,40,j,0,0.799769024292,03,02,60.0221594722,PLT_learning_3,A,2014_Mrz_26_1319,P27,
stim_fb/ques.jpg,stim_fb/negf.jpg,stim_fb/posf.jpg,stim_03/b.jpg,stim_03/a.jpg,1,1,f,0,5,5,6,f,1,0.983067345362,03,02,60.0221594722,PLT_learning_3,A,2014_Mrz_26_1319,P27,
stim_fb/ques.jpg,stim_fb/negf.jpg,stim_fb/posf.jpg,stim_03/b.jpg,stim_03/a.jpg,1,1,f,0,6,6,5,f,1,0.599849225193,03,02,60.0221594722,PLT_learning_3,A,2014_Mrz_26_1319,P27,
stim_fb/ques.jpg,stim_fb/posf.jpg,stim_fb/negf.jpg,stim_03/c.jpg,stim_03/d.jpg,2,2,j,0,7,7,39,f,0,0.499855077782,03,02,60.0221594722,PLT_learning_3,A,2014_Mrz_26_1319,P27,
stim_fb/ques.jpg,stim_fb/negf.jpg,stim_fb/posf.jpg,stim_03/a.jpg,stim_03/b.jpg,2,1,j,0,8,8,17,j,1,1.08296378523,03,02,60.0221594722,PLT_learning_3,A,2014_Mrz_26_1319,P27,
stim_fb/ques.jpg,stim_fb/negf.jpg,stim_fb/posf.jpg,stim_03/e.jpg,stim_03/f.jpg,2,3,j,0,9,9,55,f,0,0.933071961863,03,02,60.0221594722,PLT_learning_3,A,2014_Mrz_26_1319,P27,
stim_fb/ques.jpg,stim_fb/negf.jpg,stim_fb/posf.jpg,stim_03/d.jpg,stim_03/c.jpg,1,2,f,0,10,10,22,j,0,0.949730606539,03,02,60.0221594722,PLT_learning_3,A,2014_Mrz_26_1319,P27,
stim_fb/ques.jpg,stim_fb/negf.jpg,stim_fb/posf.jpg,stim_03/a.jpg,stim_03/b.jpg,2,1,j,0,11,11,10,f,0,1.21627162803,03,02,60.0221594722,PLT_learning_3,A,2014_Mrz_26_1319,P27,
stim_fb/ques.jpg,stim_fb/posf.jpg,stim_fb/negf.jpg,stim_03/e.jpg,stim_03/f.jpg,2,3,j,0,12,12,59,f,0,0.883110833754,03,02,60.0221594722,PLT_learning_3,A,2014_Mrz_26_1319,P27,
stim_fb/ques.jpg,stim_fb/negf.jpg,stim_fb/posf.jpg,stim_03/a.jpg,stim_03/b.jpg,2,1,j,0,13,13,14,j,1,1.09971412846,03,02,60.0221594722,PLT_learning_3,A,2014_Mrz_26_1319,P27,
stim_fb/ques.jpg,stim_fb/negf.jpg,stim_fb/posf.jpg,stim_03/d.jpg,stim_03/c.jpg,1,2,f,0,14,14,25,f,1,1.28297643777,03,02,60.0221594722,PLT_learning_3,A,2014_Mrz_26_1319,P27,
stim_fb/ques.jpg,stim_fb/negf.jpg,stim_fb/posf.jpg,stim_03/b.jpg,stim_03/a.jpg,1,1,f,0,15,15,0,f,1,1.1996462583,03,02,60.0221594722,PLT_learning_3,A,2014_Mrz_26_1319,P27,
stim_fb/ques.jpg,stim_fb/negf.jpg,stim_fb/posf.jpg,stim_03/e.jpg,stim_03/f.jpg,2,3,j,0,16,16,52,f,0,0.716508675876,03,02,60.0221594722,PLT_learning_3,A,2014_Mrz_26_1319,P27,
stim_fb/ques.jpg,stim_fb/posf.jpg,stim_fb/negf.jpg,stim_03/d.jpg,stim_03/c.jpg,1,2,f,0,17,17,27,j,0,1.33297117766,03,02,60.0221594722,PLT_learning_3,A,2014_Mrz_26_1319,P27,
stim_fb/ques.jpg,stim_fb/negf.jpg,stim_fb/posf.jpg,stim_03/f.jpg,stim_03/e.jpg,1,3,f,0,18,18,44,j,0,1.3329155871,03,02,60.0221594722,PLT_learning_3,A,2014_Mrz_26_1319,P27,
stim_fb/ques.jpg,stim_fb/negf.jpg,stim_fb/posf.jpg,stim_03/b.jpg,stim_03/a.jpg,1,1,f,0,19,19,2,f,1,1.03303153811,03,02,60.0221594722,PLT_learning_3,A,2014_Mrz_26_1319,P27,
stim_fb/ques.jpg,stim_fb/posf.jpg,stim_fb/negf.jpg,stim_03/f.jpg,stim_03/e.jpg,1,3,f,0,20,20,48,j,0,0.76647166262,03,02,60.0221594722,PLT_learning_3,A,2014_Mrz_26_1319,P27,
stim_fb/ques.jpg,stim_fb/negf.jpg,stim_fb/posf.jpg,stim_03/d.jpg,stim_03/c.jpg,1,2,f,0,21,21,20,j,0,1.16632296298,03,02,60.0221594722,PLT_learning_3,A,2014_Mrz_26_1319,P27,
stim_fb/ques.jpg,stim_fb/posf.jpg,stim_fb/negf.jpg,stim_03/a.jpg,stim_03/b.jpg,2,1,j,0,22,22,18,j,1,0.949729911805,03,02,60.0221594722,PLT_learning_3,A,2014_Mrz_26_1319,P27,
stim_fb/ques.jpg,stim_fb/posf.jpg,stim_fb/negf.jpg,stim_03/d.jpg,stim_03/c.jpg,1,2,f,0,23,23,29,f,1,0.816461184502,03,02,60.0221594722,PLT_learning_3,A,2014_Mrz_26_1319,P27,
stim_fb/ques.jpg,stim_fb/posf.jpg,stim_fb/negf.jpg,stim_03/f.jpg,stim_03/e.jpg,1,3,f,0,24,24,46,j,0,1.11634999737,03,02,60.0221594722,PLT_learning_3,A,2014_Mrz_26_1319,P27,
stim_fb/ques.jpg,stim_fb/posf.jpg,stim_fb/negf.jpg,stim_03/c.jpg,stim_03/d.jpg,2,2,j,0,25,25,38,j,1,1.01637563928,03,02,60.0221594722,PLT_learning_3,A,2014_Mrz_26_1319,P27,
stim_fb/ques.jpg,stim_fb/posf.jpg,stim_fb/negf.jpg,stim_03/e.jpg,stim_03/f.jpg,2,3,j,0,26,26,56,f,0,0.616517599115,03,02,60.0221594722,PLT_learning_3,A,2014_Mrz_26_1319,P27,
stim_fb/ques.jpg,stim_fb/negf.jpg,stim_fb/posf.jpg,stim_03/f.jpg,stim_03/e.jpg,1,3,f,0,27,27,43,j,0,0.566554239442,03,02,60.0221594722,PLT_learning_3,A,2014_Mrz_26_1319,P27,
stim_fb/ques.jpg,stim_fb/negf.jpg,stim_fb/posf.jpg,stim_03/e.jpg,stim_03/f.jpg,2,3,j,0,28,28,51,f,0,0.766460814582,03,02,60.0221594722,PLT_learning_3,A,2014_Mrz_26_1319,P27,
stim_fb/ques.jpg,stim_fb/negf.jpg,stim_fb/posf.jpg,stim_03/e.jpg,stim_03/f.jpg,2,3,j,0,29,29,53,j,1,0.516554928159,03,02,60.0221594722,PLT_learning_3,A,2014_Mrz_26_1319,P27,
stim_fb/ques.jpg,stim_fb/negf.jpg,stim_fb/posf.jpg,stim_03/b.jpg,stim_03/a.jpg,1,1,f,0,30,30,3,f,1,0.949735352366,03,02,60.0221594722,PLT_learning_3,A,2014_Mrz_26_1319,P27,
stim_fb/ques.jpg,stim_fb/negf.jpg,stim_fb/posf.jpg,stim_03/c.jpg,stim_03/d.jpg,2,2,j,0,31,31,30,f,0,1.01638987376,03,02,60.0221594722,PLT_learning_3,A,2014_Mrz_26_1319,P27,
stim_fb/ques.jpg,stim_fb/negf.jpg,stim_fb/posf.jpg,stim_03/d.jpg,stim_03/c.jpg,1,2,f,0,32,32,24,f,1,0.81645525372,03,02,60.0221594722,PLT_learning_3,A,2014_Mrz_26_1319,P27,
stim_fb/ques.jpg,stim_fb/negf.jpg,stim_fb/posf.jpg,stim_03/f.jpg,stim_03/e.jpg,1,3,f,0,33,33,42,j,0,0.966400863152,03,02,60.0221594722,PLT_learning_3,A,2014_Mrz_26_1319,P27,
stim_fb/ques.jpg,stim_fb/posf.jpg,stim_fb/negf.jpg,stim_03/c.jpg,stim_03/d.jpg,2,2,j,0,34,34,37,f,0,1.2163379734,03,02,60.0221594722,PLT_learning_3,A,2014_Mrz_26_1319,P27,
stim_fb/ques.jpg,stim_fb/negf.jpg,stim_fb/posf.jpg,stim_03/a.jpg,stim_03/b.jpg,2,1,j,0,35,35,12,j,1,1.04971480515,03,02,60.0221594722,PLT_learning_3,A,2014_Mrz_26_1319,P27,
stim_fb/ques.jpg,stim_fb/posf.jpg,stim_fb/negf.jpg,stim_03/b.jpg,stim_03/a.jpg,1,1,f,0,36,36,9,f,1,0.899705136053,03,02,60.0221594722,PLT_learning_3,A,2014_Mrz_26_1319,P27,
stim_fb/ques.jpg,stim_fb/negf.jpg,stim_fb/posf.jpg,stim_03/a.jpg,stim_03/b.jpg,2,1,j,0,37,37,11,j,1,0.999724750942,03,02,60.0221594722,PLT_learning_3,A,2014_Mrz_26_1319,P27,
stim_fb/ques.jpg,stim_fb/negf.jpg,stim_fb/posf.jpg,stim_03/d.jpg,stim_03/c.jpg,1,2,f,0,38,38,23,f,1,0.99971200517,03,02,60.0221594722,PLT_learning_3,A,2014_Mrz_26_1319,P27,
stim_fb/ques.jpg,stim_fb/negf.jpg,stim_fb/posf.jpg,stim_03/a.jpg,stim_03/b.jpg,2,1,j,0,39,39,13,j,1,0.683156995812,03,02,60.0221594722,PLT_learning_3,A,2014_Mrz_26_1319,P27,
stim_fb/ques.jpg,stim_fb/posf.jpg,stim_fb/negf.jpg,stim_03/f.jpg,stim_03/e.jpg,1,3,f,0,40,40,49,j,0,0.733140908716,03,02,60.0221594722,PLT_learning_3,A,2014_Mrz_26_1319,P27,
stim_fb/ques.jpg,stim_fb/posf.jpg,stim_fb/negf.jpg,stim_03/e.jpg,stim_03/f.jpg,2,3,j,0,41,41,58,f,0,0.649854328913,03,02,60.0221594722,PLT_learning_3,A,2014_Mrz_26_1319,P27,
stim_fb/ques.jpg,stim_fb/negf.jpg,stim_fb/posf.jpg,stim_03/f.jpg,stim_03/e.jpg,1,3,f,0,42,42,45,j,0,0.549904166135,03,02,60.0221594722,PLT_learning_3,A,2014_Mrz_26_1319,P27,
stim_fb/ques.jpg,stim_fb/negf.jpg,stim_fb/posf.jpg,stim_03/b.jpg,stim_03/a.jpg,1,1,f,0,43,43,1,f,1,0.799800651122,03,02,60.0221594722,PLT_learning_3,A,2014_Mrz_26_1319,P27,
stim_fb/ques.jpg,stim_fb/negf.jpg,stim_fb/posf.jpg,stim_03/a.jpg,stim_03/b.jpg,2,1,j,0,44,44,15,j,1,0.683118409637,03,02,60.0221594722,PLT_learning_3,A,2014_Mrz_26_1319,P27,
stim_fb/ques.jpg,stim_fb/negf.jpg,stim_fb/posf.jpg,stim_03/c.jpg,stim_03/d.jpg,2,2,j,0,45,45,36,f,0,0.966409395416,03,02,60.0221594722,PLT_learning_3,A,2014_Mrz_26_1319,P27,
stim_fb/ques.jpg,stim_fb/posf.jpg,stim_fb/negf.jpg,stim_03/e.jpg,stim_03/f.jpg,2,3,j,0,46,46,57,j,1,0.666478252042,03,02,60.0221594722,PLT_learning_3,A,2014_Mrz_26_1319,P27,
stim_fb/ques.jpg,stim_fb/negf.jpg,stim_fb/posf.jpg,stim_03/a.jpg,stim_03/b.jpg,2,1,j,0,47,47,16,j,1,0.899764296511,03,02,60.0221594722,PLT_learning_3,A,2014_Mrz_26_1319,P27,
stim_fb/ques.jpg,stim_fb/negf.jpg,stim_fb/posf.jpg,stim_03/d.jpg,stim_03/c.jpg,1,2,f,0,48,48,26,f,1,0.766433380199,03,02,60.0221594722,PLT_learning_3,A,2014_Mrz_26_1319,P27,
stim_fb/ques.jpg,stim_fb/negf.jpg,stim_fb/posf.jpg,stim_03/f.jpg,stim_03/e.jpg,1,3,f,0,49,49,41,j,0,0.833095784245,03,02,60.0221594722,PLT_learning_3,A,2014_Mrz_26_1319,P27,
stim_fb/ques.jpg,stim_fb/posf.jpg,stim_fb/negf.jpg,stim_03/d.jpg,stim_03/c.jpg,1,2,f,0,50,50,28,f,1,0.566520128421,03,02,60.0221594722,PLT_learning_3,A,2014_Mrz_26_1319,P27,
stim_fb/ques.jpg,stim_fb/negf.jpg,stim_fb/posf.jpg,stim_03/b.jpg,stim_03/a.jpg,1,1,f,0,51,51,7,f,1,0.816457328892,03,02,60.0221594722,PLT_learning_3,A,2014_Mrz_26_1319,P27,
stim_fb/ques.jpg,stim_fb/negf.jpg,stim_fb/posf.jpg,stim_03/b.jpg,stim_03/a.jpg,1,1,f,0,52,52,4,f,1,0.566513433732,03,02,60.0221594722,PLT_learning_3,A,2014_Mrz_26_1319,P27,
stim_fb/ques.jpg,stim_fb/posf.jpg,stim_fb/negf.jpg,stim_03/a.jpg,stim_03/b.jpg,2,1,j,0,53,53,19,j,1,0.83307100548,03,02,60.0221594722,PLT_learning_3,A,2014_Mrz_26_1319,P27,
stim_fb/ques.jpg,stim_fb/posf.jpg,stim_fb/negf.jpg,stim_03/b.jpg,stim_03/a.jpg,1,1,f,0,54,54,8,j,0,0.783116277322,03,02,60.0221594722,PLT_learning_3,A,2014_Mrz_26_1319,P27,
stim_fb/ques.jpg,stim_fb/negf.jpg,stim_fb/posf.jpg,stim_03/d.jpg,stim_03/c.jpg,1,2,f,0,55,55,21,f,1,0.849777409192,03,02,60.0221594722,PLT_learning_3,A,2014_Mrz_26_1319,P27,
stim_fb/ques.jpg,stim_fb/negf.jpg,stim_fb/posf.jpg,stim_03/e.jpg,stim_03/f.jpg,2,3,j,0,56,56,50,f,0,0.933095417327,03,02,60.0221594722,PLT_learning_3,A,2014_Mrz_26_1319,P27,
stim_fb/ques.jpg,stim_fb/negf.jpg,stim_fb/posf.jpg,stim_03/c.jpg,stim_03/d.jpg,2,2,j,0,57,57,33,j,1,0.783101988705,03,02,60.0221594722,PLT_learning_3,A,2014_Mrz_26_1319,P27,
stim_fb/ques.jpg,stim_fb/negf.jpg,stim_fb/posf.jpg,stim_03/c.jpg,stim_03/d.jpg,2,2,j,0,58,58,34,j,1,1.01639365719,03,02,60.0221594722,PLT_learning_3,A,2014_Mrz_26_1319,P27,
stim_fb/ques.jpg,stim_fb/negf.jpg,stim_fb/posf.jpg,stim_03/e.jpg,stim_03/f.jpg,2,3,j,0,59,59,54,f,0,0.533208210465,03,02,60.0221594722,PLT_learning_3,A,2014_Mrz_26_1319,P27,
stim_fb/ques.jpg,stim_fb/negf.jpg,stim_fb/posf.jpg,stim_03/f.jpg,stim_03/e.jpg,1,3,f,1,0,60,42,j,0,0.816419933686,03,02,60.0221594722,PLT_learning_3,A,2014_Mrz_26_1319,P27,
stim_fb/ques.jpg,stim_fb/negf.jpg,stim_fb/posf.jpg,stim_03/a.jpg,stim_03/b.jpg,2,1,j,1,1,61,13,f,0,0.966408420987,03,02,60.0221594722,PLT_learning_3,A,2014_Mrz_26_1319,P27,
stim_fb/ques.jpg,stim_fb/negf.jpg,stim_fb/posf.jpg,stim_03/e.jpg,stim_03/f.jpg,2,3,j,1,2,62,53,f,0,0.966432489982,03,02,60.0221594722,PLT_learning_3,A,2014_Mrz_26_1319,P27,
stim_fb/ques.jpg,stim_fb/negf.jpg,stim_fb/posf.jpg,stim_03/b.jpg,stim_03/a.jpg,1,1,f,1,3,63,5,j,0,0.683127299795,03,02,60.0221594722,PLT_learning_3,A,2014_Mrz_26_1319,P27,
stim_fb/ques.jpg,stim_fb/negf.jpg,stim_fb/posf.jpg,stim_03/c.jpg,stim_03/d.jpg,2,2,j,1,4,64,31,f,0,0.966399103767,03,02,60.0221594722,PLT_learning_3,A,2014_Mrz_26_1319,P27,
stim_fb/ques.jpg,stim_fb/negf.jpg,stim_fb/posf.jpg,stim_03/d.jpg,stim_03/c.jpg,1,2,f,1,5,65,22,j,0,1.01632756446,03,02,60.0221594722,PLT_learning_3,A,2014_Mrz_26_1319,P27,
stim_fb/ques.jpg,stim_fb/posf.jpg,stim_fb/negf.jpg,stim_03/e.jpg,stim_03/f.jpg,2,3,j,1,6,66,56,j,1,0.8830918354,03,02,60.0221594722,PLT_learning_3,A,2014_Mrz_26_1319,P27,
stim_fb/ques.jpg,stim_fb/negf.jpg,stim_fb/posf.jpg,stim_03/a.jpg,stim_03/b.jpg,2,1,j,1,7,67,12,f,0,0.699815213418,03,02,60.0221594722,PLT_learning_3,A,2014_Mrz_26_1319,P27,
stim_fb/ques.jpg,stim_fb/negf.jpg,stim_fb/posf.jpg,stim_03/b.jpg,stim_03/a.jpg,1,1,f,1,8,68,1,j,0,0.766498363169,03,02,60.0221594722,PLT_learning_3,A,2014_Mrz_26_1319,P27,
stim_fb/ques.jpg,stim_fb/posf.jpg,stim_fb/negf.jpg,stim_03/c.jpg,stim_03/d.jpg,2,2,j,1,9,69,37,f,0,1.08305445222,03,02,60.0221594722,PLT_learning_3,A,2014_Mrz_26_1319,P27,
stim_fb/ques.jpg,stim_fb/negf.jpg,stim_fb/posf.jpg,stim_03/b.jpg,stim_03/a.jpg,1,1,f,1,10,70,6,f,1,0.71647202352,03,02,60.0221594722,PLT_learning_3,A,2014_Mrz_26_1319,P27,
stim_fb/ques.jpg,stim_fb/posf.jpg,stim_fb/negf.jpg,stim_03/e.jpg,stim_03/f.jpg,2,3,j,1,11,71,59,f,0,0.766446089878,03,02,60.0221594722,PLT_learning_3,A,2014_Mrz_26_1319,P27,
stim_fb/ques.jpg,stim_fb/negf.jpg,stim_fb/posf.jpg,stim_03/b.jpg,stim_03/a.jpg,1,1,f,1,12,72,4,f,1,0.5998495079,03,02,60.0221594722,PLT_learning_3,A,2014_Mrz_26_1319,P27,
stim_fb/ques.jpg,stim_fb/negf.jpg,stim_fb/posf.jpg,stim_03/d.jpg,stim_03/c.jpg,1,2,f,1,13,73,20,f,1,0.899746010935,03,02,60.0221594722,PLT_learning_3,A,2014_Mrz_26_1319,P27,
stim_fb/ques.jpg,stim_fb/negf.jpg,stim_fb/posf.jpg,stim_03/a.jpg,stim_03/b.jpg,2,1,j,1,14,74,17,f,0,0.733150120675,03,02,60.0221594722,PLT_learning_3,A,2014_Mrz_26_1319,P27,
stim_fb/ques.jpg,stim_fb/posf.jpg,stim_fb/negf.jpg,stim_03/f.jpg,stim_03/e.jpg,1,3,f,1,15,75,48,j,0,0.683133600502,03,02,60.0221594722,PLT_learning_3,A,2014_Mrz_26_1319,P27,
stim_fb/ques.jpg,stim_fb/posf.jpg,stim_fb/negf.jpg,stim_03/d.jpg,stim_03/c.jpg,1,2,f,1,16,76,27,j,0,0.849761141646,03,02,60.0221594722,PLT_learning_3,A,2014_Mrz_26_1319,P27,
stim_fb/ques.jpg,stim_fb/posf.jpg,stim_fb/negf.jpg,stim_03/a.jpg,stim_03/b.jpg,2,1,j,1,17,77,19,j,1,0.516534158389,03,02,60.0221594722,PLT_learning_3,A,2014_Mrz_26_1319,P27,
stim_fb/ques.jpg,stim_fb/negf.jpg,stim_fb/posf.jpg,stim_03/c.jpg,stim_03/d.jpg,2,2,j,1,18,78,34,f,0,0.783109068354,03,02,60.0221594722,PLT_learning_3,A,2014_Mrz_26_1319,P27,
stim_fb/ques.jpg,stim_fb/negf.jpg,stim_fb/posf.jpg,stim_03/d.jpg,stim_03/c.jpg,1,2,f,1,19,79,26,f,1,0.866426282508,03,02,60.0221594722,PLT_learning_3,A,2014_Mrz_26_1319,P27,
stim_fb/ques.jpg,stim_fb/negf.jpg,stim_fb/posf.jpg,stim_03/c.jpg,stim_03/d.jpg,2,2,j,1,20,80,30,f,0,1.09967854377,03,02,60.0221594722,PLT_learning_3,A,2014_Mrz_26_1319,P27,
stim_fb/ques.jpg,stim_fb/negf.jpg,stim_fb/posf.jpg,stim_03/a.jpg,stim_03/b.jpg,2,1,j,1,21,81,11,j,1,0.833123432156,03,02,60.0221594722,PLT_learning_3,A,2014_Mrz_26_1319,P27,
stim_fb/ques.jpg,stim_fb/negf.jpg,stim_fb/posf.jpg,stim_03/c.jpg,stim_03/d.jpg,2,2,j,1,22,82,36,j,1,1.04966954534,03,02,60.0221594722,PLT_learning_3,A,2014_Mrz_26_1319,P27,
stim_fb/ques.jpg,stim_fb/posf.jpg,stim_fb/negf.jpg,stim_03/f.jpg,stim_03/e.jpg,1,3,f,1,23,83,46,j,0,1.23297462425,03,02,60.0221594722,PLT_learning_3,A,2014_Mrz_26_1319,P27,
stim_fb/ques.jpg,stim_fb/posf.jpg,stim_fb/negf.jpg,stim_03/b.jpg,stim_03/a.jpg,1,1,f,1,24,84,9,j,0,0.833069946842,03,02,60.0221594722,PLT_learning_3,A,2014_Mrz_26_1319,P27,
stim_fb/ques.jpg,stim_fb/negf.jpg,stim_fb/posf.jpg,stim_03/a.jpg,stim_03/b.jpg,2,1,j,1,25,85,10,j,1,0.783112178102,03,02,60.0221594722,PLT_learning_3,A,2014_Mrz_26_1319,P27,
stim_fb/ques.jpg,stim_fb/negf.jpg,stim_fb/posf.jpg,stim_03/a.jpg,stim_03/b.jpg,2,1,j,1,26,86,14,j,1,0.599860172479,03,02,60.0221594722,PLT_learning_3,A,2014_Mrz_26_1319,P27,
stim_fb/ques.jpg,stim_fb/negf.jpg,stim_fb/posf.jpg,stim_03/e.jpg,stim_03/f.jpg,2,3,j,1,27,87,50,j,1,0.816438679405,03,02,60.0221594722,PLT_learning_3,A,2014_Mrz_26_1319,P27,
stim_fb/ques.jpg,stim_fb/negf.jpg,stim_fb/posf.jpg,stim_03/b.jpg,stim_03/a.jpg,1,1,f,1,28,88,3,j,0,0.666498886476,03,02,60.0221594722,PLT_learning_3,A,2014_Mrz_26_1319,P27,
stim_fb/ques.jpg,stim_fb/posf.jpg,stim_fb/negf.jpg,stim_03/b.jpg,stim_03/a.jpg,1,1,f,1,29,89,8,f,1,0.666508940536,03,02,60.0221594722,PLT_learning_3,A,2014_Mrz_26_1319,P27,
stim_fb/ques.jpg,stim_fb/negf.jpg,stim_fb/posf.jpg,stim_03/f.jpg,stim_03/e.jpg,1,3,f,1,30,90,40,j,0,0.849789033164,03,02,60.0221594722,PLT_learning_3,A,2014_Mrz_26_1319,P27,
stim_fb/ques.jpg,stim_fb/posf.jpg,stim_fb/negf.jpg,stim_03/d.jpg,stim_03/c.jpg,1,2,f,1,31,91,28,f,1,0.949688465502,03,02,60.0221594722,PLT_learning_3,A,2014_Mrz_26_1319,P27,
stim_fb/ques.jpg,stim_fb/posf.jpg,stim_fb/negf.jpg,stim_03/e.jpg,stim_03/f.jpg,2,3,j,1,32,92,58,j,1,0.749811535254,03,02,60.0221594722,PLT_learning_3,A,2014_Mrz_26_1319,P27,
stim_fb/ques.jpg,stim_fb/posf.jpg,stim_fb/negf.jpg,stim_03/c.jpg,stim_03/d.jpg,2,2,j,1,33,93,39,j,1,0.816435169658,03,02,60.0221594722,PLT_learning_3,A,2014_Mrz_26_1319,P27,
stim_fb/ques.jpg,stim_fb/posf.jpg,stim_fb/negf.jpg,stim_03/f.jpg,stim_03/e.jpg,1,3,f,1,34,94,47,f,1,0.616532041113,03,02,60.0221594722,PLT_learning_3,A,2014_Mrz_26_1319,P27,
stim_fb/ques.jpg,stim_fb/negf.jpg,stim_fb/posf.jpg,stim_03/a.jpg,stim_03/b.jpg,2,1,j,1,35,95,15,j,1,0.649849760528,03,02,60.0221594722,PLT_learning_3,A,2014_Mrz_26_1319,P27,
stim_fb/ques.jpg,stim_fb/negf.jpg,stim_fb/posf.jpg,stim_03/b.jpg,stim_03/a.jpg,1,1,f,1,36,96,2,f,1,0.783121152472,03,02,60.0221594722,PLT_learning_3,A,2014_Mrz_26_1319,P27,
stim_fb/ques.jpg,stim_fb/negf.jpg,stim_fb/posf.jpg,stim_03/f.jpg,stim_03/e.jpg,1,3,f,1,37,97,41,f,1,0.799781150519,03,02,60.0221594722,PLT_learning_3,A,2014_Mrz_26_1319,P27,
stim_fb/ques.jpg,stim_fb/posf.jpg,stim_fb/negf.jpg,stim_03/f.jpg,stim_03/e.jpg,1,3,f,1,38,98,49,f,1,0.466581508408,03,02,60.0221594722,PLT_learning_3,A,2014_Mrz_26_1319,P27,
stim_fb/ques.jpg,stim_fb/negf.jpg,stim_fb/posf.jpg,stim_03/d.jpg,stim_03/c.jpg,1,2,f,1,39,99,25,j,0,0.599865721309,03,02,60.0221594722,PLT_learning_3,A,2014_Mrz_26_1319,P27,
stim_fb/ques.jpg,stim_fb/negf.jpg,stim_fb/posf.jpg,stim_03/c.jpg,stim_03/d.jpg,2,2,j,1,40,100,33,j,1,0.866426995286,03,02,60.0221594722,PLT_learning_3,A,2014_Mrz_26_1319,P27,
stim_fb/ques.jpg,stim_fb/posf.jpg,stim_fb/negf.jpg,stim_03/d.jpg,stim_03/c.jpg,1,2,f,1,41,101,29,f,1,0.749805210486,03,02,60.0221594722,PLT_learning_3,A,2014_Mrz_26_1319,P27,
stim_fb/ques.jpg,stim_fb/negf.jpg,stim_fb/posf.jpg,stim_03/f.jpg,stim_03/e.jpg,1,3,f,1,42,102,45,j,0,0.583223765236,03,02,60.0221594722,PLT_learning_3,A,2014_Mrz_26_1319,P27,
stim_fb/ques.jpg,stim_fb/posf.jpg,stim_fb/negf.jpg,stim_03/e.jpg,stim_03/f.jpg,2,3,j,1,43,103,57,f,0,0.548878191894,03,02,60.0221594722,PLT_learning_3,A,2014_Mrz_26_1319,P27,
stim_fb/ques.jpg,stim_fb/posf.jpg,stim_fb/negf.jpg,stim_03/c.jpg,stim_03/d.jpg,2,2,j,1,44,104,38,j,1,0.683157215361,03,02,60.0221594722,PLT_learning_3,A,2014_Mrz_26_1319,P27,
stim_fb/ques.jpg,stim_fb/negf.jpg,stim_fb/posf.jpg,stim_03/d.jpg,stim_03/c.jpg,1,2,f,1,45,105,23,j,0,0.76647125059,03,02,60.0221594722,PLT_learning_3,A,2014_Mrz_26_1319,P27,
stim_fb/ques.jpg,stim_fb/negf.jpg,stim_fb/posf.jpg,stim_03/e.jpg,stim_03/f.jpg,2,3,j,1,46,106,54,j,1,0.899759192787,03,02,60.0221594722,PLT_learning_3,A,2014_Mrz_26_1319,P27,
stim_fb/ques.jpg,stim_fb/negf.jpg,stim_fb/posf.jpg,stim_03/e.jpg,stim_03/f.jpg,2,3,j,1,47,107,52,j,1,0.549865396501,03,02,60.0221594722,PLT_learning_3,A,2014_Mrz_26_1319,P27,
stim_fb/ques.jpg,stim_fb/negf.jpg,stim_fb/posf.jpg,stim_03/c.jpg,stim_03/d.jpg,2,2,j,1,48,108,35,j,1,0.816444916956,03,02,60.0221594722,PLT_learning_3,A,2014_Mrz_26_1319,P27,
stim_fb/ques.jpg,stim_fb/posf.jpg,stim_fb/negf.jpg,stim_03/a.jpg,stim_03/b.jpg,2,1,j,1,49,109,18,j,1,0.916432038855,03,02,60.0221594722,PLT_learning_3,A,2014_Mrz_26_1319,P27,
stim_fb/ques.jpg,stim_fb/negf.jpg,stim_fb/posf.jpg,stim_03/f.jpg,stim_03/e.jpg,1,3,f,1,50,110,43,f,1,0.666486140704,03,02,60.0221594722,PLT_learning_3,A,2014_Mrz_26_1319,P27,
stim_fb/ques.jpg,stim_fb/negf.jpg,stim_fb/posf.jpg,stim_03/b.jpg,stim_03/a.jpg,1,1,f,1,51,111,0,f,1,0.933062139386,03,02,60.0221594722,PLT_learning_3,A,2014_Mrz_26_1319,P27,
stim_fb/ques.jpg,stim_fb/negf.jpg,stim_fb/posf.jpg,stim_03/d.jpg,stim_03/c.jpg,1,2,f,1,52,112,24,f,1,0.749789264744,03,02,60.0221594722,PLT_learning_3,A,2014_Mrz_26_1319,P27,
stim_fb/ques.jpg,stim_fb/negf.jpg,stim_fb/posf.jpg,stim_03/d.jpg,stim_03/c.jpg,1,2,f,1,53,113,21,f,1,0.749819219403,03,02,60.0221594722,PLT_learning_3,A,2014_Mrz_26_1319,P27,
stim_fb/ques.jpg,stim_fb/negf.jpg,stim_fb/posf.jpg,stim_03/e.jpg,stim_03/f.jpg,2,3,j,1,54,114,51,j,1,0.599820154737,03,02,60.0221594722,PLT_learning_3,A,2014_Mrz_26_1319,P27,
stim_fb/ques.jpg,stim_fb/negf.jpg,stim_fb/posf.jpg,stim_03/a.jpg,stim_03/b.jpg,2,1,j,1,55,115,16,j,1,0.983055546953,03,02,60.0221594722,PLT_learning_3,A,2014_Mrz_26_1319,P27,
stim_fb/ques.jpg,stim_fb/negf.jpg,stim_fb/posf.jpg,stim_03/f.jpg,stim_03/e.jpg,1,3,f,1,56,116,44,f,1,0.733145510185,03,02,60.0221594722,PLT_learning_3,A,2014_Mrz_26_1319,P27,
stim_fb/ques.jpg,stim_fb/negf.jpg,stim_fb/posf.jpg,stim_03/c.jpg,stim_03/d.jpg,2,2,j,1,57,117,32,j,1,0.983066822057,03,02,60.0221594722,PLT_learning_3,A,2014_Mrz_26_1319,P27,
stim_fb/ques.jpg,stim_fb/negf.jpg,stim_fb/posf.jpg,stim_03/b.jpg,stim_03/a.jpg,1,1,f,1,58,118,7,f,1,0.599862915315,03,02,60.0221594722,PLT_learning_3,A,2014_Mrz_26_1319,P27,
stim_fb/ques.jpg,stim_fb/negf.jpg,stim_fb/posf.jpg,stim_03/e.jpg,stim_03/f.jpg,2,3,j,1,59,119,55,j,1,0.83309843986,03,02,60.0221594722,PLT_learning_3,A,2014_Mrz_26_1319,P27,
stim_fb/ques.jpg,stim_fb/negf.jpg,stim_fb/posf.jpg,stim_03/b.jpg,stim_03/a.jpg,1,1,f,2,0,120,4,f,1,0.733144502672,03,02,60.0221594722,PLT_learning_3,A,2014_Mrz_26_1319,P27,
stim_fb/ques.jpg,stim_fb/negf.jpg,stim_fb/posf.jpg,stim_03/d.jpg,stim_03/c.jpg,1,2,f,2,1,121,26,f,1,0.783123919369,03,02,60.0221594722,PLT_learning_3,A,2014_Mrz_26_1319,P27,
stim_fb/ques.jpg,stim_fb/negf.jpg,stim_fb/posf.jpg,stim_03/f.jpg,stim_03/e.jpg,1,3,f,2,2,122,44,f,1,0.649852548475,03,02,60.0221594722,PLT_learning_3,A,2014_Mrz_26_1319,P27,
stim_fb/ques.jpg,stim_fb/negf.jpg,stim_fb/posf.jpg,stim_03/c.jpg,stim_03/d.jpg,2,2,j,2,3,123,31,j,1,0.866440038797,03,02,60.0221594722,PLT_learning_3,A,2014_Mrz_26_1319,P27,
stim_fb/ques.jpg,stim_fb/posf.jpg,stim_fb/negf.jpg,stim_03/e.jpg,stim_03/f.jpg,2,3,j,2,4,124,56,j,1,0.783131585478,03,02,60.0221594722,PLT_learning_3,A,2014_Mrz_26_1319,P27,
stim_fb/ques.jpg,stim_fb/negf.jpg,stim_fb/posf.jpg,stim_03/b.jpg,stim_03/a.jpg,1,1,f,2,5,125,5,f,1,0.816457572499,03,02,60.0221594722,PLT_learning_3,A,2014_Mrz_26_1319,P27,
stim_fb/ques.jpg,stim_fb/negf.jpg,stim_fb/posf.jpg,stim_03/b.jpg,stim_03/a.jpg,1,1,f,2,6,126,1,f,1,1.01640822851,03,02,60.0221594722,PLT_learning_3,A,2014_Mrz_26_1319,P27,
stim_fb/ques.jpg,stim_fb/negf.jpg,stim_fb/posf.jpg,stim_03/b.jpg,stim_03/a.jpg,1,1,f,2,7,127,6,f,1,0.866407497688,03,02,60.0221594722,PLT_learning_3,A,2014_Mrz_26_1319,P27,
stim_fb/ques.jpg,stim_fb/negf.jpg,stim_fb/posf.jpg,stim_03/a.jpg,stim_03/b.jpg,2,1,j,2,8,128,17,j,1,0.83312724566,03,02,60.0221594722,PLT_learning_3,A,2014_Mrz_26_1319,P27,
stim_fb/ques.jpg,stim_fb/negf.jpg,stim_fb/posf.jpg,stim_03/f.jpg,stim_03/e.jpg,1,3,f,2,9,129,42,f,1,0.633207888663,03,02,60.0221594722,PLT_learning_3,A,2014_Mrz_26_1319,P27,
stim_fb/ques.jpg,stim_fb/posf.jpg,stim_fb/negf.jpg,stim_03/a.jpg,stim_03/b.jpg,2,1,j,2,10,130,19,j,1,1.01654394478,03,02,60.0221594722,PLT_learning_3,A,2014_Mrz_26_1319,P27,
stim_fb/ques.jpg,stim_fb/posf.jpg,stim_fb/negf.jpg,stim_03/c.jpg,stim_03/d.jpg,2,2,j,2,11,131,38,j,1,0.949668246103,03,02,60.0221594722,PLT_learning_3,A,2014_Mrz_26_1319,P27,
stim_fb/ques.jpg,stim_fb/negf.jpg,stim_fb/posf.jpg,stim_03/d.jpg,stim_03/c.jpg,1,2,f,2,12,132,20,f,1,1.04971751491,03,02,60.0221594722,PLT_learning_3,A,2014_Mrz_26_1319,P27,
stim_fb/ques.jpg,stim_fb/negf.jpg,stim_fb/posf.jpg,stim_03/c.jpg,stim_03/d.jpg,2,2,j,2,13,133,34,j,1,0.799802732308,03,02,60.0221594722,PLT_learning_3,A,2014_Mrz_26_1319,P27,
stim_fb/ques.jpg,stim_fb/posf.jpg,stim_fb/negf.jpg,stim_03/f.jpg,stim_03/e.jpg,1,3,f,2,14,134,46,f,1,0.716479458049,03,02,60.0221594722,PLT_learning_3,A,2014_Mrz_26_1319,P27,
stim_fb/ques.jpg,stim_fb/posf.jpg,stim_fb/negf.jpg,stim_03/e.jpg,stim_03/f.jpg,2,3,j,2,15,135,58,j,1,0.766479337748,03,02,60.0221594722,PLT_learning_3,A,2014_Mrz_26_1319,P27,
stim_fb/ques.jpg,stim_fb/negf.jpg,stim_fb/posf.jpg,stim_03/e.jpg,stim_03/f.jpg,2,3,j,2,16,136,51,j,1,0.616512498404,03,02,60.0221594722,PLT_learning_3,A,2014_Mrz_26_1319,P27,
stim_fb/ques.jpg,stim_fb/negf.jpg,stim_fb/posf.jpg,stim_03/c.jpg,stim_03/d.jpg,2,2,j,2,17,137,30,j,1,0.766443611705,03,02,60.0221594722,PLT_learning_3,A,2014_Mrz_26_1319,P27,
stim_fb/ques.jpg,stim_fb/negf.jpg,stim_fb/posf.jpg,stim_03/e.jpg,stim_03/f.jpg,2,3,j,2,18,138,53,j,1,0.499889297073,03,02,60.0221594722,PLT_learning_3,A,2014_Mrz_26_1319,P27,
stim_fb/ques.jpg,stim_fb/negf.jpg,stim_fb/posf.jpg,stim_03/f.jpg,stim_03/e.jpg,1,3,f,2,19,139,40,j,0,0.499923305841,03,02,60.0221594722,PLT_learning_3,A,2014_Mrz_26_1319,P27,
stim_fb/ques.jpg,stim_fb/negf.jpg,stim_fb/posf.jpg,stim_03/d.jpg,stim_03/c.jpg,1,2,f,2,20,140,23,j,0,0.549834311019,03,02,60.0221594722,PLT_learning_3,A,2014_Mrz_26_1319,P27,
stim_fb/ques.jpg,stim_fb/negf.jpg,stim_fb/posf.jpg,stim_03/e.jpg,stim_03/f.jpg,2,3,j,2,21,141,50,j,1,0.666563343133,03,02,60.0221594722,PLT_learning_3,A,2014_Mrz_26_1319,P27,
stim_fb/ques.jpg,stim_fb/negf.jpg,stim_fb/posf.jpg,stim_03/b.jpg,stim_03/a.jpg,1,1,f,2,22,142,7,f,1,0.916428604294,03,02,60.0221594722,PLT_learning_3,A,2014_Mrz_26_1319,P27,
stim_fb/ques.jpg,stim_fb/posf.jpg,stim_fb/negf.jpg,stim_03/a.jpg,stim_03/b.jpg,2,1,j,2,23,143,18,f,0,0.999729722331,03,02,60.0221594722,PLT_learning_3,A,2014_Mrz_26_1319,P27,
stim_fb/ques.jpg,stim_fb/posf.jpg,stim_fb/negf.jpg,stim_03/e.jpg,stim_03/f.jpg,2,3,j,2,24,144,57,j,1,0.816456140932,03,02,60.0221594722,PLT_learning_3,A,2014_Mrz_26_1319,P27,
stim_fb/ques.jpg,stim_fb/negf.jpg,stim_fb/posf.jpg,stim_03/c.jpg,stim_03/d.jpg,2,2,j,2,25,145,36,j,1,0.849778609183,03,02,60.0221594722,PLT_learning_3,A,2014_Mrz_26_1319,P27,
stim_fb/ques.jpg,stim_fb/posf.jpg,stim_fb/negf.jpg,stim_03/d.jpg,stim_03/c.jpg,1,2,f,2,26,146,28,f,1,0.816459701804,03,02,60.0221594722,PLT_learning_3,A,2014_Mrz_26_1319,P27,
stim_fb/ques.jpg,stim_fb/negf.jpg,stim_fb/posf.jpg,stim_03/a.jpg,stim_03/b.jpg,2,1,j,2,27,147,11,f,0,0.649846849272,03,02,60.0221594722,PLT_learning_3,A,2014_Mrz_26_1319,P27,
stim_fb/ques.jpg,stim_fb/negf.jpg,stim_fb/posf.jpg,stim_03/f.jpg,stim_03/e.jpg,1,3,f,2,28,148,43,f,1,0.899757334155,03,02,60.0221594722,PLT_learning_3,A,2014_Mrz_26_1319,P27,
stim_fb/ques.jpg,stim_fb/negf.jpg,stim_fb/posf.jpg,stim_03/d.jpg,stim_03/c.jpg,1,2,f,2,29,149,21,f,1,0.849773340051,03,02,60.0221594722,PLT_learning_3,A,2014_Mrz_26_1319,P27,
stim_fb/ques.jpg,stim_fb/negf.jpg,stim_fb/posf.jpg,stim_03/d.jpg,stim_03/c.jpg,1,2,f,2,30,150,22,f,1,0.899703908992,03,02,60.0221594722,PLT_learning_3,A,2014_Mrz_26_1319,P27,
stim_fb/ques.jpg,stim_fb/posf.jpg,stim_fb/negf.jpg,stim_03/c.jpg,stim_03/d.jpg,2,2,j,2,31,151,37,j,1,1.08301523146,03,02,60.0221594722,PLT_learning_3,A,2014_Mrz_26_1319,P27,
stim_fb/ques.jpg,stim_fb/posf.jpg,stim_fb/negf.jpg,stim_03/b.jpg,stim_03/a.jpg,1,1,f,2,32,152,8,f,1,0.816411834498,03,02,60.0221594722,PLT_learning_3,A,2014_Mrz_26_1319,P27,
stim_fb/ques.jpg,stim_fb/posf.jpg,stim_fb/negf.jpg,stim_03/c.jpg,stim_03/d.jpg,2,2,j,2,33,153,39,j,1,0.949729499778,03,02,60.0221594722,PLT_learning_3,A,2014_Mrz_26_1319,P27,
stim_fb/ques.jpg,stim_fb/negf.jpg,stim_fb/posf.jpg,stim_03/c.jpg,stim_03/d.jpg,2,2,j,2,34,154,35,j,1,0.733137143328,03,02,60.0221594722,PLT_learning_3,A,2014_Mrz_26_1319,P27,
stim_fb/ques.jpg,stim_fb/negf.jpg,stim_fb/posf.jpg,stim_03/c.jpg,stim_03/d.jpg,2,2,j,2,35,155,33,j,1,0.533189696318,03,02,60.0221594722,PLT_learning_3,A,2014_Mrz_26_1319,P27,
stim_fb/ques.jpg,stim_fb/negf.jpg,stim_fb/posf.jpg,stim_03/d.jpg,stim_03/c.jpg,1,2,f,2,36,156,24,f,1,0.899762949153,03,02,60.0221594722,PLT_learning_3,A,2014_Mrz_26_1319,P27,
stim_fb/ques.jpg,stim_fb/negf.jpg,stim_fb/posf.jpg,stim_03/f.jpg,stim_03/e.jpg,1,3,f,2,37,157,41,f,1,0.766624668988,03,02,60.0221594722,PLT_learning_3,A,2014_Mrz_26_1319,P27,
stim_fb/ques.jpg,stim_fb/posf.jpg,stim_fb/negf.jpg,stim_03/b.jpg,stim_03/a.jpg,1,1,f,2,38,158,9,f,1,0.616520140451,03,02,60.0221594722,PLT_learning_3,A,2014_Mrz_26_1319,P27,
stim_fb/ques.jpg,stim_fb/negf.jpg,stim_fb/posf.jpg,stim_03/f.jpg,stim_03/e.jpg,1,3,f,2,39,159,45,f,1,0.699835002742,03,02,60.0221594722,PLT_learning_3,A,2014_Mrz_26_1319,P27,
stim_fb/ques.jpg,stim_fb/posf.jpg,stim_fb/negf.jpg,stim_03/f.jpg,stim_03/e.jpg,1,3,f,2,40,160,49,f,1,0.499875011465,03,02,60.0221594722,PLT_learning_3,A,2014_Mrz_26_1319,P27,
stim_fb/ques.jpg,stim_fb/negf.jpg,stim_fb/posf.jpg,stim_03/a.jpg,stim_03/b.jpg,2,1,j,2,41,161,12,j,1,0.516536937317,03,02,60.0221594722,PLT_learning_3,A,2014_Mrz_26_1319,P27,
stim_fb/ques.jpg,stim_fb/negf.jpg,stim_fb/posf.jpg,stim_03/b.jpg,stim_03/a.jpg,1,1,f,2,42,162,2,j,0,0.633184529441,03,02,60.0221594722,PLT_learning_3,A,2014_Mrz_26_1319,P27,
stim_fb/ques.jpg,stim_fb/negf.jpg,stim_fb/posf.jpg,stim_03/e.jpg,stim_03/f.jpg,2,3,j,2,43,163,55,j,1,0.933089868497,03,02,60.0221594722,PLT_learning_3,A,2014_Mrz_26_1319,P27,
stim_fb/ques.jpg,stim_fb/negf.jpg,stim_fb/posf.jpg,stim_03/d.jpg,stim_03/c.jpg,1,2,f,2,44,164,25,f,1,0.916406075143,03,02,60.0221594722,PLT_learning_3,A,2014_Mrz_26_1319,P27,
stim_fb/ques.jpg,stim_fb/posf.jpg,stim_fb/negf.jpg,stim_03/d.jpg,stim_03/c.jpg,1,2,f,2,45,165,29,f,1,0.99974091924,03,02,60.0221594722,PLT_learning_3,A,2014_Mrz_26_1319,P27,
stim_fb/ques.jpg,stim_fb/negf.jpg,stim_fb/posf.jpg,stim_03/b.jpg,stim_03/a.jpg,1,1,f,2,46,166,3,f,1,1.0330410448,03,02,60.0221594722,PLT_learning_3,A,2014_Mrz_26_1319,P27,
stim_fb/ques.jpg,stim_fb/posf.jpg,stim_fb/negf.jpg,stim_03/f.jpg,stim_03/e.jpg,1,3,f,2,47,167,47,f,1,0.549868578433,03,02,60.0221594722,PLT_learning_3,A,2014_Mrz_26_1319,P27,
stim_fb/ques.jpg,stim_fb/negf.jpg,stim_fb/posf.jpg,stim_03/e.jpg,stim_03/f.jpg,2,3,j,2,48,168,52,j,1,0.833001944346,03,02,60.0221594722,PLT_learning_3,A,2014_Mrz_26_1319,P27,
stim_fb/ques.jpg,stim_fb/negf.jpg,stim_fb/posf.jpg,stim_03/a.jpg,stim_03/b.jpg,2,1,j,2,49,169,13,j,1,0.899753249978,03,02,60.0221594722,PLT_learning_3,A,2014_Mrz_26_1319,P27,
stim_fb/ques.jpg,stim_fb/posf.jpg,stim_fb/negf.jpg,stim_03/e.jpg,stim_03/f.jpg,2,3,j,2,50,170,59,j,1,0.616487632422,03,02,60.0221594722,PLT_learning_3,A,2014_Mrz_26_1319,P27,
stim_fb/ques.jpg,stim_fb/negf.jpg,stim_fb/posf.jpg,stim_03/e.jpg,stim_03/f.jpg,2,3,j,2,51,171,54,j,1,0.399890229397,03,02,60.0221594722,PLT_learning_3,A,2014_Mrz_26_1319,P27,
stim_fb/ques.jpg,stim_fb/negf.jpg,stim_fb/posf.jpg,stim_03/a.jpg,stim_03/b.jpg,2,1,j,2,52,172,10,j,1,0.566537746334,03,02,60.0221594722,PLT_learning_3,A,2014_Mrz_26_1319,P27,
stim_fb/ques.jpg,stim_fb/posf.jpg,stim_fb/negf.jpg,stim_03/d.jpg,stim_03/c.jpg,1,2,f,2,53,173,27,f,1,0.916450032706,03,02,60.0221594722,PLT_learning_3,A,2014_Mrz_26_1319,P27,
stim_fb/ques.jpg,stim_fb/negf.jpg,stim_fb/posf.jpg,stim_03/b.jpg,stim_03/a.jpg,1,1,f,2,54,174,0,f,1,1.0830638717,03,02,60.0221594722,PLT_learning_3,A,2014_Mrz_26_1319,P27,
stim_fb/ques.jpg,stim_fb/negf.jpg,stim_fb/posf.jpg,stim_03/a.jpg,stim_03/b.jpg,2,1,j,2,55,175,14,f,0,0.783148860533,03,02,60.0221594722,PLT_learning_3,A,2014_Mrz_26_1319,P27,
stim_fb/ques.jpg,stim_fb/negf.jpg,stim_fb/posf.jpg,stim_03/a.jpg,stim_03/b.jpg,2,1,j,2,56,176,16,j,1,0.683136785436,03,02,60.0221594722,PLT_learning_3,A,2014_Mrz_26_1319,P27,
stim_fb/ques.jpg,stim_fb/negf.jpg,stim_fb/posf.jpg,stim_03/a.jpg,stim_03/b.jpg,2,1,j,2,57,177,15,j,1,0.549881988856,03,02,60.0221594722,PLT_learning_3,A,2014_Mrz_26_1319,P27,
stim_fb/ques.jpg,stim_fb/negf.jpg,stim_fb/posf.jpg,stim_03/c.jpg,stim_03/d.jpg,2,2,j,2,58,178,32,j,1,0.649805111239,03,02,60.0221594722,PLT_learning_3,A,2014_Mrz_26_1319,P27,
stim_fb/ques.jpg,stim_fb/posf.jpg,stim_fb/negf.jpg,stim_03/f.jpg,stim_03/e.jpg,1,3,f,2,59,179,48,f,1,0.899721397582,03,02,60.0221594722,PLT_learning_3,A,2014_Mrz_26_1319,P27,
stim_fb/ques.jpg,stim_fb/negf.jpg,stim_fb/posf.jpg,stim_03/d.jpg,stim_03/c.jpg,1,2,f,3,0,180,20,f,1,0.966373170126,03,02,60.0221594722,PLT_learning_3,A,2014_Mrz_26_1319,P27,
stim_fb/ques.jpg,stim_fb/negf.jpg,stim_fb/posf.jpg,stim_03/a.jpg,stim_03/b.jpg,2,1,j,3,1,181,17,f,0,0.783127128369,03,02,60.0221594722,PLT_learning_3,A,2014_Mrz_26_1319,P27,
stim_fb/ques.jpg,stim_fb/posf.jpg,stim_fb/negf.jpg,stim_03/b.jpg,stim_03/a.jpg,1,1,f,3,2,182,8,f,1,0.749773725009,03,02,60.0221594722,PLT_learning_3,A,2014_Mrz_26_1319,P27,
stim_fb/ques.jpg,stim_fb/negf.jpg,stim_fb/posf.jpg,stim_03/a.jpg,stim_03/b.jpg,2,1,j,3,3,183,10,j,1,0.499889745191,03,02,60.0221594722,PLT_learning_3,A,2014_Mrz_26_1319,P27,
stim_fb/ques.jpg,stim_fb/negf.jpg,stim_fb/posf.jpg,stim_03/f.jpg,stim_03/e.jpg,1,3,f,3,4,184,43,f,1,0.649839601207,03,02,60.0221594722,PLT_learning_3,A,2014_Mrz_26_1319,P27,
stim_fb/ques.jpg,stim_fb/negf.jpg,stim_fb/posf.jpg,stim_03/d.jpg,stim_03/c.jpg,1,2,f,3,5,185,25,f,1,0.716457467239,03,02,60.0221594722,PLT_learning_3,A,2014_Mrz_26_1319,P27,
stim_fb/ques.jpg,stim_fb/posf.jpg,stim_fb/negf.jpg,stim_03/f.jpg,stim_03/e.jpg,1,3,f,3,6,186,48,f,1,0.766445016201,03,02,60.0221594722,PLT_learning_3,A,2014_Mrz_26_1319,P27,
stim_fb/ques.jpg,stim_fb/negf.jpg,stim_fb/posf.jpg,stim_03/e.jpg,stim_03/f.jpg,2,3,j,3,7,187,55,j,1,0.633161182246,03,02,60.0221594722,PLT_learning_3,A,2014_Mrz_26_1319,P27,
stim_fb/ques.jpg,stim_fb/posf.jpg,stim_fb/negf.jpg,stim_03/f.jpg,stim_03/e.jpg,1,3,f,3,8,188,46,f,1,0.766467325811,03,02,60.0221594722,PLT_learning_3,A,2014_Mrz_26_1319,P27,
stim_fb/ques.jpg,stim_fb/negf.jpg,stim_fb/posf.jpg,stim_03/d.jpg,stim_03/c.jpg,1,2,f,3,9,189,23,f,1,0.916453419148,03,02,60.0221594722,PLT_learning_3,A,2014_Mrz_26_1319,P27,
stim_fb/ques.jpg,stim_fb/posf.jpg,stim_fb/negf.jpg,stim_03/f.jpg,stim_03/e.jpg,1,3,f,3,10,190,47,f,1,0.583149868045,03,02,60.0221594722,PLT_learning_3,A,2014_Mrz_26_1319,P27,
stim_fb/ques.jpg,stim_fb/posf.jpg,stim_fb/negf.jpg,stim_03/c.jpg,stim_03/d.jpg,2,2,j,3,11,191,39,j,1,0.699793210577,03,02,60.0221594722,PLT_learning_3,A,2014_Mrz_26_1319,P27,
stim_fb/ques.jpg,stim_fb/negf.jpg,stim_fb/posf.jpg,stim_03/b.jpg,stim_03/a.jpg,1,1,f,3,12,192,2,f,1,0.716464796507,03,02,60.0221594722,PLT_learning_3,A,2014_Mrz_26_1319,P27,
stim_fb/ques.jpg,stim_fb/posf.jpg,stim_fb/negf.jpg,stim_03/e.jpg,stim_03/f.jpg,2,3,j,3,13,193,57,j,1,0.649824798311,03,02,60.0221594722,PLT_learning_3,A,2014_Mrz_26_1319,P27,
stim_fb/ques.jpg,stim_fb/posf.jpg,stim_fb/negf.jpg,stim_03/e.jpg,stim_03/f.jpg,2,3,j,3,14,194,59,j,1,0.583198655648,03,02,60.0221594722,PLT_learning_3,A,2014_Mrz_26_1319,P27,
stim_fb/ques.jpg,stim_fb/negf.jpg,stim_fb/posf.jpg,stim_03/c.jpg,stim_03/d.jpg,2,2,j,3,15,195,34,j,1,0.916406057098,03,02,60.0221594722,PLT_learning_3,A,2014_Mrz_26_1319,P27,
stim_fb/ques.jpg,stim_fb/negf.jpg,stim_fb/posf.jpg,stim_03/e.jpg,stim_03/f.jpg,2,3,j,3,16,196,52,j,1,0.599895044397,03,02,60.0221594722,PLT_learning_3,A,2014_Mrz_26_1319,P27,
stim_fb/ques.jpg,stim_fb/negf.jpg,stim_fb/posf.jpg,stim_03/b.jpg,stim_03/a.jpg,1,1,f,3,17,197,3,j,0,0.999741851563,03,02,60.0221594722,PLT_learning_3,A,2014_Mrz_26_1319,P27,
stim_fb/ques.jpg,stim_fb/negf.jpg,stim_fb/posf.jpg,stim_03/c.jpg,stim_03/d.jpg,2,2,j,3,18,198,32,j,1,0.699816205895,03,02,60.0221594722,PLT_learning_3,A,2014_Mrz_26_1319,P27,
stim_fb/ques.jpg,stim_fb/negf.jpg,stim_fb/posf.jpg,stim_03/c.jpg,stim_03/d.jpg,2,2,j,3,19,199,36,j,1,0.783133119297,03,02,60.0221594722,PLT_learning_3,A,2014_Mrz_26_1319,P27,
stim_fb/ques.jpg,stim_fb/negf.jpg,stim_fb/posf.jpg,stim_03/b.jpg,stim_03/a.jpg,1,1,f,3,20,200,5,f,1,1.01640526914,03,02,60.0221594722,PLT_learning_3,A,2014_Mrz_26_1319,P27,
stim_fb/ques.jpg,stim_fb/negf.jpg,stim_fb/posf.jpg,stim_03/d.jpg,stim_03/c.jpg,1,2,f,3,21,201,22,f,1,0.766466077701,03,02,60.0221594722,PLT_learning_3,A,2014_Mrz_26_1319,P27,
stim_fb/ques.jpg,stim_fb/negf.jpg,stim_fb/posf.jpg,stim_03/c.jpg,stim_03/d.jpg,2,2,j,3,22,202,31,j,1,0.64981957429,03,02,60.0221594722,PLT_learning_3,A,2014_Mrz_26_1319,P27,
stim_fb/ques.jpg,stim_fb/negf.jpg,stim_fb/posf.jpg,stim_03/d.jpg,stim_03/c.jpg,1,2,f,3,23,203,24,f,1,0.566537385435,03,02,60.0221594722,PLT_learning_3,A,2014_Mrz_26_1319,P27,
stim_fb/ques.jpg,stim_fb/posf.jpg,stim_fb/negf.jpg,stim_03/e.jpg,stim_03/f.jpg,2,3,j,3,24,204,58,j,1,0.966429073465,03,02,60.0221594722,PLT_learning_3,A,2014_Mrz_26_1319,P27,
stim_fb/ques.jpg,stim_fb/negf.jpg,stim_fb/posf.jpg,stim_03/e.jpg,stim_03/f.jpg,2,3,j,3,25,205,54,j,1,0.383266426568,03,02,60.0221594722,PLT_learning_3,A,2014_Mrz_26_1319,P27,
stim_fb/ques.jpg,stim_fb/posf.jpg,stim_fb/negf.jpg,stim_03/c.jpg,stim_03/d.jpg,2,2,j,3,26,206,38,j,1,0.633175037783,03,02,60.0221594722,PLT_learning_3,A,2014_Mrz_26_1319,P27,
stim_fb/ques.jpg,stim_fb/negf.jpg,stim_fb/posf.jpg,stim_03/e.jpg,stim_03/f.jpg,2,3,j,3,27,207,53,j,1,0.583191542919,03,02,60.0221594722,PLT_learning_3,A,2014_Mrz_26_1319,P27,
stim_fb/ques.jpg,stim_fb/posf.jpg,stim_fb/negf.jpg,stim_03/f.jpg,stim_03/e.jpg,1,3,f,3,28,208,49,f,1,0.649820741197,03,02,60.0221594722,PLT_learning_3,A,2014_Mrz_26_1319,P27,
stim_fb/ques.jpg,stim_fb/negf.jpg,stim_fb/posf.jpg,stim_03/a.jpg,stim_03/b.jpg,2,1,j,3,29,209,15,j,1,0.816405224021,03,02,60.0221594722,PLT_learning_3,A,2014_Mrz_26_1319,P27,
stim_fb/ques.jpg,stim_fb/negf.jpg,stim_fb/posf.jpg,stim_03/f.jpg,stim_03/e.jpg,1,3,f,3,30,210,44,f,1,0.799785189582,03,02,60.0221594722,PLT_learning_3,A,2014_Mrz_26_1319,P27,
stim_fb/ques.jpg,stim_fb/negf.jpg,stim_fb/posf.jpg,stim_03/b.jpg,stim_03/a.jpg,1,1,f,3,31,211,7,f,1,0.983057312351,03,02,60.0221594722,PLT_learning_3,A,2014_Mrz_26_1319,P27,
stim_fb/ques.jpg,stim_fb/negf.jpg,stim_fb/posf.jpg,stim_03/a.jpg,stim_03/b.jpg,2,1,j,3,32,212,12,j,1,0.583179070836,03,02,60.0221594722,PLT_learning_3,A,2014_Mrz_26_1319,P27,
stim_fb/ques.jpg,stim_fb/negf.jpg,stim_fb/posf.jpg,stim_03/e.jpg,stim_03/f.jpg,2,3,j,3,33,213,50,j,1,0.88309362486,03,02,60.0221594722,PLT_learning_3,A,2014_Mrz_26_1319,P27,
stim_fb/ques.jpg,stim_fb/negf.jpg,stim_fb/posf.jpg,stim_03/b.jpg,stim_03/a.jpg,1,1,f,3,34,214,1,f,1,0.749774109969,03,02,60.0221594722,PLT_learning_3,A,2014_Mrz_26_1319,P27,
stim_fb/ques.jpg,stim_fb/posf.jpg,stim_fb/negf.jpg,stim_03/d.jpg,stim_03/c.jpg,1,2,f,3,35,215,29,f,1,0.583199882709,03,02,60.0221594722,PLT_learning_3,A,2014_Mrz_26_1319,P27,
stim_fb/ques.jpg,stim_fb/posf.jpg,stim_fb/negf.jpg,stim_03/b.jpg,stim_03/a.jpg,1,1,f,3,36,216,9,f,1,0.783144824476,03,02,60.0221594722,PLT_learning_3,A,2014_Mrz_26_1319,P27,
stim_fb/ques.jpg,stim_fb/posf.jpg,stim_fb/negf.jpg,stim_03/d.jpg,stim_03/c.jpg,1,2,f,3,37,217,28,f,1,0.783128935873,03,02,60.0221594722,PLT_learning_3,A,2014_Mrz_26_1319,P27,
stim_fb/ques.jpg,stim_fb/negf.jpg,stim_fb/posf.jpg,stim_03/c.jpg,stim_03/d.jpg,2,2,j,3,38,218,30,f,0,1.04972246825,03,02,60.0221594722,PLT_learning_3,A,2014_Mrz_26_1319,P27,
stim_fb/ques.jpg,stim_fb/negf.jpg,stim_fb/posf.jpg,stim_03/b.jpg,stim_03/a.jpg,1,1,f,3,39,219,4,f,1,0.949723460726,03,02,60.0221594722,PLT_learning_3,A,2014_Mrz_26_1319,P27,
stim_fb/ques.jpg,stim_fb/negf.jpg,stim_fb/posf.jpg,stim_03/a.jpg,stim_03/b.jpg,2,1,j,3,40,220,11,j,1,0.699787745958,03,02,60.0221594722,PLT_learning_3,A,2014_Mrz_26_1319,P27,
stim_fb/ques.jpg,stim_fb/negf.jpg,stim_fb/posf.jpg,stim_03/f.jpg,stim_03/e.jpg,1,3,f,3,41,221,42,f,1,0.816442165098,03,02,60.0221594722,PLT_learning_3,A,2014_Mrz_26_1319,P27,
stim_fb/ques.jpg,stim_fb/negf.jpg,stim_fb/posf.jpg,stim_03/f.jpg,stim_03/e.jpg,1,3,f,3,42,222,41,f,1,0.616515987098,03,02,60.0221594722,PLT_learning_3,A,2014_Mrz_26_1319,P27,
stim_fb/ques.jpg,stim_fb/posf.jpg,stim_fb/negf.jpg,stim_03/d.jpg,stim_03/c.jpg,1,2,f,3,43,223,27,f,1,0.59990495109,03,02,60.0221594722,PLT_learning_3,A,2014_Mrz_26_1319,P27,
stim_fb/ques.jpg,stim_fb/negf.jpg,stim_fb/posf.jpg,stim_03/d.jpg,stim_03/c.jpg,1,2,f,3,44,224,21,f,1,0.666504011249,03,02,60.0221594722,PLT_learning_3,A,2014_Mrz_26_1319,P27,
stim_fb/ques.jpg,stim_fb/negf.jpg,stim_fb/posf.jpg,stim_03/c.jpg,stim_03/d.jpg,2,2,j,3,45,225,33,j,1,0.833129140385,03,02,60.0221594722,PLT_learning_3,A,2014_Mrz_26_1319,P27,
stim_fb/ques.jpg,stim_fb/negf.jpg,stim_fb/posf.jpg,stim_03/f.jpg,stim_03/e.jpg,1,3,f,3,46,226,40,f,1,0.566526630624,03,02,60.0221594722,PLT_learning_3,A,2014_Mrz_26_1319,P27,
stim_fb/ques.jpg,stim_fb/negf.jpg,stim_fb/posf.jpg,stim_03/f.jpg,stim_03/e.jpg,1,3,f,3,47,227,45,f,1,0.666512513439,03,02,60.0221594722,PLT_learning_3,A,2014_Mrz_26_1319,P27,
stim_fb/ques.jpg,stim_fb/negf.jpg,stim_fb/posf.jpg,stim_03/c.jpg,stim_03/d.jpg,2,2,j,3,48,228,35,j,1,0.78314288464,03,02,60.0221594722,PLT_learning_3,A,2014_Mrz_26_1319,P27,
stim_fb/ques.jpg,stim_fb/negf.jpg,stim_fb/posf.jpg,stim_03/a.jpg,stim_03/b.jpg,2,1,j,3,49,229,14,j,1,0.699819796842,03,02,60.0221594722,PLT_learning_3,A,2014_Mrz_26_1319,P27,
stim_fb/ques.jpg,stim_fb/negf.jpg,stim_fb/posf.jpg,stim_03/b.jpg,stim_03/a.jpg,1,1,f,3,50,230,0,f,1,0.516121478784,03,02,60.0221594722,PLT_learning_3,A,2014_Mrz_26_1319,P27,
stim_fb/ques.jpg,stim_fb/posf.jpg,stim_fb/negf.jpg,stim_03/a.jpg,stim_03/b.jpg,2,1,j,3,51,231,18,j,1,0.849721514875,03,02,60.0221594722,PLT_learning_3,A,2014_Mrz_26_1319,P27,
stim_fb/ques.jpg,stim_fb/negf.jpg,stim_fb/posf.jpg,stim_03/a.jpg,stim_03/b.jpg,2,1,j,3,52,232,13,j,1,0.599870319773,03,02,60.0221594722,PLT_learning_3,A,2014_Mrz_26_1319,P27,
stim_fb/ques.jpg,stim_fb/negf.jpg,stim_fb/posf.jpg,stim_03/e.jpg,stim_03/f.jpg,2,3,j,3,53,233,51,j,1,0.783095823339,03,02,60.0221594722,PLT_learning_3,A,2014_Mrz_26_1319,P27,
stim_fb/ques.jpg,stim_fb/negf.jpg,stim_fb/posf.jpg,stim_03/d.jpg,stim_03/c.jpg,1,2,f,3,54,234,26,f,1,0.88315513718,03,02,60.0221594722,PLT_learning_3,A,2014_Mrz_26_1319,P27,
stim_fb/ques.jpg,stim_fb/posf.jpg,stim_fb/negf.jpg,stim_03/a.jpg,stim_03/b.jpg,2,1,j,3,55,235,19,j,1,0.716486146721,03,02,60.0221594722,PLT_learning_3,A,2014_Mrz_26_1319,P27,
stim_fb/ques.jpg,stim_fb/posf.jpg,stim_fb/negf.jpg,stim_03/c.jpg,stim_03/d.jpg,2,2,j,3,56,236,37,j,1,0.883067450621,03,02,60.0221594722,PLT_learning_3,A,2014_Mrz_26_1319,P27,
stim_fb/ques.jpg,stim_fb/negf.jpg,stim_fb/posf.jpg,stim_03/a.jpg,stim_03/b.jpg,2,1,j,3,57,237,16,j,1,0.516579637748,03,02,60.0221594722,PLT_learning_3,A,2014_Mrz_26_1319,P27,
stim_fb/ques.jpg,stim_fb/posf.jpg,stim_fb/negf.jpg,stim_03/e.jpg,stim_03/f.jpg,2,3,j,3,58,238,56,j,1,0.79980289772,03,02,60.0221594722,PLT_learning_3,A,2014_Mrz_26_1319,P27,
stim_fb/ques.jpg,stim_fb/negf.jpg,stim_fb/posf.jpg,stim_03/b.jpg,stim_03/a.jpg,1,1,f,3,59,239,6,j,0,0.499897880469,03,02,60.0221594722,PLT_learning_3,A,2014_Mrz_26_1319,P27,
stim_fb/ques.jpg,stim_fb/posf.jpg,stim_fb/negf.jpg,stim_03/c.jpg,stim_03/d.jpg,2,2,j,4,0,240,37,j,1,0.916410502177,03,02,60.0221594722,PLT_learning_3,A,2014_Mrz_26_1319,P27,
stim_fb/ques.jpg,stim_fb/posf.jpg,stim_fb/negf.jpg,stim_03/d.jpg,stim_03/c.jpg,1,2,f,4,1,241,28,f,1,0.699821974271,03,02,60.0221594722,PLT_learning_3,A,2014_Mrz_26_1319,P27,
stim_fb/ques.jpg,stim_fb/posf.jpg,stim_fb/negf.jpg,stim_03/f.jpg,stim_03/e.jpg,1,3,f,4,2,242,49,f,1,0.683161299537,03,02,60.0221594722,PLT_learning_3,A,2014_Mrz_26_1319,P27,
stim_fb/ques.jpg,stim_fb/posf.jpg,stim_fb/negf.jpg,stim_03/f.jpg,stim_03/e.jpg,1,3,f,4,3,243,46,f,1,0.766453674783,03,02,60.0221594722,PLT_learning_3,A,2014_Mrz_26_1319,P27,
stim_fb/ques.jpg,stim_fb/posf.jpg,stim_fb/negf.jpg,stim_03/e.jpg,stim_03/f.jpg,2,3,j,4,4,244,58,j,1,0.633124172,03,02,60.0221594722,PLT_learning_3,A,2014_Mrz_26_1319,P27,
stim_fb/ques.jpg,stim_fb/posf.jpg,stim_fb/negf.jpg,stim_03/c.jpg,stim_03/d.jpg,2,2,j,4,5,245,38,f,0,0.833129486247,03,02,60.0221594722,PLT_learning_3,A,2014_Mrz_26_1319,P27,
stim_fb/ques.jpg,stim_fb/posf.jpg,stim_fb/negf.jpg,stim_03/f.jpg,stim_03/e.jpg,1,3,f,4,6,246,47,f,1,0.816429590755,03,02,60.0221594722,PLT_learning_3,A,2014_Mrz_26_1319,P27,
stim_fb/ques.jpg,stim_fb/negf.jpg,stim_fb/posf.jpg,stim_03/a.jpg,stim_03/b.jpg,2,1,j,4,7,247,14,j,1,1.11637782874,03,02,60.0221594722,PLT_learning_3,A,2014_Mrz_26_1319,P27,
stim_fb/ques.jpg,stim_fb/negf.jpg,stim_fb/posf.jpg,stim_03/e.jpg,stim_03/f.jpg,2,3,j,4,8,248,53,j,1,0.766507355584,03,02,60.0221594722,PLT_learning_3,A,2014_Mrz_26_1319,P27,
stim_fb/ques.jpg,stim_fb/negf.jpg,stim_fb/posf.jpg,stim_03/b.jpg,stim_03/a.jpg,1,1,f,4,9,249,2,f,1,0.866452282313,03,02,60.0221594722,PLT_learning_3,A,2014_Mrz_26_1319,P27,
stim_fb/ques.jpg,stim_fb/negf.jpg,stim_fb/posf.jpg,stim_03/b.jpg,stim_03/a.jpg,1,1,f,4,10,250,3,f,1,0.533218318662,03,02,60.0221594722,PLT_learning_3,A,2014_Mrz_26_1319,P27,
stim_fb/ques.jpg,stim_fb/negf.jpg,stim_fb/posf.jpg,stim_03/c.jpg,stim_03/d.jpg,2,2,j,4,11,251,36,j,1,0.766447443253,03,02,60.0221594722,PLT_learning_3,A,2014_Mrz_26_1319,P27,
stim_fb/ques.jpg,stim_fb/negf.jpg,stim_fb/posf.jpg,stim_03/a.jpg,stim_03/b.jpg,2,1,j,4,12,252,10,j,1,0.783133615536,03,02,60.0221594722,PLT_learning_3,A,2014_Mrz_26_1319,P27,
stim_fb/ques.jpg,stim_fb/posf.jpg,stim_fb/negf.jpg,stim_03/b.jpg,stim_03/a.jpg,1,1,f,4,13,253,9,f,1,0.683175344544,03,02,60.0221594722,PLT_learning_3,A,2014_Mrz_26_1319,P27,
stim_fb/ques.jpg,stim_fb/negf.jpg,stim_fb/posf.jpg,stim_03/b.jpg,stim_03/a.jpg,1,1,f,4,14,254,0,f,1,0.533146779348,03,02,60.0221594722,PLT_learning_3,A,2014_Mrz_26_1319,P27,
stim_fb/ques.jpg,stim_fb/negf.jpg,stim_fb/posf.jpg,stim_03/a.jpg,stim_03/b.jpg,2,1,j,4,15,255,12,j,1,0.7164526372,03,02,60.0221594722,PLT_learning_3,A,2014_Mrz_26_1319,P27,
stim_fb/ques.jpg,stim_fb/negf.jpg,stim_fb/posf.jpg,stim_03/f.jpg,stim_03/e.jpg,1,3,f,4,16,256,40,f,1,0.649843510953,03,02,60.0221594722,PLT_learning_3,A,2014_Mrz_26_1319,P27,
stim_fb/ques.jpg,stim_fb/negf.jpg,stim_fb/posf.jpg,stim_03/b.jpg,stim_03/a.jpg,1,1,f,4,17,257,7,f,1,0.666504068387,03,02,60.0221594722,PLT_learning_3,A,2014_Mrz_26_1319,P27,
stim_fb/ques.jpg,stim_fb/negf.jpg,stim_fb/posf.jpg,stim_03/d.jpg,stim_03/c.jpg,1,2,f,4,18,258,26,f,1,0.899751800363,03,02,60.0221594722,PLT_learning_3,A,2014_Mrz_26_1319,P27,
stim_fb/ques.jpg,stim_fb/negf.jpg,stim_fb/posf.jpg,stim_03/a.jpg,stim_03/b.jpg,2,1,j,4,19,259,17,j,1,0.833125579509,03,02,60.0221594722,PLT_learning_3,A,2014_Mrz_26_1319,P27,
stim_fb/ques.jpg,stim_fb/negf.jpg,stim_fb/posf.jpg,stim_03/c.jpg,stim_03/d.jpg,2,2,j,4,20,260,33,j,1,0.983043366588,03,02,60.0221594722,PLT_learning_3,A,2014_Mrz_26_1319,P27,
stim_fb/ques.jpg,stim_fb/negf.jpg,stim_fb/posf.jpg,stim_03/c.jpg,stim_03/d.jpg,2,2,j,4,21,261,35,j,1,0.833093766214,03,02,60.0221594722,PLT_learning_3,A,2014_Mrz_26_1319,P27,
stim_fb/ques.jpg,stim_fb/negf.jpg,stim_fb/posf.jpg,stim_03/e.jpg,stim_03/f.jpg,2,3,j,4,22,262,51,j,1,0.766471181421,03,02,60.0221594722,PLT_learning_3,A,2014_Mrz_26_1319,P27,
stim_fb/ques.jpg,stim_fb/posf.jpg,stim_fb/negf.jpg,stim_03/b.jpg,stim_03/a.jpg,1,1,f,4,23,263,8,j,0,0.866440592177,03,02,60.0221594722,PLT_learning_3,A,2014_Mrz_26_1319,P27,
stim_fb/ques.jpg,stim_fb/negf.jpg,stim_fb/posf.jpg,stim_03/a.jpg,stim_03/b.jpg,2,1,j,4,24,264,11,j,1,0.849774636281,03,02,60.0221594722,PLT_learning_3,A,2014_Mrz_26_1319,P27,
stim_fb/ques.jpg,stim_fb/negf.jpg,stim_fb/posf.jpg,stim_03/e.jpg,stim_03/f.jpg,2,3,j,4,25,265,54,j,1,0.666470074659,03,02,60.0221594722,PLT_learning_3,A,2014_Mrz_26_1319,P27,
stim_fb/ques.jpg,stim_fb/negf.jpg,stim_fb/posf.jpg,stim_03/e.jpg,stim_03/f.jpg,2,3,j,4,26,266,50,j,1,0.56655214923,03,02,60.0221594722,PLT_learning_3,A,2014_Mrz_26_1319,P27,
stim_fb/ques.jpg,stim_fb/negf.jpg,stim_fb/posf.jpg,stim_03/d.jpg,stim_03/c.jpg,1,2,f,4,27,267,24,f,1,0.733148337233,03,02,60.0221594722,PLT_learning_3,A,2014_Mrz_26_1319,P27,
stim_fb/ques.jpg,stim_fb/posf.jpg,stim_fb/negf.jpg,stim_03/e.jpg,stim_03/f.jpg,2,3,j,4,28,268,59,j,1,0.816423028398,03,02,60.0221594722,PLT_learning_3,A,2014_Mrz_26_1319,P27,
stim_fb/ques.jpg,stim_fb/negf.jpg,stim_fb/posf.jpg,stim_03/f.jpg,stim_03/e.jpg,1,3,f,4,29,269,43,f,1,0.51657159871,03,02,60.0221594722,PLT_learning_3,A,2014_Mrz_26_1319,P27,
stim_fb/ques.jpg,stim_fb/negf.jpg,stim_fb/posf.jpg,stim_03/b.jpg,stim_03/a.jpg,1,1,f,4,30,270,6,f,1,0.566545231992,03,02,60.0221594722,PLT_learning_3,A,2014_Mrz_26_1319,P27,
stim_fb/ques.jpg,stim_fb/negf.jpg,stim_fb/posf.jpg,stim_03/f.jpg,stim_03/e.jpg,1,3,f,4,31,271,42,f,1,0.633131886225,03,02,60.0221594722,PLT_learning_3,A,2014_Mrz_26_1319,P27,
stim_fb/ques.jpg,stim_fb/negf.jpg,stim_fb/posf.jpg,stim_03/f.jpg,stim_03/e.jpg,1,3,f,4,32,272,45,f,1,0.4665910933,03,02,60.0221594722,PLT_learning_3,A,2014_Mrz_26_1319,P27,
stim_fb/ques.jpg,stim_fb/posf.jpg,stim_fb/negf.jpg,stim_03/e.jpg,stim_03/f.jpg,2,3,j,4,33,273,57,j,1,0.549835441838,03,02,60.0221594722,PLT_learning_3,A,2014_Mrz_26_1319,P27,
stim_fb/ques.jpg,stim_fb/negf.jpg,stim_fb/posf.jpg,stim_03/c.jpg,stim_03/d.jpg,2,2,j,4,34,274,32,j,1,0.699782263291,03,02,60.0221594722,PLT_learning_3,A,2014_Mrz_26_1319,P27,
stim_fb/ques.jpg,stim_fb/negf.jpg,stim_fb/posf.jpg,stim_03/d.jpg,stim_03/c.jpg,1,2,f,4,35,275,21,f,1,0.633156830401,03,02,60.0221594722,PLT_learning_3,A,2014_Mrz_26_1319,P27,
stim_fb/ques.jpg,stim_fb/negf.jpg,stim_fb/posf.jpg,stim_03/d.jpg,stim_03/c.jpg,1,2,f,4,36,276,22,f,1,0.566515629205,03,02,60.0221594722,PLT_learning_3,A,2014_Mrz_26_1319,P27,
stim_fb/ques.jpg,stim_fb/negf.jpg,stim_fb/posf.jpg,stim_03/d.jpg,stim_03/c.jpg,1,2,f,4,37,277,23,f,1,0.549855378529,03,02,60.0221594722,PLT_learning_3,A,2014_Mrz_26_1319,P27,
stim_fb/ques.jpg,stim_fb/negf.jpg,stim_fb/posf.jpg,stim_03/a.jpg,stim_03/b.jpg,2,1,j,4,38,278,15,j,1,1.11635811761,03,02,60.0221594722,PLT_learning_3,A,2014_Mrz_26_1319,P27,
stim_fb/ques.jpg,stim_fb/negf.jpg,stim_fb/posf.jpg,stim_03/e.jpg,stim_03/f.jpg,2,3,j,4,39,279,55,j,1,0.916402153365,03,02,60.0221594722,PLT_learning_3,A,2014_Mrz_26_1319,P27,
stim_fb/ques.jpg,stim_fb/negf.jpg,stim_fb/posf.jpg,stim_03/b.jpg,stim_03/a.jpg,1,1,f,4,40,280,4,f,1,0.533196806038,03,02,60.0221594722,PLT_learning_3,A,2014_Mrz_26_1319,P27,
stim_fb/ques.jpg,stim_fb/posf.jpg,stim_fb/negf.jpg,stim_03/c.jpg,stim_03/d.jpg,2,2,j,4,41,281,39,j,1,0.616461172471,03,02,60.0221594722,PLT_learning_3,A,2014_Mrz_26_1319,P27,
stim_fb/ques.jpg,stim_fb/negf.jpg,stim_fb/posf.jpg,stim_03/d.jpg,stim_03/c.jpg,1,2,f,4,42,282,25,f,1,0.799816169801,03,02,60.0221594722,PLT_learning_3,A,2014_Mrz_26_1319,P27,
stim_fb/ques.jpg,stim_fb/negf.jpg,stim_fb/posf.jpg,stim_03/b.jpg,stim_03/a.jpg,1,1,f,4,43,283,1,f,1,0.516556140177,03,02,60.0221594722,PLT_learning_3,A,2014_Mrz_26_1319,P27,
stim_fb/ques.jpg,stim_fb/posf.jpg,stim_fb/negf.jpg,stim_03/e.jpg,stim_03/f.jpg,2,3,j,4,44,284,56,j,1,0.783062626597,03,02,60.0221594722,PLT_learning_3,A,2014_Mrz_26_1319,P27,
stim_fb/ques.jpg,stim_fb/posf.jpg,stim_fb/negf.jpg,stim_03/d.jpg,stim_03/c.jpg,1,2,f,4,45,285,29,f,1,0.533190418118,03,02,60.0221594722,PLT_learning_3,A,2014_Mrz_26_1319,P27,
stim_fb/ques.jpg,stim_fb/negf.jpg,stim_fb/posf.jpg,stim_03/f.jpg,stim_03/e.jpg,1,3,f,4,46,286,41,f,1,0.666483686589,03,02,60.0221594722,PLT_learning_3,A,2014_Mrz_26_1319,P27,
stim_fb/ques.jpg,stim_fb/negf.jpg,stim_fb/posf.jpg,stim_03/a.jpg,stim_03/b.jpg,2,1,j,4,47,287,16,j,1,0.633186481304,03,02,60.0221594722,PLT_learning_3,A,2014_Mrz_26_1319,P27,
stim_fb/ques.jpg,stim_fb/posf.jpg,stim_fb/negf.jpg,stim_03/a.jpg,stim_03/b.jpg,2,1,j,4,48,288,18,j,1,0.59987074383,03,02,60.0221594722,PLT_learning_3,A,2014_Mrz_26_1319,P27,
stim_fb/ques.jpg,stim_fb/negf.jpg,stim_fb/posf.jpg,stim_03/f.jpg,stim_03/e.jpg,1,3,f,4,49,289,44,f,1,0.716493115091,03,02,60.0221594722,PLT_learning_3,A,2014_Mrz_26_1319,P27,
stim_fb/ques.jpg,stim_fb/negf.jpg,stim_fb/posf.jpg,stim_03/b.jpg,stim_03/a.jpg,1,1,f,4,50,290,5,f,1,0.616471367885,03,02,60.0221594722,PLT_learning_3,A,2014_Mrz_26_1319,P27,
stim_fb/ques.jpg,stim_fb/negf.jpg,stim_fb/posf.jpg,stim_03/a.jpg,stim_03/b.jpg,2,1,j,4,51,291,13,j,1,0.583267737835,03,02,60.0221594722,PLT_learning_3,A,2014_Mrz_26_1319,P27,
stim_fb/ques.jpg,stim_fb/negf.jpg,stim_fb/posf.jpg,stim_03/d.jpg,stim_03/c.jpg,1,2,f,4,52,292,20,f,1,0.599834506505,03,02,60.0221594722,PLT_learning_3,A,2014_Mrz_26_1319,P27,
stim_fb/ques.jpg,stim_fb/posf.jpg,stim_fb/negf.jpg,stim_03/f.jpg,stim_03/e.jpg,1,3,f,4,53,293,48,f,1,0.849804828533,03,02,60.0221594722,PLT_learning_3,A,2014_Mrz_26_1319,P27,
stim_fb/ques.jpg,stim_fb/negf.jpg,stim_fb/posf.jpg,stim_03/c.jpg,stim_03/d.jpg,2,2,j,4,54,294,34,j,1,0.783170129547,03,02,60.0221594722,PLT_learning_3,A,2014_Mrz_26_1319,P27,
stim_fb/ques.jpg,stim_fb/negf.jpg,stim_fb/posf.jpg,stim_03/e.jpg,stim_03/f.jpg,2,3,j,4,55,295,52,j,1,0.9497727987,03,02,60.0221594722,PLT_learning_3,A,2014_Mrz_26_1319,P27,
stim_fb/ques.jpg,stim_fb/negf.jpg,stim_fb/posf.jpg,stim_03/c.jpg,stim_03/d.jpg,2,2,j,4,56,296,31,j,1,0.733146677092,03,02,60.0221594722,PLT_learning_3,A,2014_Mrz_26_1319,P27,
stim_fb/ques.jpg,stim_fb/negf.jpg,stim_fb/posf.jpg,stim_03/c.jpg,stim_03/d.jpg,2,2,j,4,57,297,30,j,1,0.549841640288,03,02,60.0221594722,PLT_learning_3,A,2014_Mrz_26_1319,P27,
stim_fb/ques.jpg,stim_fb/posf.jpg,stim_fb/negf.jpg,stim_03/d.jpg,stim_03/c.jpg,1,2,f,4,58,298,27,f,1,0.649832289982,03,02,60.0221594722,PLT_learning_3,A,2014_Mrz_26_1319,P27,
stim_fb/ques.jpg,stim_fb/posf.jpg,stim_fb/negf.jpg,stim_03/a.jpg,stim_03/b.jpg,2,1,j,4,59,299,19,j,1,0.516498712041,03,02,60.0221594722,PLT_learning_3,A,2014_Mrz_26_1319,P27,
stim_fb/ques.jpg,stim_fb/negf.jpg,stim_fb/posf.jpg,stim_03/b.jpg,stim_03/a.jpg,1,1,f,5,0,300,7,f,1,0.599857396563,03,02,60.0221594722,PLT_learning_3,A,2014_Mrz_26_1319,P27,
stim_fb/ques.jpg,stim_fb/negf.jpg,stim_fb/posf.jpg,stim_03/b.jpg,stim_03/a.jpg,1,1,f,5,1,301,3,f,1,0.433259695794,03,02,60.0221594722,PLT_learning_3,A,2014_Mrz_26_1319,P27,
stim_fb/ques.jpg,stim_fb/negf.jpg,stim_fb/posf.jpg,stim_03/c.jpg,stim_03/d.jpg,2,2,j,5,2,302,31,j,1,0.666491313597,03,02,60.0221594722,PLT_learning_3,A,2014_Mrz_26_1319,P27,
stim_fb/ques.jpg,stim_fb/negf.jpg,stim_fb/posf.jpg,stim_03/e.jpg,stim_03/f.jpg,2,3,j,5,3,303,53,j,1,0.766511818711,03,02,60.0221594722,PLT_learning_3,A,2014_Mrz_26_1319,P27,
stim_fb/ques.jpg,stim_fb/negf.jpg,stim_fb/posf.jpg,stim_03/f.jpg,stim_03/e.jpg,1,3,f,5,4,304,42,f,1,0.633466109281,03,02,60.0221594722,PLT_learning_3,A,2014_Mrz_26_1319,P27,
stim_fb/ques.jpg,stim_fb/posf.jpg,stim_fb/negf.jpg,stim_03/d.jpg,stim_03/c.jpg,1,2,f,5,5,305,28,f,1,0.633199762407,03,02,60.0221594722,PLT_learning_3,A,2014_Mrz_26_1319,P27,
stim_fb/ques.jpg,stim_fb/negf.jpg,stim_fb/posf.jpg,stim_03/b.jpg,stim_03/a.jpg,1,1,f,5,6,306,6,f,1,0.599842007203,03,02,60.0221594722,PLT_learning_3,A,2014_Mrz_26_1319,P27,
stim_fb/ques.jpg,stim_fb/negf.jpg,stim_fb/posf.jpg,stim_03/b.jpg,stim_03/a.jpg,1,1,f,5,7,307,1,f,1,0.766470092709,03,02,60.0221594722,PLT_learning_3,A,2014_Mrz_26_1319,P27,
stim_fb/ques.jpg,stim_fb/negf.jpg,stim_fb/posf.jpg,stim_03/a.jpg,stim_03/b.jpg,2,1,j,5,8,308,15,j,1,0.749790780519,03,02,60.0221594722,PLT_learning_3,A,2014_Mrz_26_1319,P27,
stim_fb/ques.jpg,stim_fb/negf.jpg,stim_fb/posf.jpg,stim_03/f.jpg,stim_03/e.jpg,1,3,f,5,9,309,40,f,1,0.7664693679,03,02,60.0221594722,PLT_learning_3,A,2014_Mrz_26_1319,P27,
stim_fb/ques.jpg,stim_fb/negf.jpg,stim_fb/posf.jpg,stim_03/a.jpg,stim_03/b.jpg,2,1,j,5,10,310,17,j,1,0.516539403463,03,02,60.0221594722,PLT_learning_3,A,2014_Mrz_26_1319,P27,
stim_fb/ques.jpg,stim_fb/posf.jpg,stim_fb/negf.jpg,stim_03/c.jpg,stim_03/d.jpg,2,2,j,5,11,311,37,j,1,0.633204833048,03,02,60.0221594722,PLT_learning_3,A,2014_Mrz_26_1319,P27,
stim_fb/ques.jpg,stim_fb/negf.jpg,stim_fb/posf.jpg,stim_03/a.jpg,stim_03/b.jpg,2,1,j,5,12,312,10,j,1,0.483217933699,03,02,60.0221594722,PLT_learning_3,A,2014_Mrz_26_1319,P27,
stim_fb/ques.jpg,stim_fb/posf.jpg,stim_fb/negf.jpg,stim_03/b.jpg,stim_03/a.jpg,1,1,f,5,13,313,8,f,1,0.633147865054,03,02,60.0221594722,PLT_learning_3,A,2014_Mrz_26_1319,P27,
stim_fb/ques.jpg,stim_fb/posf.jpg,stim_fb/negf.jpg,stim_03/c.jpg,stim_03/d.jpg,2,2,j,5,14,314,39,j,1,0.583182412163,03,02,60.0221594722,PLT_learning_3,A,2014_Mrz_26_1319,P27,
stim_fb/ques.jpg,stim_fb/posf.jpg,stim_fb/negf.jpg,stim_03/e.jpg,stim_03/f.jpg,2,3,j,5,15,315,58,j,1,0.699833228322,03,02,60.0221594722,PLT_learning_3,A,2014_Mrz_26_1319,P27,
stim_fb/ques.jpg,stim_fb/negf.jpg,stim_fb/posf.jpg,stim_03/b.jpg,stim_03/a.jpg,1,1,f,5,16,316,2,f,1,0.616511975099,03,02,60.0221594722,PLT_learning_3,A,2014_Mrz_26_1319,P27,
stim_fb/ques.jpg,stim_fb/negf.jpg,stim_fb/posf.jpg,stim_03/f.jpg,stim_03/e.jpg,1,3,f,5,17,317,43,f,1,0.599801763896,03,02,60.0221594722,PLT_learning_3,A,2014_Mrz_26_1319,P27,
stim_fb/ques.jpg,stim_fb/negf.jpg,stim_fb/posf.jpg,stim_03/a.jpg,stim_03/b.jpg,2,1,j,5,18,318,16,j,1,0.733156087546,03,02,60.0221594722,PLT_learning_3,A,2014_Mrz_26_1319,P27,
stim_fb/ques.jpg,stim_fb/posf.jpg,stim_fb/negf.jpg,stim_03/e.jpg,stim_03/f.jpg,2,3,j,5,19,319,57,j,1,0.766461109313,03,02,60.0221594722,PLT_learning_3,A,2014_Mrz_26_1319,P27,
stim_fb/ques.jpg,stim_fb/negf.jpg,stim_fb/posf.jpg,stim_03/e.jpg,stim_03/f.jpg,2,3,j,5,20,320,52,j,1,0.733157001825,03,02,60.0221594722,PLT_learning_3,A,2014_Mrz_26_1319,P27,
stim_fb/ques.jpg,stim_fb/negf.jpg,stim_fb/posf.jpg,stim_03/d.jpg,stim_03/c.jpg,1,2,f,5,21,321,26,f,1,0.949739298201,03,02,60.0221594722,PLT_learning_3,A,2014_Mrz_26_1319,P27,
stim_fb/ques.jpg,stim_fb/negf.jpg,stim_fb/posf.jpg,stim_03/c.jpg,stim_03/d.jpg,2,2,j,5,22,322,33,j,1,0.683142848553,03,02,60.0221594722,PLT_learning_3,A,2014_Mrz_26_1319,P27,
stim_fb/ques.jpg,stim_fb/posf.jpg,stim_fb/negf.jpg,stim_03/c.jpg,stim_03/d.jpg,2,2,j,5,23,323,38,j,1,0.616541030518,03,02,60.0221594722,PLT_learning_3,A,2014_Mrz_26_1319,P27,
stim_fb/ques.jpg,stim_fb/posf.jpg,stim_fb/negf.jpg,stim_03/a.jpg,stim_03/b.jpg,2,1,j,5,24,324,19,j,1,0.78310675258,03,02,60.0221594722,PLT_learning_3,A,2014_Mrz_26_1319,P27,
stim_fb/ques.jpg,stim_fb/negf.jpg,stim_fb/posf.jpg,stim_03/a.jpg,stim_03/b.jpg,2,1,j,5,25,325,14,j,1,0.499876124239,03,02,60.0221594722,PLT_learning_3,A,2014_Mrz_26_1319,P27,
stim_fb/ques.jpg,stim_fb/negf.jpg,stim_fb/posf.jpg,stim_03/b.jpg,stim_03/a.jpg,1,1,f,5,26,326,0,f,1,0.549879823462,03,02,60.0221594722,PLT_learning_3,A,2014_Mrz_26_1319,P27,
stim_fb/ques.jpg,stim_fb/posf.jpg,stim_fb/negf.jpg,stim_03/e.jpg,stim_03/f.jpg,2,3,j,5,27,327,59,j,1,0.816445046275,03,02,60.0221594722,PLT_learning_3,A,2014_Mrz_26_1319,P27,
stim_fb/ques.jpg,stim_fb/posf.jpg,stim_fb/negf.jpg,stim_03/d.jpg,stim_03/c.jpg,1,2,f,5,28,328,27,f,1,0.6164958068,03,02,60.0221594722,PLT_learning_3,A,2014_Mrz_26_1319,P27,
stim_fb/ques.jpg,stim_fb/negf.jpg,stim_fb/posf.jpg,stim_03/a.jpg,stim_03/b.jpg,2,1,j,5,29,329,11,j,1,0.516534143353,03,02,60.0221594722,PLT_learning_3,A,2014_Mrz_26_1319,P27,
stim_fb/ques.jpg,stim_fb/posf.jpg,stim_fb/negf.jpg,stim_03/e.jpg,stim_03/f.jpg,2,3,j,5,30,330,56,j,1,0.883100833831,03,02,60.0221594722,PLT_learning_3,A,2014_Mrz_26_1319,P27,
stim_fb/ques.jpg,stim_fb/negf.jpg,stim_fb/posf.jpg,stim_03/b.jpg,stim_03/a.jpg,1,1,f,5,31,331,5,f,1,0.683108869856,03,02,60.0221594722,PLT_learning_3,A,2014_Mrz_26_1319,P27,
stim_fb/ques.jpg,stim_fb/negf.jpg,stim_fb/posf.jpg,stim_03/d.jpg,stim_03/c.jpg,1,2,f,5,32,332,23,f,1,0.733137023031,03,02,60.0221594722,PLT_learning_3,A,2014_Mrz_26_1319,P27,
stim_fb/ques.jpg,stim_fb/negf.jpg,stim_fb/posf.jpg,stim_03/e.jpg,stim_03/f.jpg,2,3,j,5,33,333,55,j,1,0.716498248883,03,02,60.0221594722,PLT_learning_3,A,2014_Mrz_26_1319,P27,
stim_fb/ques.jpg,stim_fb/negf.jpg,stim_fb/posf.jpg,stim_03/d.jpg,stim_03/c.jpg,1,2,f,5,34,334,21,f,1,0.583185723415,03,02,60.0221594722,PLT_learning_3,A,2014_Mrz_26_1319,P27,
stim_fb/ques.jpg,stim_fb/negf.jpg,stim_fb/posf.jpg,stim_03/d.jpg,stim_03/c.jpg,1,2,f,5,35,335,20,f,1,0.633143122232,03,02,60.0221594722,PLT_learning_3,A,2014_Mrz_26_1319,P27,
stim_fb/ques.jpg,stim_fb/negf.jpg,stim_fb/posf.jpg,stim_03/e.jpg,stim_03/f.jpg,2,3,j,5,36,336,50,j,1,0.666477012954,03,02,60.0221594722,PLT_learning_3,A,2014_Mrz_26_1319,P27,
stim_fb/ques.jpg,stim_fb/negf.jpg,stim_fb/posf.jpg,stim_03/f.jpg,stim_03/e.jpg,1,3,f,5,37,337,41,f,1,0.933092788779,03,02,60.0221594722,PLT_learning_3,A,2014_Mrz_26_1319,P27,
stim_fb/ques.jpg,stim_fb/negf.jpg,stim_fb/posf.jpg,stim_03/a.jpg,stim_03/b.jpg,2,1,j,5,38,338,13,j,1,0.866440495938,03,02,60.0221594722,PLT_learning_3,A,2014_Mrz_26_1319,P27,
stim_fb/ques.jpg,stim_fb/posf.jpg,stim_fb/negf.jpg,stim_03/f.jpg,stim_03/e.jpg,1,3,f,5,39,339,48,f,1,0.583193585011,03,02,60.0221594722,PLT_learning_3,A,2014_Mrz_26_1319,P27,
stim_fb/ques.jpg,stim_fb/posf.jpg,stim_fb/negf.jpg,stim_03/f.jpg,stim_03/e.jpg,1,3,f,5,40,340,47,f,1,0.816417398368,03,02,60.0221594722,PLT_learning_3,A,2014_Mrz_26_1319,P27,
stim_fb/ques.jpg,stim_fb/negf.jpg,stim_fb/posf.jpg,stim_03/c.jpg,stim_03/d.jpg,2,2,j,5,41,341,32,j,1,0.699789974511,03,02,60.0221594722,PLT_learning_3,A,2014_Mrz_26_1319,P27,
stim_fb/ques.jpg,stim_fb/negf.jpg,stim_fb/posf.jpg,stim_03/c.jpg,stim_03/d.jpg,2,2,j,5,42,342,30,j,1,0.883097663926,03,02,60.0221594722,PLT_learning_3,A,2014_Mrz_26_1319,P27,
stim_fb/ques.jpg,stim_fb/negf.jpg,stim_fb/posf.jpg,stim_03/d.jpg,stim_03/c.jpg,1,2,f,5,43,343,25,f,1,0.649854410116,03,02,60.0221594722,PLT_learning_3,A,2014_Mrz_26_1319,P27,
stim_fb/ques.jpg,stim_fb/negf.jpg,stim_fb/posf.jpg,stim_03/b.jpg,stim_03/a.jpg,1,1,f,5,44,344,4,f,1,0.666497193255,03,02,60.0221594722,PLT_learning_3,A,2014_Mrz_26_1319,P27,
stim_fb/ques.jpg,stim_fb/negf.jpg,stim_fb/posf.jpg,stim_03/c.jpg,stim_03/d.jpg,2,2,j,5,45,345,35,j,1,0.499892178254,03,02,60.0221594722,PLT_learning_3,A,2014_Mrz_26_1319,P27,
stim_fb/ques.jpg,stim_fb/posf.jpg,stim_fb/negf.jpg,stim_03/f.jpg,stim_03/e.jpg,1,3,f,5,46,346,46,f,1,0.749764726581,03,02,60.0221594722,PLT_learning_3,A,2014_Mrz_26_1319,P27,
stim_fb/ques.jpg,stim_fb/negf.jpg,stim_fb/posf.jpg,stim_03/f.jpg,stim_03/e.jpg,1,3,f,5,47,347,45,f,1,0.78314538387,03,02,60.0221594722,PLT_learning_3,A,2014_Mrz_26_1319,P27,
stim_fb/ques.jpg,stim_fb/negf.jpg,stim_fb/posf.jpg,stim_03/f.jpg,stim_03/e.jpg,1,3,f,5,48,348,44,f,1,0.716461503296,03,02,60.0221594722,PLT_learning_3,A,2014_Mrz_26_1319,P27,
stim_fb/ques.jpg,stim_fb/negf.jpg,stim_fb/posf.jpg,stim_03/d.jpg,stim_03/c.jpg,1,2,f,5,49,349,24,f,1,0.58317429493,03,02,60.0221594722,PLT_learning_3,A,2014_Mrz_26_1319,P27,
stim_fb/ques.jpg,stim_fb/posf.jpg,stim_fb/negf.jpg,stim_03/f.jpg,stim_03/e.jpg,1,3,f,5,50,350,49,f,1,0.583195591011,03,02,60.0221594722,PLT_learning_3,A,2014_Mrz_26_1319,P27,
stim_fb/ques.jpg,stim_fb/negf.jpg,stim_fb/posf.jpg,stim_03/a.jpg,stim_03/b.jpg,2,1,j,5,51,351,12,j,1,0.883092322616,03,02,60.0221594722,PLT_learning_3,A,2014_Mrz_26_1319,P27,
stim_fb/ques.jpg,stim_fb/posf.jpg,stim_fb/negf.jpg,stim_03/a.jpg,stim_03/b.jpg,2,1,j,5,52,352,18,j,1,0.716498823316,03,02,60.0221594722,PLT_learning_3,A,2014_Mrz_26_1319,P27,
stim_fb/ques.jpg,stim_fb/negf.jpg,stim_fb/posf.jpg,stim_03/c.jpg,stim_03/d.jpg,2,2,j,5,53,353,36,j,1,0.649831144125,03,02,60.0221594722,PLT_learning_3,A,2014_Mrz_26_1319,P27,
stim_fb/ques.jpg,stim_fb/negf.jpg,stim_fb/posf.jpg,stim_03/e.jpg,stim_03/f.jpg,2,3,j,5,54,354,54,j,1,0.666497304534,03,02,60.0221594722,PLT_learning_3,A,2014_Mrz_26_1319,P27,
stim_fb/ques.jpg,stim_fb/negf.jpg,stim_fb/posf.jpg,stim_03/e.jpg,stim_03/f.jpg,2,3,j,5,55,355,51,j,1,0.71647979489,03,02,60.0221594722,PLT_learning_3,A,2014_Mrz_26_1319,P27,
stim_fb/ques.jpg,stim_fb/posf.jpg,stim_fb/negf.jpg,stim_03/d.jpg,stim_03/c.jpg,1,2,f,5,56,356,29,f,1,0.583184460269,03,02,60.0221594722,PLT_learning_3,A,2014_Mrz_26_1319,P27,
stim_fb/ques.jpg,stim_fb/negf.jpg,stim_fb/posf.jpg,stim_03/c.jpg,stim_03/d.jpg,2,2,j,5,57,357,34,f,0,0.583192562463,03,02,60.0221594722,PLT_learning_3,A,2014_Mrz_26_1319,P27,
stim_fb/ques.jpg,stim_fb/negf.jpg,stim_fb/posf.jpg,stim_03/d.jpg,stim_03/c.jpg,1,2,f,5,58,358,22,f,1,0.699861883746,03,02,60.0221594722,PLT_learning_3,A,2014_Mrz_26_1319,P27,
stim_fb/ques.jpg,stim_fb/posf.jpg,stim_fb/negf.jpg,stim_03/b.jpg,stim_03/a.jpg,1,1,f,5,59,359,9,f,1,0.583175106953,03,02,60.0221594722,PLT_learning_3,A,2014_Mrz_26_1319,P27,
