Fb3,Fb2,Fb1,Symbol2,Symbol1,PosCond,Pair,Correct,trials.thisRepN,trials.thisTrialN,trials.thisN,trials.thisIndex,Response.keys,Response.corr,Response.rt,Version,Session Number,frameRate,expName,StimCondition,date,Participant,
stim_fb/ques.jpg,stim_fb/negf.jpg,stim_fb/posf.jpg,stim_02/f.jpg,stim_02/e.jpg,1,3,f,0,0,0,41,j,0,0.916415887041,02,03,60.0208129981,PLT_learning_02,A,2014_Mrz_28_1330,P28,
stim_fb/ques.jpg,stim_fb/negf.jpg,stim_fb/posf.jpg,stim_02/a.jpg,stim_02/b.jpg,2,1,j,0,1,1,12,f,0,0.916452325728,02,03,60.0208129981,PLT_learning_02,A,2014_Mrz_28_1330,P28,
stim_fb/ques.jpg,stim_fb/posf.jpg,stim_fb/negf.jpg,stim_02/d.jpg,stim_02/c.jpg,1,2,f,0,2,2,29,j,0,0.999702000354,02,03,60.0208129981,PLT_learning_02,A,2014_Mrz_28_1330,P28,
stim_fb/ques.jpg,stim_fb/negf.jpg,stim_fb/posf.jpg,stim_02/e.jpg,stim_02/f.jpg,2,3,j,0,3,3,51,j,1,0.933059732408,02,03,60.0208129981,PLT_learning_02,A,2014_Mrz_28_1330,P28,
stim_fb/ques.jpg,stim_fb/negf.jpg,stim_fb/posf.jpg,stim_02/f.jpg,stim_02/e.jpg,1,3,f,0,4,4,42,f,1,0.733128709075,02,03,60.0208129981,PLT_learning_02,A,2014_Mrz_28_1330,P28,
stim_fb/ques.jpg,stim_fb/posf.jpg,stim_fb/negf.jpg,stim_02/f.jpg,stim_02/e.jpg,1,3,f,0,5,5,49,f,1,0.966405404452,02,03,60.0208129981,PLT_learning_02,A,2014_Mrz_28_1330,P28,
stim_fb/ques.jpg,stim_fb/negf.jpg,stim_fb/posf.jpg,stim_02/a.jpg,stim_02/b.jpg,2,1,j,0,6,6,17,f,0,1.29957769198,02,03,60.0208129981,PLT_learning_02,A,2014_Mrz_28_1330,P28,
stim_fb/ques.jpg,stim_fb/negf.jpg,stim_fb/posf.jpg,stim_02/d.jpg,stim_02/c.jpg,1,2,f,0,7,7,22,f,1,1.01638155961,02,03,60.0208129981,PLT_learning_02,A,2014_Mrz_28_1330,P28,
stim_fb/ques.jpg,stim_fb/negf.jpg,stim_fb/posf.jpg,stim_02/c.jpg,stim_02/d.jpg,2,2,j,0,8,8,34,f,0,1.08301001418,02,03,60.0208129981,PLT_learning_02,A,2014_Mrz_28_1330,P28,
stim_fb/ques.jpg,stim_fb/posf.jpg,stim_fb/negf.jpg,stim_02/c.jpg,stim_02/d.jpg,2,2,j,0,9,9,38,f,0,0.716418924596,02,03,60.0208129981,PLT_learning_02,A,2014_Mrz_28_1330,P28,
stim_fb/ques.jpg,stim_fb/posf.jpg,stim_fb/negf.jpg,stim_02/b.jpg,stim_02/a.jpg,1,1,f,0,10,10,8,f,1,1.18297956339,02,03,60.0208129981,PLT_learning_02,A,2014_Mrz_28_1330,P28,
stim_fb/ques.jpg,stim_fb/negf.jpg,stim_fb/posf.jpg,stim_02/a.jpg,stim_02/b.jpg,2,1,j,0,11,11,10,f,0,1.11634404724,02,03,60.0208129981,PLT_learning_02,A,2014_Mrz_28_1330,P28,
stim_fb/ques.jpg,stim_fb/negf.jpg,stim_fb/posf.jpg,stim_02/b.jpg,stim_02/a.jpg,1,1,f,0,12,12,7,f,1,0.949713643829,02,03,60.0208129981,PLT_learning_02,A,2014_Mrz_28_1330,P28,
stim_fb/ques.jpg,stim_fb/negf.jpg,stim_fb/posf.jpg,stim_02/d.jpg,stim_02/c.jpg,1,2,f,0,13,13,26,j,0,0.783143498382,02,03,60.0208129981,PLT_learning_02,A,2014_Mrz_28_1330,P28,
stim_fb/ques.jpg,stim_fb/posf.jpg,stim_fb/negf.jpg,stim_02/b.jpg,stim_02/a.jpg,1,1,f,0,14,14,9,f,1,0.849755420804,02,03,60.0208129981,PLT_learning_02,A,2014_Mrz_28_1330,P28,
stim_fb/ques.jpg,stim_fb/negf.jpg,stim_fb/posf.jpg,stim_02/d.jpg,stim_02/c.jpg,1,2,f,0,15,15,24,j,0,0.733128766216,02,03,60.0208129981,PLT_learning_02,A,2014_Mrz_28_1330,P28,
stim_fb/ques.jpg,stim_fb/negf.jpg,stim_fb/posf.jpg,stim_02/c.jpg,stim_02/d.jpg,2,2,j,0,16,16,36,f,0,0.766467797734,02,03,60.0208129981,PLT_learning_02,A,2014_Mrz_28_1330,P28,
stim_fb/ques.jpg,stim_fb/negf.jpg,stim_fb/posf.jpg,stim_02/d.jpg,stim_02/c.jpg,1,2,f,0,17,17,21,j,0,0.716500274055,02,03,60.0208129981,PLT_learning_02,A,2014_Mrz_28_1330,P28,
stim_fb/ques.jpg,stim_fb/negf.jpg,stim_fb/posf.jpg,stim_02/f.jpg,stim_02/e.jpg,1,3,f,0,18,18,40,f,1,0.849766407144,02,03,60.0208129981,PLT_learning_02,A,2014_Mrz_28_1330,P28,
stim_fb/ques.jpg,stim_fb/negf.jpg,stim_fb/posf.jpg,stim_02/e.jpg,stim_02/f.jpg,2,3,j,0,19,19,50,j,1,0.916430792135,02,03,60.0208129981,PLT_learning_02,A,2014_Mrz_28_1330,P28,
stim_fb/ques.jpg,stim_fb/negf.jpg,stim_fb/posf.jpg,stim_02/b.jpg,stim_02/a.jpg,1,1,f,0,20,20,5,f,1,1.4495358293,02,03,60.0208129981,PLT_learning_02,A,2014_Mrz_28_1330,P28,
stim_fb/ques.jpg,stim_fb/negf.jpg,stim_fb/posf.jpg,stim_02/c.jpg,stim_02/d.jpg,2,2,j,0,21,21,33,f,0,1.14965680538,02,03,60.0208129981,PLT_learning_02,A,2014_Mrz_28_1330,P28,
stim_fb/ques.jpg,stim_fb/posf.jpg,stim_fb/negf.jpg,stim_02/f.jpg,stim_02/e.jpg,1,3,f,0,22,22,48,f,1,0.899792549706,02,03,60.0208129981,PLT_learning_02,A,2014_Mrz_28_1330,P28,
stim_fb/ques.jpg,stim_fb/posf.jpg,stim_fb/negf.jpg,stim_02/e.jpg,stim_02/f.jpg,2,3,j,0,23,23,56,j,1,0.883044152131,02,03,60.0208129981,PLT_learning_02,A,2014_Mrz_28_1330,P28,
stim_fb/ques.jpg,stim_fb/negf.jpg,stim_fb/posf.jpg,stim_02/c.jpg,stim_02/d.jpg,2,2,j,0,24,24,35,j,1,1.09967163678,02,03,60.0208129981,PLT_learning_02,A,2014_Mrz_28_1330,P28,
stim_fb/ques.jpg,stim_fb/negf.jpg,stim_fb/posf.jpg,stim_02/f.jpg,stim_02/e.jpg,1,3,f,0,25,25,45,f,1,1.03308211712,02,03,60.0208129981,PLT_learning_02,A,2014_Mrz_28_1330,P28,
stim_fb/ques.jpg,stim_fb/negf.jpg,stim_fb/posf.jpg,stim_02/a.jpg,stim_02/b.jpg,2,1,j,0,26,26,16,j,1,0.849740681122,02,03,60.0208129981,PLT_learning_02,A,2014_Mrz_28_1330,P28,
stim_fb/ques.jpg,stim_fb/negf.jpg,stim_fb/posf.jpg,stim_02/e.jpg,stim_02/f.jpg,2,3,j,0,27,27,53,j,1,0.94971433856,02,03,60.0208129981,PLT_learning_02,A,2014_Mrz_28_1330,P28,
stim_fb/ques.jpg,stim_fb/posf.jpg,stim_fb/negf.jpg,stim_02/a.jpg,stim_02/b.jpg,2,1,j,0,28,28,18,j,1,0.816359018507,02,03,60.0208129981,PLT_learning_02,A,2014_Mrz_28_1330,P28,
stim_fb/ques.jpg,stim_fb/negf.jpg,stim_fb/posf.jpg,stim_02/e.jpg,stim_02/f.jpg,2,3,j,0,29,29,55,j,1,0.966357486195,02,03,60.0208129981,PLT_learning_02,A,2014_Mrz_28_1330,P28,
stim_fb/ques.jpg,stim_fb/posf.jpg,stim_fb/negf.jpg,stim_02/d.jpg,stim_02/c.jpg,1,2,f,0,30,30,28,j,0,1.23299477976,02,03,60.0208129981,PLT_learning_02,A,2014_Mrz_28_1330,P28,
stim_fb/ques.jpg,stim_fb/posf.jpg,stim_fb/negf.jpg,stim_02/c.jpg,stim_02/d.jpg,2,2,j,0,31,31,39,f,0,1.48287012402,02,03,60.0208129981,PLT_learning_02,A,2014_Mrz_28_1330,P28,
stim_fb/ques.jpg,stim_fb/posf.jpg,stim_fb/negf.jpg,stim_02/e.jpg,stim_02/f.jpg,2,3,j,0,32,32,59,j,1,0.783091393707,02,03,60.0208129981,PLT_learning_02,A,2014_Mrz_28_1330,P28,
stim_fb/ques.jpg,stim_fb/negf.jpg,stim_fb/posf.jpg,stim_02/f.jpg,stim_02/e.jpg,1,3,f,0,33,33,44,f,1,0.649818265207,02,03,60.0208129981,PLT_learning_02,A,2014_Mrz_28_1330,P28,
stim_fb/ques.jpg,stim_fb/negf.jpg,stim_fb/posf.jpg,stim_02/f.jpg,stim_02/e.jpg,1,3,f,0,34,34,43,f,1,0.749788978319,02,03,60.0208129981,PLT_learning_02,A,2014_Mrz_28_1330,P28,
stim_fb/ques.jpg,stim_fb/negf.jpg,stim_fb/posf.jpg,stim_02/c.jpg,stim_02/d.jpg,2,2,j,0,35,35,30,f,0,1.33296345379,02,03,60.0208129981,PLT_learning_02,A,2014_Mrz_28_1330,P28,
stim_fb/ques.jpg,stim_fb/negf.jpg,stim_fb/posf.jpg,stim_02/b.jpg,stim_02/a.jpg,1,1,f,0,36,36,4,f,1,0.899731260171,02,03,60.0208129981,PLT_learning_02,A,2014_Mrz_28_1330,P28,
stim_fb/ques.jpg,stim_fb/negf.jpg,stim_fb/posf.jpg,stim_02/e.jpg,stim_02/f.jpg,2,3,j,0,37,37,52,j,1,0.733155884707,02,03,60.0208129981,PLT_learning_02,A,2014_Mrz_28_1330,P28,
stim_fb/ques.jpg,stim_fb/posf.jpg,stim_fb/negf.jpg,stim_02/a.jpg,stim_02/b.jpg,2,1,j,0,38,38,19,j,1,0.799782080656,02,03,60.0208129981,PLT_learning_02,A,2014_Mrz_28_1330,P28,
stim_fb/ques.jpg,stim_fb/negf.jpg,stim_fb/posf.jpg,stim_02/d.jpg,stim_02/c.jpg,1,2,f,0,39,39,20,f,1,1.54954349838,02,03,60.0208129981,PLT_learning_02,A,2014_Mrz_28_1330,P28,
stim_fb/ques.jpg,stim_fb/negf.jpg,stim_fb/posf.jpg,stim_02/a.jpg,stim_02/b.jpg,2,1,j,0,40,40,14,j,1,0.849754500512,02,03,60.0208129981,PLT_learning_02,A,2014_Mrz_28_1330,P28,
stim_fb/ques.jpg,stim_fb/negf.jpg,stim_fb/posf.jpg,stim_02/b.jpg,stim_02/a.jpg,1,1,f,0,41,41,3,f,1,1.04966198125,02,03,60.0208129981,PLT_learning_02,A,2014_Mrz_28_1330,P28,
stim_fb/ques.jpg,stim_fb/posf.jpg,stim_fb/negf.jpg,stim_02/f.jpg,stim_02/e.jpg,1,3,f,0,42,42,46,f,1,0.899745497609,02,03,60.0208129981,PLT_learning_02,A,2014_Mrz_28_1330,P28,
stim_fb/ques.jpg,stim_fb/posf.jpg,stim_fb/negf.jpg,stim_02/e.jpg,stim_02/f.jpg,2,3,j,0,43,43,58,None,0,,02,03,60.0208129981,PLT_learning_02,A,2014_Mrz_28_1330,P28,
stim_fb/ques.jpg,stim_fb/posf.jpg,stim_fb/negf.jpg,stim_02/f.jpg,stim_02/e.jpg,1,3,f,0,44,44,47,f,1,0.566533042107,02,03,60.0208129981,PLT_learning_02,A,2014_Mrz_28_1330,P28,
stim_fb/ques.jpg,stim_fb/negf.jpg,stim_fb/posf.jpg,stim_02/c.jpg,stim_02/d.jpg,2,2,j,0,45,45,32,f,0,1.13301148935,02,03,60.0208129981,PLT_learning_02,A,2014_Mrz_28_1330,P28,
stim_fb/ques.jpg,stim_fb/negf.jpg,stim_fb/posf.jpg,stim_02/d.jpg,stim_02/c.jpg,1,2,f,0,46,46,23,f,1,1.24962492604,02,03,60.0208129981,PLT_learning_02,A,2014_Mrz_28_1330,P28,
stim_fb/ques.jpg,stim_fb/negf.jpg,stim_fb/posf.jpg,stim_02/c.jpg,stim_02/d.jpg,2,2,j,0,47,47,31,f,0,1.18297256196,02,03,60.0208129981,PLT_learning_02,A,2014_Mrz_28_1330,P28,
stim_fb/ques.jpg,stim_fb/negf.jpg,stim_fb/posf.jpg,stim_02/b.jpg,stim_02/a.jpg,1,1,f,0,48,48,2,j,0,0.916414684045,02,03,60.0208129981,PLT_learning_02,A,2014_Mrz_28_1330,P28,
stim_fb/ques.jpg,stim_fb/posf.jpg,stim_fb/negf.jpg,stim_02/d.jpg,stim_02/c.jpg,1,2,f,0,49,49,27,f,1,0.816449324255,02,03,60.0208129981,PLT_learning_02,A,2014_Mrz_28_1330,P28,
stim_fb/ques.jpg,stim_fb/negf.jpg,stim_fb/posf.jpg,stim_02/e.jpg,stim_02/f.jpg,2,3,j,0,50,50,54,j,1,1.01636225757,02,03,60.0208129981,PLT_learning_02,A,2014_Mrz_28_1330,P28,
stim_fb/ques.jpg,stim_fb/posf.jpg,stim_fb/negf.jpg,stim_02/c.jpg,stim_02/d.jpg,2,2,j,0,51,51,37,j,1,0.73312807149,02,03,60.0208129981,PLT_learning_02,A,2014_Mrz_28_1330,P28,
stim_fb/ques.jpg,stim_fb/negf.jpg,stim_fb/posf.jpg,stim_02/b.jpg,stim_02/a.jpg,1,1,f,0,52,52,0,f,1,0.716501807874,02,03,60.0208129981,PLT_learning_02,A,2014_Mrz_28_1330,P28,
stim_fb/ques.jpg,stim_fb/negf.jpg,stim_fb/posf.jpg,stim_02/a.jpg,stim_02/b.jpg,2,1,j,0,53,53,11,f,0,0.96640648113,02,03,60.0208129981,PLT_learning_02,A,2014_Mrz_28_1330,P28,
stim_fb/ques.jpg,stim_fb/negf.jpg,stim_fb/posf.jpg,stim_02/d.jpg,stim_02/c.jpg,1,2,f,0,54,54,25,j,0,1.19965533923,02,03,60.0208129981,PLT_learning_02,A,2014_Mrz_28_1330,P28,
stim_fb/ques.jpg,stim_fb/negf.jpg,stim_fb/posf.jpg,stim_02/a.jpg,stim_02/b.jpg,2,1,j,0,55,55,13,j,1,0.983041761185,02,03,60.0208129981,PLT_learning_02,A,2014_Mrz_28_1330,P28,
stim_fb/ques.jpg,stim_fb/negf.jpg,stim_fb/posf.jpg,stim_02/b.jpg,stim_02/a.jpg,1,1,f,0,56,56,1,f,1,0.58317943482,02,03,60.0208129981,PLT_learning_02,A,2014_Mrz_28_1330,P28,
stim_fb/ques.jpg,stim_fb/negf.jpg,stim_fb/posf.jpg,stim_02/a.jpg,stim_02/b.jpg,2,1,j,0,57,57,15,j,1,0.64981358857,02,03,60.0208129981,PLT_learning_02,A,2014_Mrz_28_1330,P28,
stim_fb/ques.jpg,stim_fb/negf.jpg,stim_fb/posf.jpg,stim_02/b.jpg,stim_02/a.jpg,1,1,f,0,58,58,6,f,1,0.783118385883,02,03,60.0208129981,PLT_learning_02,A,2014_Mrz_28_1330,P28,
stim_fb/ques.jpg,stim_fb/posf.jpg,stim_fb/negf.jpg,stim_02/e.jpg,stim_02/f.jpg,2,3,j,0,59,59,57,j,1,1.1329867197,02,03,60.0208129981,PLT_learning_02,A,2014_Mrz_28_1330,P28,
stim_fb/ques.jpg,stim_fb/negf.jpg,stim_fb/posf.jpg,stim_02/b.jpg,stim_02/a.jpg,1,1,f,1,0,60,6,f,1,0.633165289113,02,03,60.0208129981,PLT_learning_02,A,2014_Mrz_28_1330,P28,
stim_fb/ques.jpg,stim_fb/posf.jpg,stim_fb/negf.jpg,stim_02/d.jpg,stim_02/c.jpg,1,2,f,1,1,61,29,f,1,0.499776429588,02,03,60.0208129981,PLT_learning_02,A,2014_Mrz_28_1330,P28,
stim_fb/ques.jpg,stim_fb/negf.jpg,stim_fb/posf.jpg,stim_02/d.jpg,stim_02/c.jpg,1,2,f,1,2,62,21,j,0,0.816419580227,02,03,60.0208129981,PLT_learning_02,A,2014_Mrz_28_1330,P28,
stim_fb/ques.jpg,stim_fb/posf.jpg,stim_fb/negf.jpg,stim_02/a.jpg,stim_02/b.jpg,2,1,j,1,3,63,18,j,1,0.816409192375,02,03,60.0208129981,PLT_learning_02,A,2014_Mrz_28_1330,P28,
stim_fb/ques.jpg,stim_fb/negf.jpg,stim_fb/posf.jpg,stim_02/d.jpg,stim_02/c.jpg,1,2,f,1,4,64,20,j,0,0.733142699894,02,03,60.0208129981,PLT_learning_02,A,2014_Mrz_28_1330,P28,
stim_fb/ques.jpg,stim_fb/negf.jpg,stim_fb/posf.jpg,stim_02/c.jpg,stim_02/d.jpg,2,2,j,1,5,65,36,f,0,0.816378449868,02,03,60.0208129981,PLT_learning_02,A,2014_Mrz_28_1330,P28,
stim_fb/ques.jpg,stim_fb/posf.jpg,stim_fb/negf.jpg,stim_02/f.jpg,stim_02/e.jpg,1,3,f,1,6,66,46,f,1,0.966328358703,02,03,60.0208129981,PLT_learning_02,A,2014_Mrz_28_1330,P28,
stim_fb/ques.jpg,stim_fb/posf.jpg,stim_fb/negf.jpg,stim_02/f.jpg,stim_02/e.jpg,1,3,f,1,7,67,47,j,0,0.916400747363,02,03,60.0208129981,PLT_learning_02,A,2014_Mrz_28_1330,P28,
stim_fb/ques.jpg,stim_fb/posf.jpg,stim_fb/negf.jpg,stim_02/e.jpg,stim_02/f.jpg,2,3,j,1,8,68,58,f,0,0.833116772366,02,03,60.0208129981,PLT_learning_02,A,2014_Mrz_28_1330,P28,
stim_fb/ques.jpg,stim_fb/negf.jpg,stim_fb/posf.jpg,stim_02/b.jpg,stim_02/a.jpg,1,1,f,1,9,69,0,f,1,0.633163295151,02,03,60.0208129981,PLT_learning_02,A,2014_Mrz_28_1330,P28,
stim_fb/ques.jpg,stim_fb/negf.jpg,stim_fb/posf.jpg,stim_02/d.jpg,stim_02/c.jpg,1,2,f,1,10,70,23,f,1,1.23298004308,02,03,60.0208129981,PLT_learning_02,A,2014_Mrz_28_1330,P28,
stim_fb/ques.jpg,stim_fb/negf.jpg,stim_fb/posf.jpg,stim_02/f.jpg,stim_02/e.jpg,1,3,f,1,11,71,40,j,0,0.799796318086,02,03,60.0208129981,PLT_learning_02,A,2014_Mrz_28_1330,P28,
stim_fb/ques.jpg,stim_fb/posf.jpg,stim_fb/negf.jpg,stim_02/f.jpg,stim_02/e.jpg,1,3,f,1,12,72,49,j,0,0.566539836018,02,03,60.0208129981,PLT_learning_02,A,2014_Mrz_28_1330,P28,
stim_fb/ques.jpg,stim_fb/negf.jpg,stim_fb/posf.jpg,stim_02/c.jpg,stim_02/d.jpg,2,2,j,1,13,73,31,j,1,0.849746723157,02,03,60.0208129981,PLT_learning_02,A,2014_Mrz_28_1330,P28,
stim_fb/ques.jpg,stim_fb/negf.jpg,stim_fb/posf.jpg,stim_02/c.jpg,stim_02/d.jpg,2,2,j,1,14,74,34,j,1,0.699837815362,02,03,60.0208129981,PLT_learning_02,A,2014_Mrz_28_1330,P28,
stim_fb/ques.jpg,stim_fb/negf.jpg,stim_fb/posf.jpg,stim_02/c.jpg,stim_02/d.jpg,2,2,j,1,15,75,35,j,1,1.01639603463,02,03,60.0208129981,PLT_learning_02,A,2014_Mrz_28_1330,P28,
stim_fb/ques.jpg,stim_fb/negf.jpg,stim_fb/posf.jpg,stim_02/c.jpg,stim_02/d.jpg,2,2,j,1,16,76,33,j,1,0.69980685932,02,03,60.0208129981,PLT_learning_02,A,2014_Mrz_28_1330,P28,
stim_fb/ques.jpg,stim_fb/negf.jpg,stim_fb/posf.jpg,stim_02/c.jpg,stim_02/d.jpg,2,2,j,1,17,77,30,j,1,0.483234589083,02,03,60.0208129981,PLT_learning_02,A,2014_Mrz_28_1330,P28,
stim_fb/ques.jpg,stim_fb/negf.jpg,stim_fb/posf.jpg,stim_02/b.jpg,stim_02/a.jpg,1,1,f,1,18,78,3,f,1,0.716499483089,02,03,60.0208129981,PLT_learning_02,A,2014_Mrz_28_1330,P28,
stim_fb/ques.jpg,stim_fb/posf.jpg,stim_fb/negf.jpg,stim_02/c.jpg,stim_02/d.jpg,2,2,j,1,19,79,39,j,1,0.816408305171,02,03,60.0208129981,PLT_learning_02,A,2014_Mrz_28_1330,P28,
stim_fb/ques.jpg,stim_fb/posf.jpg,stim_fb/negf.jpg,stim_02/c.jpg,stim_02/d.jpg,2,2,j,1,20,80,37,j,1,0.749799318051,02,03,60.0208129981,PLT_learning_02,A,2014_Mrz_28_1330,P28,
stim_fb/ques.jpg,stim_fb/negf.jpg,stim_fb/posf.jpg,stim_02/f.jpg,stim_02/e.jpg,1,3,f,1,21,81,43,j,0,0.616505675498,02,03,60.0208129981,PLT_learning_02,A,2014_Mrz_28_1330,P28,
stim_fb/ques.jpg,stim_fb/negf.jpg,stim_fb/posf.jpg,stim_02/f.jpg,stim_02/e.jpg,1,3,f,1,22,82,42,j,0,0.599851349045,02,03,60.0208129981,PLT_learning_02,A,2014_Mrz_28_1330,P28,
stim_fb/ques.jpg,stim_fb/negf.jpg,stim_fb/posf.jpg,stim_02/a.jpg,stim_02/b.jpg,2,1,j,1,23,83,16,j,1,0.733143126956,02,03,60.0208129981,PLT_learning_02,A,2014_Mrz_28_1330,P28,
stim_fb/ques.jpg,stim_fb/negf.jpg,stim_fb/posf.jpg,stim_02/a.jpg,stim_02/b.jpg,2,1,j,1,24,84,13,j,1,0.583209765304,02,03,60.0208129981,PLT_learning_02,A,2014_Mrz_28_1330,P28,
stim_fb/ques.jpg,stim_fb/posf.jpg,stim_fb/negf.jpg,stim_02/f.jpg,stim_02/e.jpg,1,3,f,1,25,85,48,None,0,,02,03,60.0208129981,PLT_learning_02,A,2014_Mrz_28_1330,P28,
stim_fb/ques.jpg,stim_fb/negf.jpg,stim_fb/posf.jpg,stim_02/b.jpg,stim_02/a.jpg,1,1,f,1,26,86,5,j,0,0.266674968327,02,03,60.0208129981,PLT_learning_02,A,2014_Mrz_28_1330,P28,
stim_fb/ques.jpg,stim_fb/posf.jpg,stim_fb/negf.jpg,stim_02/d.jpg,stim_02/c.jpg,1,2,f,1,27,87,27,j,0,0.466520158043,02,03,60.0208129981,PLT_learning_02,A,2014_Mrz_28_1330,P28,
stim_fb/ques.jpg,stim_fb/negf.jpg,stim_fb/posf.jpg,stim_02/d.jpg,stim_02/c.jpg,1,2,f,1,28,88,25,j,0,0.766429347037,02,03,60.0208129981,PLT_learning_02,A,2014_Mrz_28_1330,P28,
stim_fb/ques.jpg,stim_fb/negf.jpg,stim_fb/posf.jpg,stim_02/f.jpg,stim_02/e.jpg,1,3,f,1,29,89,44,j,0,0.783082407343,02,03,60.0208129981,PLT_learning_02,A,2014_Mrz_28_1330,P28,
stim_fb/ques.jpg,stim_fb/negf.jpg,stim_fb/posf.jpg,stim_02/d.jpg,stim_02/c.jpg,1,2,f,1,30,90,22,j,0,0.483221016304,02,03,60.0208129981,PLT_learning_02,A,2014_Mrz_28_1330,P28,
stim_fb/ques.jpg,stim_fb/negf.jpg,stim_fb/posf.jpg,stim_02/a.jpg,stim_02/b.jpg,2,1,j,1,31,91,10,j,1,0.466568623662,02,03,60.0208129981,PLT_learning_02,A,2014_Mrz_28_1330,P28,
stim_fb/ques.jpg,stim_fb/posf.jpg,stim_fb/negf.jpg,stim_02/b.jpg,stim_02/a.jpg,1,1,f,1,32,92,8,j,0,0.599828468101,02,03,60.0208129981,PLT_learning_02,A,2014_Mrz_28_1330,P28,
stim_fb/ques.jpg,stim_fb/negf.jpg,stim_fb/posf.jpg,stim_02/c.jpg,stim_02/d.jpg,2,2,j,1,33,93,32,j,1,0.516502457493,02,03,60.0208129981,PLT_learning_02,A,2014_Mrz_28_1330,P28,
stim_fb/ques.jpg,stim_fb/posf.jpg,stim_fb/negf.jpg,stim_02/a.jpg,stim_02/b.jpg,2,1,j,1,34,94,19,j,1,0.316614399086,02,03,60.0208129981,PLT_learning_02,A,2014_Mrz_28_1330,P28,
stim_fb/ques.jpg,stim_fb/posf.jpg,stim_fb/negf.jpg,stim_02/c.jpg,stim_02/d.jpg,2,2,j,1,35,95,38,j,1,0.733130537625,02,03,60.0208129981,PLT_learning_02,A,2014_Mrz_28_1330,P28,
stim_fb/ques.jpg,stim_fb/posf.jpg,stim_fb/negf.jpg,stim_02/b.jpg,stim_02/a.jpg,1,1,f,1,36,96,9,f,1,1.06636955222,02,03,60.0208129981,PLT_learning_02,A,2014_Mrz_28_1330,P28,
stim_fb/ques.jpg,stim_fb/negf.jpg,stim_fb/posf.jpg,stim_02/e.jpg,stim_02/f.jpg,2,3,j,1,37,97,54,None,0,,02,03,60.0208129981,PLT_learning_02,A,2014_Mrz_28_1330,P28,
stim_fb/ques.jpg,stim_fb/negf.jpg,stim_fb/posf.jpg,stim_02/a.jpg,stim_02/b.jpg,2,1,j,1,38,98,11,None,0,,02,03,60.0208129981,PLT_learning_02,A,2014_Mrz_28_1330,P28,
stim_fb/ques.jpg,stim_fb/negf.jpg,stim_fb/posf.jpg,stim_02/e.jpg,stim_02/f.jpg,2,3,j,1,39,99,52,f,0,0.316614362997,02,03,60.0208129981,PLT_learning_02,A,2014_Mrz_28_1330,P28,
stim_fb/ques.jpg,stim_fb/negf.jpg,stim_fb/posf.jpg,stim_02/a.jpg,stim_02/b.jpg,2,1,j,1,40,100,15,f,0,0.53325832566,02,03,60.0208129981,PLT_learning_02,A,2014_Mrz_28_1330,P28,
stim_fb/ques.jpg,stim_fb/negf.jpg,stim_fb/posf.jpg,stim_02/d.jpg,stim_02/c.jpg,1,2,f,1,41,101,24,f,1,0.299985606176,02,03,60.0208129981,PLT_learning_02,A,2014_Mrz_28_1330,P28,
stim_fb/ques.jpg,stim_fb/negf.jpg,stim_fb/posf.jpg,stim_02/b.jpg,stim_02/a.jpg,1,1,f,1,42,102,4,f,1,0.983055845234,02,03,60.0208129981,PLT_learning_02,A,2014_Mrz_28_1330,P28,
stim_fb/ques.jpg,stim_fb/negf.jpg,stim_fb/posf.jpg,stim_02/e.jpg,stim_02/f.jpg,2,3,j,1,43,103,55,f,0,0.81643951685,02,03,60.0208129981,PLT_learning_02,A,2014_Mrz_28_1330,P28,
stim_fb/ques.jpg,stim_fb/negf.jpg,stim_fb/posf.jpg,stim_02/b.jpg,stim_02/a.jpg,1,1,f,1,44,104,1,f,1,0.299964526719,02,03,60.0208129981,PLT_learning_02,A,2014_Mrz_28_1330,P28,
stim_fb/ques.jpg,stim_fb/posf.jpg,stim_fb/negf.jpg,stim_02/e.jpg,stim_02/f.jpg,2,3,j,1,45,105,56,f,0,0.249962422979,02,03,60.0208129981,PLT_learning_02,A,2014_Mrz_28_1330,P28,
stim_fb/ques.jpg,stim_fb/negf.jpg,stim_fb/posf.jpg,stim_02/e.jpg,stim_02/f.jpg,2,3,j,1,46,106,50,f,0,0.266626731278,02,03,60.0208129981,PLT_learning_02,A,2014_Mrz_28_1330,P28,
stim_fb/ques.jpg,stim_fb/posf.jpg,stim_fb/negf.jpg,stim_02/e.jpg,stim_02/f.jpg,2,3,j,1,47,107,57,f,0,0.883055388098,02,03,60.0208129981,PLT_learning_02,A,2014_Mrz_28_1330,P28,
stim_fb/ques.jpg,stim_fb/negf.jpg,stim_fb/posf.jpg,stim_02/e.jpg,stim_02/f.jpg,2,3,j,1,48,108,51,None,0,,02,03,60.0208129981,PLT_learning_02,A,2014_Mrz_28_1330,P28,
stim_fb/ques.jpg,stim_fb/negf.jpg,stim_fb/posf.jpg,stim_02/a.jpg,stim_02/b.jpg,2,1,j,1,49,109,17,f,0,1.64954357658,02,03,60.0208129981,PLT_learning_02,A,2014_Mrz_28_1330,P28,
stim_fb/ques.jpg,stim_fb/negf.jpg,stim_fb/posf.jpg,stim_02/a.jpg,stim_02/b.jpg,2,1,j,1,50,110,14,f,0,0.533243429585,02,03,60.0208129981,PLT_learning_02,A,2014_Mrz_28_1330,P28,
stim_fb/ques.jpg,stim_fb/negf.jpg,stim_fb/posf.jpg,stim_02/a.jpg,stim_02/b.jpg,2,1,j,1,51,111,12,j,1,0.483216508084,02,03,60.0208129981,PLT_learning_02,A,2014_Mrz_28_1330,P28,
stim_fb/ques.jpg,stim_fb/negf.jpg,stim_fb/posf.jpg,stim_02/b.jpg,stim_02/a.jpg,1,1,f,1,52,112,7,j,0,0.449892929028,02,03,60.0208129981,PLT_learning_02,A,2014_Mrz_28_1330,P28,
stim_fb/ques.jpg,stim_fb/negf.jpg,stim_fb/posf.jpg,stim_02/d.jpg,stim_02/c.jpg,1,2,f,1,53,113,26,j,0,0.783116611467,02,03,60.0208129981,PLT_learning_02,A,2014_Mrz_28_1330,P28,
stim_fb/ques.jpg,stim_fb/negf.jpg,stim_fb/posf.jpg,stim_02/f.jpg,stim_02/e.jpg,1,3,f,1,54,114,41,j,0,0.633172816848,02,03,60.0208129981,PLT_learning_02,A,2014_Mrz_28_1330,P28,
stim_fb/ques.jpg,stim_fb/negf.jpg,stim_fb/posf.jpg,stim_02/b.jpg,stim_02/a.jpg,1,1,f,1,55,115,2,j,0,0.549921773814,02,03,60.0208129981,PLT_learning_02,A,2014_Mrz_28_1330,P28,
stim_fb/ques.jpg,stim_fb/posf.jpg,stim_fb/negf.jpg,stim_02/d.jpg,stim_02/c.jpg,1,2,f,1,56,116,28,j,0,0.39989446435,02,03,60.0208129981,PLT_learning_02,A,2014_Mrz_28_1330,P28,
stim_fb/ques.jpg,stim_fb/negf.jpg,stim_fb/posf.jpg,stim_02/e.jpg,stim_02/f.jpg,2,3,j,1,57,117,53,j,1,0.883079721658,02,03,60.0208129981,PLT_learning_02,A,2014_Mrz_28_1330,P28,
stim_fb/ques.jpg,stim_fb/negf.jpg,stim_fb/posf.jpg,stim_02/f.jpg,stim_02/e.jpg,1,3,f,1,58,118,45,j,0,0.316659033171,02,03,60.0208129981,PLT_learning_02,A,2014_Mrz_28_1330,P28,
stim_fb/ques.jpg,stim_fb/posf.jpg,stim_fb/negf.jpg,stim_02/e.jpg,stim_02/f.jpg,2,3,j,1,59,119,59,j,1,0.299959495194,02,03,60.0208129981,PLT_learning_02,A,2014_Mrz_28_1330,P28,
stim_fb/ques.jpg,stim_fb/negf.jpg,stim_fb/posf.jpg,stim_02/d.jpg,stim_02/c.jpg,1,2,f,2,0,120,25,None,0,,02,03,60.0208129981,PLT_learning_02,A,2014_Mrz_28_1330,P28,
stim_fb/ques.jpg,stim_fb/negf.jpg,stim_fb/posf.jpg,stim_02/a.jpg,stim_02/b.jpg,2,1,j,2,1,121,12,None,0,,02,03,60.0208129981,PLT_learning_02,A,2014_Mrz_28_1330,P28,
stim_fb/ques.jpg,stim_fb/negf.jpg,stim_fb/posf.jpg,stim_02/e.jpg,stim_02/f.jpg,2,3,j,2,2,122,50,j,1,0.416592778278,02,03,60.0208129981,PLT_learning_02,A,2014_Mrz_28_1330,P28,
stim_fb/ques.jpg,stim_fb/negf.jpg,stim_fb/posf.jpg,stim_02/c.jpg,stim_02/d.jpg,2,2,j,2,3,123,32,j,1,0.33324435589,02,03,60.0208129981,PLT_learning_02,A,2014_Mrz_28_1330,P28,
stim_fb/ques.jpg,stim_fb/negf.jpg,stim_fb/posf.jpg,stim_02/a.jpg,stim_02/b.jpg,2,1,j,2,4,124,11,j,1,0.61652913388,02,03,60.0208129981,PLT_learning_02,A,2014_Mrz_28_1330,P28,
stim_fb/ques.jpg,stim_fb/posf.jpg,stim_fb/negf.jpg,stim_02/d.jpg,stim_02/c.jpg,1,2,f,2,5,125,29,None,0,,02,03,60.0208129981,PLT_learning_02,A,2014_Mrz_28_1330,P28,
stim_fb/ques.jpg,stim_fb/negf.jpg,stim_fb/posf.jpg,stim_02/b.jpg,stim_02/a.jpg,1,1,f,2,6,126,1,j,0,1.29965692718,02,03,60.0208129981,PLT_learning_02,A,2014_Mrz_28_1330,P28,
stim_fb/ques.jpg,stim_fb/posf.jpg,stim_fb/negf.jpg,stim_02/b.jpg,stim_02/a.jpg,1,1,f,2,7,127,9,f,1,0.999603977398,02,03,60.0208129981,PLT_learning_02,A,2014_Mrz_28_1330,P28,
stim_fb/ques.jpg,stim_fb/posf.jpg,stim_fb/negf.jpg,stim_02/a.jpg,stim_02/b.jpg,2,1,j,2,8,128,19,j,1,0.333260906078,02,03,60.0208129981,PLT_learning_02,A,2014_Mrz_28_1330,P28,
stim_fb/ques.jpg,stim_fb/negf.jpg,stim_fb/posf.jpg,stim_02/f.jpg,stim_02/e.jpg,1,3,f,2,9,129,43,j,0,0.783102340953,02,03,60.0208129981,PLT_learning_02,A,2014_Mrz_28_1330,P28,
stim_fb/ques.jpg,stim_fb/negf.jpg,stim_fb/posf.jpg,stim_02/e.jpg,stim_02/f.jpg,2,3,j,2,10,130,52,None,0,,02,03,60.0208129981,PLT_learning_02,A,2014_Mrz_28_1330,P28,
stim_fb/ques.jpg,stim_fb/negf.jpg,stim_fb/posf.jpg,stim_02/c.jpg,stim_02/d.jpg,2,2,j,2,11,131,33,f,0,0.916397676719,02,03,60.0208129981,PLT_learning_02,A,2014_Mrz_28_1330,P28,
stim_fb/ques.jpg,stim_fb/posf.jpg,stim_fb/negf.jpg,stim_02/e.jpg,stim_02/f.jpg,2,3,j,2,12,132,56,f,0,0.416570029662,02,03,60.0208129981,PLT_learning_02,A,2014_Mrz_28_1330,P28,
stim_fb/ques.jpg,stim_fb/negf.jpg,stim_fb/posf.jpg,stim_02/b.jpg,stim_02/a.jpg,1,1,f,2,13,133,7,f,1,0.4831498532,02,03,60.0208129981,PLT_learning_02,A,2014_Mrz_28_1330,P28,
stim_fb/ques.jpg,stim_fb/posf.jpg,stim_fb/negf.jpg,stim_02/f.jpg,stim_02/e.jpg,1,3,f,2,14,134,46,f,1,0.266623973414,02,03,60.0208129981,PLT_learning_02,A,2014_Mrz_28_1330,P28,
stim_fb/ques.jpg,stim_fb/negf.jpg,stim_fb/posf.jpg,stim_02/d.jpg,stim_02/c.jpg,1,2,f,2,15,135,20,f,1,0.66649574328,02,03,60.0208129981,PLT_learning_02,A,2014_Mrz_28_1330,P28,
stim_fb/ques.jpg,stim_fb/posf.jpg,stim_fb/negf.jpg,stim_02/f.jpg,stim_02/e.jpg,1,3,f,2,16,136,47,j,0,0.566535312759,02,03,60.0208129981,PLT_learning_02,A,2014_Mrz_28_1330,P28,
stim_fb/ques.jpg,stim_fb/negf.jpg,stim_fb/posf.jpg,stim_02/f.jpg,stim_02/e.jpg,1,3,f,2,17,137,40,f,1,1.09966807291,02,03,60.0208129981,PLT_learning_02,A,2014_Mrz_28_1330,P28,
stim_fb/ques.jpg,stim_fb/negf.jpg,stim_fb/posf.jpg,stim_02/c.jpg,stim_02/d.jpg,2,2,j,2,18,138,35,f,0,1.08305343323,02,03,60.0208129981,PLT_learning_02,A,2014_Mrz_28_1330,P28,
stim_fb/ques.jpg,stim_fb/negf.jpg,stim_fb/posf.jpg,stim_02/b.jpg,stim_02/a.jpg,1,1,f,2,19,139,6,f,1,1.16630222967,02,03,60.0208129981,PLT_learning_02,A,2014_Mrz_28_1330,P28,
stim_fb/ques.jpg,stim_fb/negf.jpg,stim_fb/posf.jpg,stim_02/d.jpg,stim_02/c.jpg,1,2,f,2,20,140,21,f,1,0.933083413343,02,03,60.0208129981,PLT_learning_02,A,2014_Mrz_28_1330,P28,
stim_fb/ques.jpg,stim_fb/posf.jpg,stim_fb/negf.jpg,stim_02/e.jpg,stim_02/f.jpg,2,3,j,2,21,141,57,f,0,0.849784611451,02,03,60.0208129981,PLT_learning_02,A,2014_Mrz_28_1330,P28,
stim_fb/ques.jpg,stim_fb/negf.jpg,stim_fb/posf.jpg,stim_02/a.jpg,stim_02/b.jpg,2,1,j,2,22,142,16,j,1,0.933064484234,02,03,60.0208129981,PLT_learning_02,A,2014_Mrz_28_1330,P28,
stim_fb/ques.jpg,stim_fb/negf.jpg,stim_fb/posf.jpg,stim_02/c.jpg,stim_02/d.jpg,2,2,j,2,23,143,30,j,1,0.766333248874,02,03,60.0208129981,PLT_learning_02,A,2014_Mrz_28_1330,P28,
stim_fb/ques.jpg,stim_fb/posf.jpg,stim_fb/negf.jpg,stim_02/c.jpg,stim_02/d.jpg,2,2,j,2,24,144,37,j,1,0.483257274544,02,03,60.0208129981,PLT_learning_02,A,2014_Mrz_28_1330,P28,
stim_fb/ques.jpg,stim_fb/negf.jpg,stim_fb/posf.jpg,stim_02/c.jpg,stim_02/d.jpg,2,2,j,2,25,145,31,j,1,0.266613799093,02,03,60.0208129981,PLT_learning_02,A,2014_Mrz_28_1330,P28,
stim_fb/ques.jpg,stim_fb/negf.jpg,stim_fb/posf.jpg,stim_02/b.jpg,stim_02/a.jpg,1,1,f,2,26,146,4,j,0,0.616473263835,02,03,60.0208129981,PLT_learning_02,A,2014_Mrz_28_1330,P28,
stim_fb/ques.jpg,stim_fb/posf.jpg,stim_fb/negf.jpg,stim_02/d.jpg,stim_02/c.jpg,1,2,f,2,27,147,27,f,1,0.449879578802,02,03,60.0208129981,PLT_learning_02,A,2014_Mrz_28_1330,P28,
stim_fb/ques.jpg,stim_fb/negf.jpg,stim_fb/posf.jpg,stim_02/b.jpg,stim_02/a.jpg,1,1,f,2,28,148,5,f,1,1.29956904847,02,03,60.0208129981,PLT_learning_02,A,2014_Mrz_28_1330,P28,
stim_fb/ques.jpg,stim_fb/posf.jpg,stim_fb/negf.jpg,stim_02/c.jpg,stim_02/d.jpg,2,2,j,2,29,149,39,j,1,0.666483060719,02,03,60.0208129981,PLT_learning_02,A,2014_Mrz_28_1330,P28,
stim_fb/ques.jpg,stim_fb/negf.jpg,stim_fb/posf.jpg,stim_02/b.jpg,stim_02/a.jpg,1,1,f,2,30,150,0,f,1,0.899729903798,02,03,60.0208129981,PLT_learning_02,A,2014_Mrz_28_1330,P28,
stim_fb/ques.jpg,stim_fb/negf.jpg,stim_fb/posf.jpg,stim_02/d.jpg,stim_02/c.jpg,1,2,f,2,31,151,26,j,0,0.783173164211,02,03,60.0208129981,PLT_learning_02,A,2014_Mrz_28_1330,P28,
stim_fb/ques.jpg,stim_fb/posf.jpg,stim_fb/negf.jpg,stim_02/c.jpg,stim_02/d.jpg,2,2,j,2,32,152,38,j,1,0.433255020431,02,03,60.0208129981,PLT_learning_02,A,2014_Mrz_28_1330,P28,
stim_fb/ques.jpg,stim_fb/negf.jpg,stim_fb/posf.jpg,stim_02/f.jpg,stim_02/e.jpg,1,3,f,2,33,153,42,j,0,0.71649315835,02,03,60.0208129981,PLT_learning_02,A,2014_Mrz_28_1330,P28,
stim_fb/ques.jpg,stim_fb/posf.jpg,stim_fb/negf.jpg,stim_02/e.jpg,stim_02/f.jpg,2,3,j,2,34,154,59,f,0,0.766404273636,02,03,60.0208129981,PLT_learning_02,A,2014_Mrz_28_1330,P28,
stim_fb/ques.jpg,stim_fb/posf.jpg,stim_fb/negf.jpg,stim_02/b.jpg,stim_02/a.jpg,1,1,f,2,35,155,8,f,1,0.349927424879,02,03,60.0208129981,PLT_learning_02,A,2014_Mrz_28_1330,P28,
stim_fb/ques.jpg,stim_fb/negf.jpg,stim_fb/posf.jpg,stim_02/f.jpg,stim_02/e.jpg,1,3,f,2,36,156,44,None,0,,02,03,60.0208129981,PLT_learning_02,A,2014_Mrz_28_1330,P28,
stim_fb/ques.jpg,stim_fb/negf.jpg,stim_fb/posf.jpg,stim_02/a.jpg,stim_02/b.jpg,2,1,j,2,37,157,15,f,0,0.716459327152,02,03,60.0208129981,PLT_learning_02,A,2014_Mrz_28_1330,P28,
stim_fb/ques.jpg,stim_fb/negf.jpg,stim_fb/posf.jpg,stim_02/d.jpg,stim_02/c.jpg,1,2,f,2,38,158,24,f,1,0.0167337601451,02,03,60.0208129981,PLT_learning_02,A,2014_Mrz_28_1330,P28,
stim_fb/ques.jpg,stim_fb/negf.jpg,stim_fb/posf.jpg,stim_02/a.jpg,stim_02/b.jpg,2,1,j,2,39,159,17,f,0,0.533207872093,02,03,60.0208129981,PLT_learning_02,A,2014_Mrz_28_1330,P28,
stim_fb/ques.jpg,stim_fb/negf.jpg,stim_fb/posf.jpg,stim_02/d.jpg,stim_02/c.jpg,1,2,f,2,40,160,23,f,1,0.399921200889,02,03,60.0208129981,PLT_learning_02,A,2014_Mrz_28_1330,P28,
stim_fb/ques.jpg,stim_fb/negf.jpg,stim_fb/posf.jpg,stim_02/c.jpg,stim_02/d.jpg,2,2,j,2,41,161,34,f,0,0.883091351599,02,03,60.0208129981,PLT_learning_02,A,2014_Mrz_28_1330,P28,
stim_fb/ques.jpg,stim_fb/negf.jpg,stim_fb/posf.jpg,stim_02/e.jpg,stim_02/f.jpg,2,3,j,2,42,162,53,j,1,1.56619577674,02,03,60.0208129981,PLT_learning_02,A,2014_Mrz_28_1330,P28,
stim_fb/ques.jpg,stim_fb/negf.jpg,stim_fb/posf.jpg,stim_02/f.jpg,stim_02/e.jpg,1,3,f,2,43,163,45,f,1,1.33296587482,02,03,60.0208129981,PLT_learning_02,A,2014_Mrz_28_1330,P28,
stim_fb/ques.jpg,stim_fb/posf.jpg,stim_fb/negf.jpg,stim_02/f.jpg,stim_02/e.jpg,1,3,f,2,44,164,49,j,0,0.266581622014,02,03,60.0208129981,PLT_learning_02,A,2014_Mrz_28_1330,P28,
stim_fb/ques.jpg,stim_fb/negf.jpg,stim_fb/posf.jpg,stim_02/e.jpg,stim_02/f.jpg,2,3,j,2,45,165,55,j,1,0.433237357476,02,03,60.0208129981,PLT_learning_02,A,2014_Mrz_28_1330,P28,
stim_fb/ques.jpg,stim_fb/negf.jpg,stim_fb/posf.jpg,stim_02/a.jpg,stim_02/b.jpg,2,1,j,2,46,166,14,f,0,1.06638873697,02,03,60.0208129981,PLT_learning_02,A,2014_Mrz_28_1330,P28,
stim_fb/ques.jpg,stim_fb/posf.jpg,stim_fb/negf.jpg,stim_02/e.jpg,stim_02/f.jpg,2,3,j,2,47,167,58,f,0,0.666458703097,02,03,60.0208129981,PLT_learning_02,A,2014_Mrz_28_1330,P28,
stim_fb/ques.jpg,stim_fb/negf.jpg,stim_fb/posf.jpg,stim_02/b.jpg,stim_02/a.jpg,1,1,f,2,48,168,3,j,0,0.566457593333,02,03,60.0208129981,PLT_learning_02,A,2014_Mrz_28_1330,P28,
stim_fb/ques.jpg,stim_fb/posf.jpg,stim_fb/negf.jpg,stim_02/d.jpg,stim_02/c.jpg,1,2,f,2,49,169,28,None,0,,02,03,60.0208129981,PLT_learning_02,A,2014_Mrz_28_1330,P28,
stim_fb/ques.jpg,stim_fb/negf.jpg,stim_fb/posf.jpg,stim_02/b.jpg,stim_02/a.jpg,1,1,f,2,50,170,2,f,1,0.349932880454,02,03,60.0208129981,PLT_learning_02,A,2014_Mrz_28_1330,P28,
stim_fb/ques.jpg,stim_fb/negf.jpg,stim_fb/posf.jpg,stim_02/e.jpg,stim_02/f.jpg,2,3,j,2,51,171,51,f,0,0.449876063052,02,03,60.0208129981,PLT_learning_02,A,2014_Mrz_28_1330,P28,
stim_fb/ques.jpg,stim_fb/negf.jpg,stim_fb/posf.jpg,stim_02/a.jpg,stim_02/b.jpg,2,1,j,2,52,172,10,j,1,0.633145978052,02,03,60.0208129981,PLT_learning_02,A,2014_Mrz_28_1330,P28,
stim_fb/ques.jpg,stim_fb/negf.jpg,stim_fb/posf.jpg,stim_02/d.jpg,stim_02/c.jpg,1,2,f,2,53,173,22,f,1,0.633184738515,02,03,60.0208129981,PLT_learning_02,A,2014_Mrz_28_1330,P28,
stim_fb/ques.jpg,stim_fb/negf.jpg,stim_fb/posf.jpg,stim_02/c.jpg,stim_02/d.jpg,2,2,j,2,54,174,36,f,0,0.849773640144,02,03,60.0208129981,PLT_learning_02,A,2014_Mrz_28_1330,P28,
stim_fb/ques.jpg,stim_fb/negf.jpg,stim_fb/posf.jpg,stim_02/a.jpg,stim_02/b.jpg,2,1,j,2,55,175,13,f,0,0.716454803893,02,03,60.0208129981,PLT_learning_02,A,2014_Mrz_28_1330,P28,
stim_fb/ques.jpg,stim_fb/posf.jpg,stim_fb/negf.jpg,stim_02/f.jpg,stim_02/e.jpg,1,3,f,2,56,176,48,j,0,0.649844096497,02,03,60.0208129981,PLT_learning_02,A,2014_Mrz_28_1330,P28,
stim_fb/ques.jpg,stim_fb/negf.jpg,stim_fb/posf.jpg,stim_02/f.jpg,stim_02/e.jpg,1,3,f,2,57,177,41,f,1,0.449888171188,02,03,60.0208129981,PLT_learning_02,A,2014_Mrz_28_1330,P28,
stim_fb/ques.jpg,stim_fb/negf.jpg,stim_fb/posf.jpg,stim_02/e.jpg,stim_02/f.jpg,2,3,j,2,58,178,54,f,0,1.26623375225,02,03,60.0208129981,PLT_learning_02,A,2014_Mrz_28_1330,P28,
stim_fb/ques.jpg,stim_fb/posf.jpg,stim_fb/negf.jpg,stim_02/a.jpg,stim_02/b.jpg,2,1,j,2,59,179,18,f,0,0.383240216088,02,03,60.0208129981,PLT_learning_02,A,2014_Mrz_28_1330,P28,
stim_fb/ques.jpg,stim_fb/negf.jpg,stim_fb/posf.jpg,stim_02/f.jpg,stim_02/e.jpg,1,3,f,3,0,180,41,None,0,,02,03,60.0208129981,PLT_learning_02,A,2014_Mrz_28_1330,P28,
stim_fb/ques.jpg,stim_fb/negf.jpg,stim_fb/posf.jpg,stim_02/a.jpg,stim_02/b.jpg,2,1,j,3,1,181,13,None,0,,02,03,60.0208129981,PLT_learning_02,A,2014_Mrz_28_1330,P28,
stim_fb/ques.jpg,stim_fb/negf.jpg,stim_fb/posf.jpg,stim_02/b.jpg,stim_02/a.jpg,1,1,f,3,2,182,4,j,0,0.516550962206,02,03,60.0208129981,PLT_learning_02,A,2014_Mrz_28_1330,P28,
stim_fb/ques.jpg,stim_fb/negf.jpg,stim_fb/posf.jpg,stim_02/d.jpg,stim_02/c.jpg,1,2,f,3,3,183,24,f,1,0.633158197466,02,03,60.0208129981,PLT_learning_02,A,2014_Mrz_28_1330,P28,
stim_fb/ques.jpg,stim_fb/negf.jpg,stim_fb/posf.jpg,stim_02/f.jpg,stim_02/e.jpg,1,3,f,3,4,184,45,f,1,1.64950822058,02,03,60.0208129981,PLT_learning_02,A,2014_Mrz_28_1330,P28,
stim_fb/ques.jpg,stim_fb/negf.jpg,stim_fb/posf.jpg,stim_02/a.jpg,stim_02/b.jpg,2,1,j,3,5,185,11,f,0,1.01636858531,02,03,60.0208129981,PLT_learning_02,A,2014_Mrz_28_1330,P28,
stim_fb/ques.jpg,stim_fb/posf.jpg,stim_fb/negf.jpg,stim_02/e.jpg,stim_02/f.jpg,2,3,j,3,6,186,58,j,1,0.999741175852,02,03,60.0208129981,PLT_learning_02,A,2014_Mrz_28_1330,P28,
stim_fb/ques.jpg,stim_fb/negf.jpg,stim_fb/posf.jpg,stim_02/b.jpg,stim_02/a.jpg,1,1,f,3,7,187,7,f,1,0.483246748343,02,03,60.0208129981,PLT_learning_02,A,2014_Mrz_28_1330,P28,
stim_fb/ques.jpg,stim_fb/negf.jpg,stim_fb/posf.jpg,stim_02/f.jpg,stim_02/e.jpg,1,3,f,3,8,188,40,None,0,,02,03,60.0208129981,PLT_learning_02,A,2014_Mrz_28_1330,P28,
stim_fb/ques.jpg,stim_fb/posf.jpg,stim_fb/negf.jpg,stim_02/f.jpg,stim_02/e.jpg,1,3,f,3,9,189,49,f,1,0.349936266881,02,03,60.0208129981,PLT_learning_02,A,2014_Mrz_28_1330,P28,
stim_fb/ques.jpg,stim_fb/negf.jpg,stim_fb/posf.jpg,stim_02/f.jpg,stim_02/e.jpg,1,3,f,3,10,190,43,f,1,0.516551702047,02,03,60.0208129981,PLT_learning_02,A,2014_Mrz_28_1330,P28,
stim_fb/ques.jpg,stim_fb/negf.jpg,stim_fb/posf.jpg,stim_02/e.jpg,stim_02/f.jpg,2,3,j,3,11,191,51,None,0,,02,03,60.0208129981,PLT_learning_02,A,2014_Mrz_28_1330,P28,
stim_fb/ques.jpg,stim_fb/negf.jpg,stim_fb/posf.jpg,stim_02/d.jpg,stim_02/c.jpg,1,2,f,3,12,192,25,f,1,0.3499058161,02,03,60.0208129981,PLT_learning_02,A,2014_Mrz_28_1330,P28,
stim_fb/ques.jpg,stim_fb/negf.jpg,stim_fb/posf.jpg,stim_02/e.jpg,stim_02/f.jpg,2,3,j,3,13,193,53,None,0,,02,03,60.0208129981,PLT_learning_02,A,2014_Mrz_28_1330,P28,
stim_fb/ques.jpg,stim_fb/posf.jpg,stim_fb/negf.jpg,stim_02/b.jpg,stim_02/a.jpg,1,1,f,3,14,194,9,f,1,0.233297549275,02,03,60.0208129981,PLT_learning_02,A,2014_Mrz_28_1330,P28,
stim_fb/ques.jpg,stim_fb/negf.jpg,stim_fb/posf.jpg,stim_02/c.jpg,stim_02/d.jpg,2,2,j,3,15,195,35,j,1,0.683135194715,02,03,60.0208129981,PLT_learning_02,A,2014_Mrz_28_1330,P28,
stim_fb/ques.jpg,stim_fb/negf.jpg,stim_fb/posf.jpg,stim_02/e.jpg,stim_02/f.jpg,2,3,j,3,16,196,54,f,0,0.549831844,02,03,60.0208129981,PLT_learning_02,A,2014_Mrz_28_1330,P28,
stim_fb/ques.jpg,stim_fb/posf.jpg,stim_fb/negf.jpg,stim_02/e.jpg,stim_02/f.jpg,2,3,j,3,17,197,56,j,1,0.983138072879,02,03,60.0208129981,PLT_learning_02,A,2014_Mrz_28_1330,P28,
stim_fb/ques.jpg,stim_fb/negf.jpg,stim_fb/posf.jpg,stim_02/c.jpg,stim_02/d.jpg,2,2,j,3,18,198,34,None,0,,02,03,60.0208129981,PLT_learning_02,A,2014_Mrz_28_1330,P28,
stim_fb/ques.jpg,stim_fb/negf.jpg,stim_fb/posf.jpg,stim_02/d.jpg,stim_02/c.jpg,1,2,f,3,19,199,22,f,1,0.683148469754,02,03,60.0208129981,PLT_learning_02,A,2014_Mrz_28_1330,P28,
stim_fb/ques.jpg,stim_fb/posf.jpg,stim_fb/negf.jpg,stim_02/e.jpg,stim_02/f.jpg,2,3,j,3,20,200,59,None,0,,02,03,60.0208129981,PLT_learning_02,A,2014_Mrz_28_1330,P28,
stim_fb/ques.jpg,stim_fb/posf.jpg,stim_fb/negf.jpg,stim_02/f.jpg,stim_02/e.jpg,1,3,f,3,21,201,47,f,1,0.383230628227,02,03,60.0208129981,PLT_learning_02,A,2014_Mrz_28_1330,P28,
stim_fb/ques.jpg,stim_fb/posf.jpg,stim_fb/negf.jpg,stim_02/c.jpg,stim_02/d.jpg,2,2,j,3,22,202,39,f,0,1.61618960087,02,03,60.0208129981,PLT_learning_02,A,2014_Mrz_28_1330,P28,
stim_fb/ques.jpg,stim_fb/negf.jpg,stim_fb/posf.jpg,stim_02/c.jpg,stim_02/d.jpg,2,2,j,3,23,203,30,None,0,,02,03,60.0208129981,PLT_learning_02,A,2014_Mrz_28_1330,P28,
stim_fb/ques.jpg,stim_fb/negf.jpg,stim_fb/posf.jpg,stim_02/f.jpg,stim_02/e.jpg,1,3,f,3,24,204,42,f,1,0.249939460835,02,03,60.0208129981,PLT_learning_02,A,2014_Mrz_28_1330,P28,
stim_fb/ques.jpg,stim_fb/negf.jpg,stim_fb/posf.jpg,stim_02/a.jpg,stim_02/b.jpg,2,1,j,3,25,205,12,f,0,0.616500237964,02,03,60.0208129981,PLT_learning_02,A,2014_Mrz_28_1330,P28,
stim_fb/ques.jpg,stim_fb/negf.jpg,stim_fb/posf.jpg,stim_02/b.jpg,stim_02/a.jpg,1,1,f,3,26,206,0,j,0,0.516560402699,02,03,60.0208129981,PLT_learning_02,A,2014_Mrz_28_1330,P28,
stim_fb/ques.jpg,stim_fb/negf.jpg,stim_fb/posf.jpg,stim_02/a.jpg,stim_02/b.jpg,2,1,j,3,27,207,15,f,0,0.383205720234,02,03,60.0208129981,PLT_learning_02,A,2014_Mrz_28_1330,P28,
stim_fb/ques.jpg,stim_fb/posf.jpg,stim_fb/negf.jpg,stim_02/a.jpg,stim_02/b.jpg,2,1,j,3,28,208,18,j,1,0.649823389962,02,03,60.0208129981,PLT_learning_02,A,2014_Mrz_28_1330,P28,
stim_fb/ques.jpg,stim_fb/negf.jpg,stim_fb/posf.jpg,stim_02/c.jpg,stim_02/d.jpg,2,2,j,3,29,209,33,None,0,,02,03,60.0208129981,PLT_learning_02,A,2014_Mrz_28_1330,P28,
stim_fb/ques.jpg,stim_fb/posf.jpg,stim_fb/negf.jpg,stim_02/a.jpg,stim_02/b.jpg,2,1,j,3,30,210,19,f,0,0.466531784979,02,03,60.0208129981,PLT_learning_02,A,2014_Mrz_28_1330,P28,
stim_fb/ques.jpg,stim_fb/posf.jpg,stim_fb/negf.jpg,stim_02/f.jpg,stim_02/e.jpg,1,3,f,3,31,211,46,None,0,,02,03,60.0208129981,PLT_learning_02,A,2014_Mrz_28_1330,P28,
stim_fb/ques.jpg,stim_fb/posf.jpg,stim_fb/negf.jpg,stim_02/f.jpg,stim_02/e.jpg,1,3,f,3,32,212,48,None,0,,02,03,60.0208129981,PLT_learning_02,A,2014_Mrz_28_1330,P28,
stim_fb/ques.jpg,stim_fb/posf.jpg,stim_fb/negf.jpg,stim_02/c.jpg,stim_02/d.jpg,2,2,j,3,33,213,37,None,0,,02,03,60.0208129981,PLT_learning_02,A,2014_Mrz_28_1330,P28,
stim_fb/ques.jpg,stim_fb/negf.jpg,stim_fb/posf.jpg,stim_02/b.jpg,stim_02/a.jpg,1,1,f,3,34,214,3,None,0,,02,03,60.0208129981,PLT_learning_02,A,2014_Mrz_28_1330,P28,
stim_fb/ques.jpg,stim_fb/posf.jpg,stim_fb/negf.jpg,stim_02/d.jpg,stim_02/c.jpg,1,2,f,3,35,215,27,f,1,1.46623169513,02,03,60.0208129981,PLT_learning_02,A,2014_Mrz_28_1330,P28,
stim_fb/ques.jpg,stim_fb/negf.jpg,stim_fb/posf.jpg,stim_02/a.jpg,stim_02/b.jpg,2,1,j,3,36,216,17,None,0,,02,03,60.0208129981,PLT_learning_02,A,2014_Mrz_28_1330,P28,
stim_fb/ques.jpg,stim_fb/negf.jpg,stim_fb/posf.jpg,stim_02/d.jpg,stim_02/c.jpg,1,2,f,3,37,217,21,f,1,0.716453973826,02,03,60.0208129981,PLT_learning_02,A,2014_Mrz_28_1330,P28,
stim_fb/ques.jpg,stim_fb/negf.jpg,stim_fb/posf.jpg,stim_02/d.jpg,stim_02/c.jpg,1,2,f,3,38,218,20,None,0,,02,03,60.0208129981,PLT_learning_02,A,2014_Mrz_28_1330,P28,
stim_fb/ques.jpg,stim_fb/negf.jpg,stim_fb/posf.jpg,stim_02/a.jpg,stim_02/b.jpg,2,1,j,3,39,219,14,f,0,0.43322377868,02,03,60.0208129981,PLT_learning_02,A,2014_Mrz_28_1330,P28,
stim_fb/ques.jpg,stim_fb/negf.jpg,stim_fb/posf.jpg,stim_02/b.jpg,stim_02/a.jpg,1,1,f,3,40,220,6,f,1,0.466562082383,02,03,60.0208129981,PLT_learning_02,A,2014_Mrz_28_1330,P28,
stim_fb/ques.jpg,stim_fb/negf.jpg,stim_fb/posf.jpg,stim_02/e.jpg,stim_02/f.jpg,2,3,j,3,41,221,50,f,0,0.433258533176,02,03,60.0208129981,PLT_learning_02,A,2014_Mrz_28_1330,P28,
stim_fb/ques.jpg,stim_fb/negf.jpg,stim_fb/posf.jpg,stim_02/d.jpg,stim_02/c.jpg,1,2,f,3,42,222,26,f,1,0.100005422497,02,03,60.0208129981,PLT_learning_02,A,2014_Mrz_28_1330,P28,
stim_fb/ques.jpg,stim_fb/posf.jpg,stim_fb/negf.jpg,stim_02/b.jpg,stim_02/a.jpg,1,1,f,3,43,223,8,f,1,1.38291084536,02,03,60.0208129981,PLT_learning_02,A,2014_Mrz_28_1330,P28,
stim_fb/ques.jpg,stim_fb/posf.jpg,stim_fb/negf.jpg,stim_02/e.jpg,stim_02/f.jpg,2,3,j,3,44,224,57,j,1,0.549865539862,02,03,60.0208129981,PLT_learning_02,A,2014_Mrz_28_1330,P28,
stim_fb/ques.jpg,stim_fb/negf.jpg,stim_fb/posf.jpg,stim_02/b.jpg,stim_02/a.jpg,1,1,f,3,45,225,5,f,1,0.316606077376,02,03,60.0208129981,PLT_learning_02,A,2014_Mrz_28_1330,P28,
stim_fb/ques.jpg,stim_fb/negf.jpg,stim_fb/posf.jpg,stim_02/b.jpg,stim_02/a.jpg,1,1,f,3,46,226,1,f,1,0.766444877689,02,03,60.0208129981,PLT_learning_02,A,2014_Mrz_28_1330,P28,
stim_fb/ques.jpg,stim_fb/negf.jpg,stim_fb/posf.jpg,stim_02/a.jpg,stim_02/b.jpg,2,1,j,3,47,227,16,f,0,0.116668951854,02,03,60.0208129981,PLT_learning_02,A,2014_Mrz_28_1330,P28,
stim_fb/ques.jpg,stim_fb/negf.jpg,stim_fb/posf.jpg,stim_02/b.jpg,stim_02/a.jpg,1,1,f,3,48,228,2,f,1,0.549864562432,02,03,60.0208129981,PLT_learning_02,A,2014_Mrz_28_1330,P28,
stim_fb/ques.jpg,stim_fb/posf.jpg,stim_fb/negf.jpg,stim_02/d.jpg,stim_02/c.jpg,1,2,f,3,49,229,28,f,1,0.599842470951,02,03,60.0208129981,PLT_learning_02,A,2014_Mrz_28_1330,P28,
stim_fb/ques.jpg,stim_fb/negf.jpg,stim_fb/posf.jpg,stim_02/c.jpg,stim_02/d.jpg,2,2,j,3,50,230,32,j,1,0.649849143054,02,03,60.0208129981,PLT_learning_02,A,2014_Mrz_28_1330,P28,
stim_fb/ques.jpg,stim_fb/negf.jpg,stim_fb/posf.jpg,stim_02/f.jpg,stim_02/e.jpg,1,3,f,3,51,231,44,j,0,0.716347409616,02,03,60.0208129981,PLT_learning_02,A,2014_Mrz_28_1330,P28,
stim_fb/ques.jpg,stim_fb/posf.jpg,stim_fb/negf.jpg,stim_02/c.jpg,stim_02/d.jpg,2,2,j,3,52,232,38,j,1,0.449914609984,02,03,60.0208129981,PLT_learning_02,A,2014_Mrz_28_1330,P28,
stim_fb/ques.jpg,stim_fb/negf.jpg,stim_fb/posf.jpg,stim_02/e.jpg,stim_02/f.jpg,2,3,j,3,53,233,52,None,0,,02,03,60.0208129981,PLT_learning_02,A,2014_Mrz_28_1330,P28,
stim_fb/ques.jpg,stim_fb/posf.jpg,stim_fb/negf.jpg,stim_02/d.jpg,stim_02/c.jpg,1,2,f,3,54,234,29,f,1,1.26623957775,02,03,60.0208129981,PLT_learning_02,A,2014_Mrz_28_1330,P28,
stim_fb/ques.jpg,stim_fb/negf.jpg,stim_fb/posf.jpg,stim_02/e.jpg,stim_02/f.jpg,2,3,j,3,55,235,55,f,0,0.466545517156,02,03,60.0208129981,PLT_learning_02,A,2014_Mrz_28_1330,P28,
stim_fb/ques.jpg,stim_fb/negf.jpg,stim_fb/posf.jpg,stim_02/a.jpg,stim_02/b.jpg,2,1,j,3,56,236,10,j,1,0.616510809275,02,03,60.0208129981,PLT_learning_02,A,2014_Mrz_28_1330,P28,
stim_fb/ques.jpg,stim_fb/negf.jpg,stim_fb/posf.jpg,stim_02/d.jpg,stim_02/c.jpg,1,2,f,3,57,237,23,f,1,0.649815585537,02,03,60.0208129981,PLT_learning_02,A,2014_Mrz_28_1330,P28,
stim_fb/ques.jpg,stim_fb/negf.jpg,stim_fb/posf.jpg,stim_02/c.jpg,stim_02/d.jpg,2,2,j,3,58,238,36,j,1,1.24963002071,02,03,60.0208129981,PLT_learning_02,A,2014_Mrz_28_1330,P28,
stim_fb/ques.jpg,stim_fb/negf.jpg,stim_fb/posf.jpg,stim_02/c.jpg,stim_02/d.jpg,2,2,j,3,59,239,31,j,1,0.916378350619,02,03,60.0208129981,PLT_learning_02,A,2014_Mrz_28_1330,P28,
stim_fb/ques.jpg,stim_fb/negf.jpg,stim_fb/posf.jpg,stim_02/a.jpg,stim_02/b.jpg,2,1,j,4,0,240,11,f,0,1.26631402202,02,03,60.0208129981,PLT_learning_02,A,2014_Mrz_28_1330,P28,
stim_fb/ques.jpg,stim_fb/negf.jpg,stim_fb/posf.jpg,stim_02/f.jpg,stim_02/e.jpg,1,3,f,4,1,241,40,j,0,0.466566701878,02,03,60.0208129981,PLT_learning_02,A,2014_Mrz_28_1330,P28,
stim_fb/ques.jpg,stim_fb/negf.jpg,stim_fb/posf.jpg,stim_02/c.jpg,stim_02/d.jpg,2,2,j,4,2,242,30,j,1,0.616475633731,02,03,60.0208129981,PLT_learning_02,A,2014_Mrz_28_1330,P28,
stim_fb/ques.jpg,stim_fb/negf.jpg,stim_fb/posf.jpg,stim_02/a.jpg,stim_02/b.jpg,2,1,j,4,3,243,17,j,1,0.883095522982,02,03,60.0208129981,PLT_learning_02,A,2014_Mrz_28_1330,P28,
stim_fb/ques.jpg,stim_fb/posf.jpg,stim_fb/negf.jpg,stim_02/b.jpg,stim_02/a.jpg,1,1,f,4,4,244,8,None,0,,02,03,60.0208129981,PLT_learning_02,A,2014_Mrz_28_1330,P28,
stim_fb/ques.jpg,stim_fb/posf.jpg,stim_fb/negf.jpg,stim_02/e.jpg,stim_02/f.jpg,2,3,j,4,5,245,59,j,1,0.699842537113,02,03,60.0208129981,PLT_learning_02,A,2014_Mrz_28_1330,P28,
stim_fb/ques.jpg,stim_fb/posf.jpg,stim_fb/negf.jpg,stim_02/b.jpg,stim_02/a.jpg,1,1,f,4,6,246,9,f,1,0.733105512343,02,03,60.0208129981,PLT_learning_02,A,2014_Mrz_28_1330,P28,
stim_fb/ques.jpg,stim_fb/posf.jpg,stim_fb/negf.jpg,stim_02/d.jpg,stim_02/c.jpg,1,2,f,4,7,247,29,f,1,1.29960883449,02,03,60.0208129981,PLT_learning_02,A,2014_Mrz_28_1330,P28,
stim_fb/ques.jpg,stim_fb/posf.jpg,stim_fb/negf.jpg,stim_02/c.jpg,stim_02/d.jpg,2,2,j,4,8,248,37,j,1,0.899767933446,02,03,60.0208129981,PLT_learning_02,A,2014_Mrz_28_1330,P28,
stim_fb/ques.jpg,stim_fb/negf.jpg,stim_fb/posf.jpg,stim_02/a.jpg,stim_02/b.jpg,2,1,j,4,9,249,14,j,1,0.849738257089,02,03,60.0208129981,PLT_learning_02,A,2014_Mrz_28_1330,P28,
stim_fb/ques.jpg,stim_fb/negf.jpg,stim_fb/posf.jpg,stim_02/b.jpg,stim_02/a.jpg,1,1,f,4,10,250,6,f,1,0.733092089937,02,03,60.0208129981,PLT_learning_02,A,2014_Mrz_28_1330,P28,
stim_fb/ques.jpg,stim_fb/negf.jpg,stim_fb/posf.jpg,stim_02/d.jpg,stim_02/c.jpg,1,2,f,4,11,251,26,j,0,0.766622815532,02,03,60.0208129981,PLT_learning_02,A,2014_Mrz_28_1330,P28,
stim_fb/ques.jpg,stim_fb/posf.jpg,stim_fb/negf.jpg,stim_02/e.jpg,stim_02/f.jpg,2,3,j,4,12,252,56,f,0,0.816451546787,02,03,60.0208129981,PLT_learning_02,A,2014_Mrz_28_1330,P28,
stim_fb/ques.jpg,stim_fb/negf.jpg,stim_fb/posf.jpg,stim_02/d.jpg,stim_02/c.jpg,1,2,f,4,13,253,24,f,1,0.849770187553,02,03,60.0208129981,PLT_learning_02,A,2014_Mrz_28_1330,P28,
stim_fb/ques.jpg,stim_fb/posf.jpg,stim_fb/negf.jpg,stim_02/e.jpg,stim_02/f.jpg,2,3,j,4,14,254,57,f,0,0.749815669747,02,03,60.0208129981,PLT_learning_02,A,2014_Mrz_28_1330,P28,
stim_fb/ques.jpg,stim_fb/negf.jpg,stim_fb/posf.jpg,stim_02/d.jpg,stim_02/c.jpg,1,2,f,4,15,255,21,f,1,0.599847926525,02,03,60.0208129981,PLT_learning_02,A,2014_Mrz_28_1330,P28,
stim_fb/ques.jpg,stim_fb/negf.jpg,stim_fb/posf.jpg,stim_02/b.jpg,stim_02/a.jpg,1,1,f,4,16,256,7,f,1,0.38326125946,02,03,60.0208129981,PLT_learning_02,A,2014_Mrz_28_1330,P28,
stim_fb/ques.jpg,stim_fb/negf.jpg,stim_fb/posf.jpg,stim_02/e.jpg,stim_02/f.jpg,2,3,j,4,17,257,52,f,0,0.583217629875,02,03,60.0208129981,PLT_learning_02,A,2014_Mrz_28_1330,P28,
stim_fb/ques.jpg,stim_fb/negf.jpg,stim_fb/posf.jpg,stim_02/c.jpg,stim_02/d.jpg,2,2,j,4,18,258,35,f,0,0.100033740971,02,03,60.0208129981,PLT_learning_02,A,2014_Mrz_28_1330,P28,
stim_fb/ques.jpg,stim_fb/negf.jpg,stim_fb/posf.jpg,stim_02/d.jpg,stim_02/c.jpg,1,2,f,4,19,259,25,None,0,,02,03,60.0208129981,PLT_learning_02,A,2014_Mrz_28_1330,P28,
stim_fb/ques.jpg,stim_fb/negf.jpg,stim_fb/posf.jpg,stim_02/b.jpg,stim_02/a.jpg,1,1,f,4,20,260,2,f,1,0.916411926184,02,03,60.0208129981,PLT_learning_02,A,2014_Mrz_28_1330,P28,
stim_fb/ques.jpg,stim_fb/negf.jpg,stim_fb/posf.jpg,stim_02/d.jpg,stim_02/c.jpg,1,2,f,4,21,261,20,f,1,0.699798913545,02,03,60.0208129981,PLT_learning_02,A,2014_Mrz_28_1330,P28,
stim_fb/ques.jpg,stim_fb/negf.jpg,stim_fb/posf.jpg,stim_02/b.jpg,stim_02/a.jpg,1,1,f,4,22,262,0,f,1,0.666478567535,02,03,60.0208129981,PLT_learning_02,A,2014_Mrz_28_1330,P28,
stim_fb/ques.jpg,stim_fb/posf.jpg,stim_fb/negf.jpg,stim_02/c.jpg,stim_02/d.jpg,2,2,j,4,23,263,39,j,1,0.13333272783,02,03,60.0208129981,PLT_learning_02,A,2014_Mrz_28_1330,P28,
stim_fb/ques.jpg,stim_fb/posf.jpg,stim_fb/negf.jpg,stim_02/a.jpg,stim_02/b.jpg,2,1,j,4,24,264,19,j,1,0.100020129095,02,03,60.0208129981,PLT_learning_02,A,2014_Mrz_28_1330,P28,
stim_fb/ques.jpg,stim_fb/negf.jpg,stim_fb/posf.jpg,stim_02/e.jpg,stim_02/f.jpg,2,3,j,4,25,265,55,f,0,0.949759417748,02,03,60.0208129981,PLT_learning_02,A,2014_Mrz_28_1330,P28,
stim_fb/ques.jpg,stim_fb/posf.jpg,stim_fb/negf.jpg,stim_02/f.jpg,stim_02/e.jpg,1,3,f,4,26,266,46,j,0,0.816420407285,02,03,60.0208129981,PLT_learning_02,A,2014_Mrz_28_1330,P28,
stim_fb/ques.jpg,stim_fb/negf.jpg,stim_fb/posf.jpg,stim_02/a.jpg,stim_02/b.jpg,2,1,j,4,27,267,10,None,0,,02,03,60.0208129981,PLT_learning_02,A,2014_Mrz_28_1330,P28,
stim_fb/ques.jpg,stim_fb/negf.jpg,stim_fb/posf.jpg,stim_02/c.jpg,stim_02/d.jpg,2,2,j,4,28,268,34,f,0,0.316550709576,02,03,60.0208129981,PLT_learning_02,A,2014_Mrz_28_1330,P28,
stim_fb/ques.jpg,stim_fb/negf.jpg,stim_fb/posf.jpg,stim_02/a.jpg,stim_02/b.jpg,2,1,j,4,29,269,13,f,0,0.649814824646,02,03,60.0208129981,PLT_learning_02,A,2014_Mrz_28_1330,P28,
stim_fb/ques.jpg,stim_fb/negf.jpg,stim_fb/posf.jpg,stim_02/e.jpg,stim_02/f.jpg,2,3,j,4,30,270,51,f,0,0.799769876281,02,03,60.0208129981,PLT_learning_02,A,2014_Mrz_28_1330,P28,
stim_fb/ques.jpg,stim_fb/negf.jpg,stim_fb/posf.jpg,stim_02/b.jpg,stim_02/a.jpg,1,1,f,4,31,271,5,None,0,,02,03,60.0208129981,PLT_learning_02,A,2014_Mrz_28_1330,P28,
stim_fb/ques.jpg,stim_fb/posf.jpg,stim_fb/negf.jpg,stim_02/e.jpg,stim_02/f.jpg,2,3,j,4,32,272,58,f,0,0.849776370946,02,03,60.0208129981,PLT_learning_02,A,2014_Mrz_28_1330,P28,
stim_fb/ques.jpg,stim_fb/posf.jpg,stim_fb/negf.jpg,stim_02/f.jpg,stim_02/e.jpg,1,3,f,4,33,273,48,j,0,0.683134436829,02,03,60.0208129981,PLT_learning_02,A,2014_Mrz_28_1330,P28,
stim_fb/ques.jpg,stim_fb/negf.jpg,stim_fb/posf.jpg,stim_02/f.jpg,stim_02/e.jpg,1,3,f,4,34,274,43,f,1,0.799775728847,02,03,60.0208129981,PLT_learning_02,A,2014_Mrz_28_1330,P28,
stim_fb/ques.jpg,stim_fb/negf.jpg,stim_fb/posf.jpg,stim_02/c.jpg,stim_02/d.jpg,2,2,j,4,35,275,36,None,0,,02,03,60.0208129981,PLT_learning_02,A,2014_Mrz_28_1330,P28,
stim_fb/ques.jpg,stim_fb/negf.jpg,stim_fb/posf.jpg,stim_02/a.jpg,stim_02/b.jpg,2,1,j,4,36,276,16,f,0,0.383240661195,02,03,60.0208129981,PLT_learning_02,A,2014_Mrz_28_1330,P28,
stim_fb/ques.jpg,stim_fb/posf.jpg,stim_fb/negf.jpg,stim_02/f.jpg,stim_02/e.jpg,1,3,f,4,37,277,47,j,0,0.299984592653,02,03,60.0208129981,PLT_learning_02,A,2014_Mrz_28_1330,P28,
stim_fb/ques.jpg,stim_fb/negf.jpg,stim_fb/posf.jpg,stim_02/f.jpg,stim_02/e.jpg,1,3,f,4,38,278,45,j,0,0.399942132983,02,03,60.0208129981,PLT_learning_02,A,2014_Mrz_28_1330,P28,
stim_fb/ques.jpg,stim_fb/negf.jpg,stim_fb/posf.jpg,stim_02/c.jpg,stim_02/d.jpg,2,2,j,4,39,279,32,j,1,0.3831697026,02,03,60.0208129981,PLT_learning_02,A,2014_Mrz_28_1330,P28,
stim_fb/ques.jpg,stim_fb/negf.jpg,stim_fb/posf.jpg,stim_02/a.jpg,stim_02/b.jpg,2,1,j,4,40,280,12,j,1,0.249978846856,02,03,60.0208129981,PLT_learning_02,A,2014_Mrz_28_1330,P28,
stim_fb/ques.jpg,stim_fb/negf.jpg,stim_fb/posf.jpg,stim_02/a.jpg,stim_02/b.jpg,2,1,j,4,41,281,15,j,1,0.483225536555,02,03,60.0208129981,PLT_learning_02,A,2014_Mrz_28_1330,P28,
stim_fb/ques.jpg,stim_fb/negf.jpg,stim_fb/posf.jpg,stim_02/d.jpg,stim_02/c.jpg,1,2,f,4,42,282,22,j,0,0.5498565956,02,03,60.0208129981,PLT_learning_02,A,2014_Mrz_28_1330,P28,
stim_fb/ques.jpg,stim_fb/posf.jpg,stim_fb/negf.jpg,stim_02/d.jpg,stim_02/c.jpg,1,2,f,4,43,283,27,j,0,0.599859655718,02,03,60.0208129981,PLT_learning_02,A,2014_Mrz_28_1330,P28,
stim_fb/ques.jpg,stim_fb/posf.jpg,stim_fb/negf.jpg,stim_02/c.jpg,stim_02/d.jpg,2,2,j,4,44,284,38,j,1,1.58285753168,02,03,60.0208129981,PLT_learning_02,A,2014_Mrz_28_1330,P28,
stim_fb/ques.jpg,stim_fb/posf.jpg,stim_fb/negf.jpg,stim_02/f.jpg,stim_02/e.jpg,1,3,f,4,45,285,49,j,0,0.799777593489,02,03,60.0208129981,PLT_learning_02,A,2014_Mrz_28_1330,P28,
stim_fb/ques.jpg,stim_fb/negf.jpg,stim_fb/posf.jpg,stim_02/b.jpg,stim_02/a.jpg,1,1,f,4,46,286,4,j,0,0.583199437599,02,03,60.0208129981,PLT_learning_02,A,2014_Mrz_28_1330,P28,
stim_fb/ques.jpg,stim_fb/negf.jpg,stim_fb/posf.jpg,stim_02/e.jpg,stim_02/f.jpg,2,3,j,4,47,287,54,f,0,0.783094374125,02,03,60.0208129981,PLT_learning_02,A,2014_Mrz_28_1330,P28,
stim_fb/ques.jpg,stim_fb/posf.jpg,stim_fb/negf.jpg,stim_02/d.jpg,stim_02/c.jpg,1,2,f,4,48,288,28,f,1,0.633189141477,02,03,60.0208129981,PLT_learning_02,A,2014_Mrz_28_1330,P28,
stim_fb/ques.jpg,stim_fb/negf.jpg,stim_fb/posf.jpg,stim_02/f.jpg,stim_02/e.jpg,1,3,f,4,49,289,41,j,0,0.399939645791,02,03,60.0208129981,PLT_learning_02,A,2014_Mrz_28_1330,P28,
stim_fb/ques.jpg,stim_fb/negf.jpg,stim_fb/posf.jpg,stim_02/e.jpg,stim_02/f.jpg,2,3,j,4,50,290,50,j,1,0.649838087542,02,03,60.0208129981,PLT_learning_02,A,2014_Mrz_28_1330,P28,
stim_fb/ques.jpg,stim_fb/negf.jpg,stim_fb/posf.jpg,stim_02/e.jpg,stim_02/f.jpg,2,3,j,4,51,291,53,j,1,1.31633387293,02,03,60.0208129981,PLT_learning_02,A,2014_Mrz_28_1330,P28,
stim_fb/ques.jpg,stim_fb/negf.jpg,stim_fb/posf.jpg,stim_02/b.jpg,stim_02/a.jpg,1,1,f,4,52,292,1,f,1,0.599822035088,02,03,60.0208129981,PLT_learning_02,A,2014_Mrz_28_1330,P28,
stim_fb/ques.jpg,stim_fb/negf.jpg,stim_fb/posf.jpg,stim_02/f.jpg,stim_02/e.jpg,1,3,f,4,53,293,42,j,0,0.83311750018,02,03,60.0208129981,PLT_learning_02,A,2014_Mrz_28_1330,P28,
stim_fb/ques.jpg,stim_fb/negf.jpg,stim_fb/posf.jpg,stim_02/c.jpg,stim_02/d.jpg,2,2,j,4,54,294,31,j,1,0.533200010526,02,03,60.0208129981,PLT_learning_02,A,2014_Mrz_28_1330,P28,
stim_fb/ques.jpg,stim_fb/negf.jpg,stim_fb/posf.jpg,stim_02/d.jpg,stim_02/c.jpg,1,2,f,4,55,295,23,j,0,0.566523517406,02,03,60.0208129981,PLT_learning_02,A,2014_Mrz_28_1330,P28,
stim_fb/ques.jpg,stim_fb/negf.jpg,stim_fb/posf.jpg,stim_02/f.jpg,stim_02/e.jpg,1,3,f,4,56,296,44,f,1,0.699798161673,02,03,60.0208129981,PLT_learning_02,A,2014_Mrz_28_1330,P28,
stim_fb/ques.jpg,stim_fb/posf.jpg,stim_fb/negf.jpg,stim_02/a.jpg,stim_02/b.jpg,2,1,j,4,57,297,18,f,0,0.649826111738,02,03,60.0208129981,PLT_learning_02,A,2014_Mrz_28_1330,P28,
stim_fb/ques.jpg,stim_fb/negf.jpg,stim_fb/posf.jpg,stim_02/b.jpg,stim_02/a.jpg,1,1,f,4,58,298,3,f,1,0.666529983497,02,03,60.0208129981,PLT_learning_02,A,2014_Mrz_28_1330,P28,
stim_fb/ques.jpg,stim_fb/negf.jpg,stim_fb/posf.jpg,stim_02/c.jpg,stim_02/d.jpg,2,2,j,4,59,299,33,None,0,,02,03,60.0208129981,PLT_learning_02,A,2014_Mrz_28_1330,P28,
stim_fb/ques.jpg,stim_fb/negf.jpg,stim_fb/posf.jpg,stim_02/d.jpg,stim_02/c.jpg,1,2,f,5,0,300,20,None,0,,02,03,60.0208129981,PLT_learning_02,A,2014_Mrz_28_1330,P28,
stim_fb/ques.jpg,stim_fb/negf.jpg,stim_fb/posf.jpg,stim_02/b.jpg,stim_02/a.jpg,1,1,f,5,1,301,5,f,1,0.333271928514,02,03,60.0208129981,PLT_learning_02,A,2014_Mrz_28_1330,P28,
stim_fb/ques.jpg,stim_fb/posf.jpg,stim_fb/negf.jpg,stim_02/d.jpg,stim_02/c.jpg,1,2,f,5,2,302,27,f,1,0.233325185054,02,03,60.0208129981,PLT_learning_02,A,2014_Mrz_28_1330,P28,
stim_fb/ques.jpg,stim_fb/negf.jpg,stim_fb/posf.jpg,stim_02/a.jpg,stim_02/b.jpg,2,1,j,5,3,303,14,f,0,0.299948006599,02,03,60.0208129981,PLT_learning_02,A,2014_Mrz_28_1330,P28,
stim_fb/ques.jpg,stim_fb/negf.jpg,stim_fb/posf.jpg,stim_02/d.jpg,stim_02/c.jpg,1,2,f,5,4,304,21,j,0,0.549804373633,02,03,60.0208129981,PLT_learning_02,A,2014_Mrz_28_1330,P28,
stim_fb/ques.jpg,stim_fb/posf.jpg,stim_fb/negf.jpg,stim_02/e.jpg,stim_02/f.jpg,2,3,j,5,5,305,57,j,1,0.766465728582,02,03,60.0208129981,PLT_learning_02,A,2014_Mrz_28_1330,P28,
stim_fb/ques.jpg,stim_fb/negf.jpg,stim_fb/posf.jpg,stim_02/c.jpg,stim_02/d.jpg,2,2,j,5,6,306,31,f,0,0.766467665402,02,03,60.0208129981,PLT_learning_02,A,2014_Mrz_28_1330,P28,
stim_fb/ques.jpg,stim_fb/negf.jpg,stim_fb/posf.jpg,stim_02/f.jpg,stim_02/e.jpg,1,3,f,5,7,307,45,j,0,0.233292647074,02,03,60.0208129981,PLT_learning_02,A,2014_Mrz_28_1330,P28,
stim_fb/ques.jpg,stim_fb/negf.jpg,stim_fb/posf.jpg,stim_02/e.jpg,stim_02/f.jpg,2,3,j,5,8,308,51,f,0,0.499853640747,02,03,60.0208129981,PLT_learning_02,A,2014_Mrz_28_1330,P28,
stim_fb/ques.jpg,stim_fb/posf.jpg,stim_fb/negf.jpg,stim_02/f.jpg,stim_02/e.jpg,1,3,f,5,9,309,46,None,0,,02,03,60.0208129981,PLT_learning_02,A,2014_Mrz_28_1330,P28,
stim_fb/ques.jpg,stim_fb/negf.jpg,stim_fb/posf.jpg,stim_02/e.jpg,stim_02/f.jpg,2,3,j,5,10,310,50,None,0,,02,03,60.0208129981,PLT_learning_02,A,2014_Mrz_28_1330,P28,
stim_fb/ques.jpg,stim_fb/negf.jpg,stim_fb/posf.jpg,stim_02/b.jpg,stim_02/a.jpg,1,1,f,5,11,311,4,f,1,0.266633567291,02,03,60.0208129981,PLT_learning_02,A,2014_Mrz_28_1330,P28,
stim_fb/ques.jpg,stim_fb/negf.jpg,stim_fb/posf.jpg,stim_02/f.jpg,stim_02/e.jpg,1,3,f,5,12,312,40,f,1,0.483217112589,02,03,60.0208129981,PLT_learning_02,A,2014_Mrz_28_1330,P28,
stim_fb/ques.jpg,stim_fb/negf.jpg,stim_fb/posf.jpg,stim_02/a.jpg,stim_02/b.jpg,2,1,j,5,13,313,16,f,0,0.0333704687546,02,03,60.0208129981,PLT_learning_02,A,2014_Mrz_28_1330,P28,
stim_fb/ques.jpg,stim_fb/posf.jpg,stim_fb/negf.jpg,stim_02/c.jpg,stim_02/d.jpg,2,2,j,5,14,314,38,f,0,0.266619017078,02,03,60.0208129981,PLT_learning_02,A,2014_Mrz_28_1330,P28,
stim_fb/ques.jpg,stim_fb/posf.jpg,stim_fb/negf.jpg,stim_02/e.jpg,stim_02/f.jpg,2,3,j,5,15,315,58,f,0,0.366627155334,02,03,60.0208129981,PLT_learning_02,A,2014_Mrz_28_1330,P28,
stim_fb/ques.jpg,stim_fb/negf.jpg,stim_fb/posf.jpg,stim_02/a.jpg,stim_02/b.jpg,2,1,j,5,16,316,10,f,0,0.399891120025,02,03,60.0208129981,PLT_learning_02,A,2014_Mrz_28_1330,P28,
stim_fb/ques.jpg,stim_fb/negf.jpg,stim_fb/posf.jpg,stim_02/d.jpg,stim_02/c.jpg,1,2,f,5,17,317,24,j,0,0.433244455136,02,03,60.0208129981,PLT_learning_02,A,2014_Mrz_28_1330,P28,
stim_fb/ques.jpg,stim_fb/negf.jpg,stim_fb/posf.jpg,stim_02/d.jpg,stim_02/c.jpg,1,2,f,5,18,318,26,f,1,0.233281901332,02,03,60.0208129981,PLT_learning_02,A,2014_Mrz_28_1330,P28,
stim_fb/ques.jpg,stim_fb/posf.jpg,stim_fb/negf.jpg,stim_02/f.jpg,stim_02/e.jpg,1,3,f,5,19,319,47,f,1,0.333315182161,02,03,60.0208129981,PLT_learning_02,A,2014_Mrz_28_1330,P28,
stim_fb/ques.jpg,stim_fb/negf.jpg,stim_fb/posf.jpg,stim_02/b.jpg,stim_02/a.jpg,1,1,f,5,20,320,2,j,0,0.58319431886,02,03,60.0208129981,PLT_learning_02,A,2014_Mrz_28_1330,P28,
stim_fb/ques.jpg,stim_fb/posf.jpg,stim_fb/negf.jpg,stim_02/a.jpg,stim_02/b.jpg,2,1,j,5,21,321,19,f,0,1.58285582644,02,03,60.0208129981,PLT_learning_02,A,2014_Mrz_28_1330,P28,
stim_fb/ques.jpg,stim_fb/posf.jpg,stim_fb/negf.jpg,stim_02/c.jpg,stim_02/d.jpg,2,2,j,5,22,322,39,f,0,0.749827576383,02,03,60.0208129981,PLT_learning_02,A,2014_Mrz_28_1330,P28,
stim_fb/ques.jpg,stim_fb/negf.jpg,stim_fb/posf.jpg,stim_02/e.jpg,stim_02/f.jpg,2,3,j,5,23,323,52,f,0,0.449896553044,02,03,60.0208129981,PLT_learning_02,A,2014_Mrz_28_1330,P28,
stim_fb/ques.jpg,stim_fb/negf.jpg,stim_fb/posf.jpg,stim_02/a.jpg,stim_02/b.jpg,2,1,j,5,24,324,17,j,1,1.59947155784,02,03,60.0208129981,PLT_learning_02,A,2014_Mrz_28_1330,P28,
stim_fb/ques.jpg,stim_fb/negf.jpg,stim_fb/posf.jpg,stim_02/c.jpg,stim_02/d.jpg,2,2,j,5,25,325,34,j,1,0.666478308889,02,03,60.0208129981,PLT_learning_02,A,2014_Mrz_28_1330,P28,
stim_fb/ques.jpg,stim_fb/posf.jpg,stim_fb/negf.jpg,stim_02/b.jpg,stim_02/a.jpg,1,1,f,5,26,326,9,j,0,0.299965997376,02,03,60.0208129981,PLT_learning_02,A,2014_Mrz_28_1330,P28,
stim_fb/ques.jpg,stim_fb/negf.jpg,stim_fb/posf.jpg,stim_02/c.jpg,stim_02/d.jpg,2,2,j,5,27,327,36,j,1,0.499881742689,02,03,60.0208129981,PLT_learning_02,A,2014_Mrz_28_1330,P28,
stim_fb/ques.jpg,stim_fb/negf.jpg,stim_fb/posf.jpg,stim_02/b.jpg,stim_02/a.jpg,1,1,f,5,28,328,3,j,0,0.599792648958,02,03,60.0208129981,PLT_learning_02,A,2014_Mrz_28_1330,P28,
stim_fb/ques.jpg,stim_fb/negf.jpg,stim_fb/posf.jpg,stim_02/e.jpg,stim_02/f.jpg,2,3,j,5,29,329,55,f,0,0.533197096276,02,03,60.0208129981,PLT_learning_02,A,2014_Mrz_28_1330,P28,
stim_fb/ques.jpg,stim_fb/negf.jpg,stim_fb/posf.jpg,stim_02/b.jpg,stim_02/a.jpg,1,1,f,5,30,330,1,j,0,0.899757073417,02,03,60.0208129981,PLT_learning_02,A,2014_Mrz_28_1330,P28,
stim_fb/ques.jpg,stim_fb/negf.jpg,stim_fb/posf.jpg,stim_02/f.jpg,stim_02/e.jpg,1,3,f,5,31,331,44,f,1,1.14965296482,02,03,60.0208129981,PLT_learning_02,A,2014_Mrz_28_1330,P28,
stim_fb/ques.jpg,stim_fb/posf.jpg,stim_fb/negf.jpg,stim_02/f.jpg,stim_02/e.jpg,1,3,f,5,32,332,48,f,1,0.466570987544,02,03,60.0208129981,PLT_learning_02,A,2014_Mrz_28_1330,P28,
stim_fb/ques.jpg,stim_fb/negf.jpg,stim_fb/posf.jpg,stim_02/b.jpg,stim_02/a.jpg,1,1,f,5,33,333,0,j,0,0.299963380865,02,03,60.0208129981,PLT_learning_02,A,2014_Mrz_28_1330,P28,
stim_fb/ques.jpg,stim_fb/negf.jpg,stim_fb/posf.jpg,stim_02/a.jpg,stim_02/b.jpg,2,1,j,5,34,334,15,j,1,0.716474484874,02,03,60.0208129981,PLT_learning_02,A,2014_Mrz_28_1330,P28,
stim_fb/ques.jpg,stim_fb/posf.jpg,stim_fb/negf.jpg,stim_02/c.jpg,stim_02/d.jpg,2,2,j,5,35,335,37,j,1,0.766441223594,02,03,60.0208129981,PLT_learning_02,A,2014_Mrz_28_1330,P28,
stim_fb/ques.jpg,stim_fb/negf.jpg,stim_fb/posf.jpg,stim_02/f.jpg,stim_02/e.jpg,1,3,f,5,36,336,41,j,0,0.866452149789,02,03,60.0208129981,PLT_learning_02,A,2014_Mrz_28_1330,P28,
stim_fb/ques.jpg,stim_fb/negf.jpg,stim_fb/posf.jpg,stim_02/f.jpg,stim_02/e.jpg,1,3,f,5,37,337,43,j,0,0.399919976844,02,03,60.0208129981,PLT_learning_02,A,2014_Mrz_28_1330,P28,
stim_fb/ques.jpg,stim_fb/negf.jpg,stim_fb/posf.jpg,stim_02/d.jpg,stim_02/c.jpg,1,2,f,5,38,338,25,f,1,1.63284230328,02,03,60.0208129981,PLT_learning_02,A,2014_Mrz_28_1330,P28,
stim_fb/ques.jpg,stim_fb/posf.jpg,stim_fb/negf.jpg,stim_02/d.jpg,stim_02/c.jpg,1,2,f,5,39,339,28,j,0,1.61615669297,02,03,60.0208129981,PLT_learning_02,A,2014_Mrz_28_1330,P28,
stim_fb/ques.jpg,stim_fb/posf.jpg,stim_fb/negf.jpg,stim_02/e.jpg,stim_02/f.jpg,2,3,j,5,40,340,59,j,1,0.0333588748981,02,03,60.0208129981,PLT_learning_02,A,2014_Mrz_28_1330,P28,
stim_fb/ques.jpg,stim_fb/negf.jpg,stim_fb/posf.jpg,stim_02/c.jpg,stim_02/d.jpg,2,2,j,5,41,341,35,f,0,0.866252858803,02,03,60.0208129981,PLT_learning_02,A,2014_Mrz_28_1330,P28,
stim_fb/ques.jpg,stim_fb/negf.jpg,stim_fb/posf.jpg,stim_02/e.jpg,stim_02/f.jpg,2,3,j,5,42,342,54,None,0,,02,03,60.0208129981,PLT_learning_02,A,2014_Mrz_28_1330,P28,
stim_fb/ques.jpg,stim_fb/negf.jpg,stim_fb/posf.jpg,stim_02/c.jpg,stim_02/d.jpg,2,2,j,5,43,343,33,j,1,1.26622535535,02,03,60.0208129981,PLT_learning_02,A,2014_Mrz_28_1330,P28,
stim_fb/ques.jpg,stim_fb/posf.jpg,stim_fb/negf.jpg,stim_02/d.jpg,stim_02/c.jpg,1,2,f,5,44,344,29,None,0,,02,03,60.0208129981,PLT_learning_02,A,2014_Mrz_28_1330,P28,
stim_fb/ques.jpg,stim_fb/posf.jpg,stim_fb/negf.jpg,stim_02/a.jpg,stim_02/b.jpg,2,1,j,5,45,345,18,j,1,0.41657578298,02,03,60.0208129981,PLT_learning_02,A,2014_Mrz_28_1330,P28,
stim_fb/ques.jpg,stim_fb/negf.jpg,stim_fb/posf.jpg,stim_02/b.jpg,stim_02/a.jpg,1,1,f,5,46,346,6,None,0,,02,03,60.0208129981,PLT_learning_02,A,2014_Mrz_28_1330,P28,
stim_fb/ques.jpg,stim_fb/posf.jpg,stim_fb/negf.jpg,stim_02/b.jpg,stim_02/a.jpg,1,1,f,5,47,347,8,None,0,,02,03,60.0208129981,PLT_learning_02,A,2014_Mrz_28_1330,P28,
stim_fb/ques.jpg,stim_fb/negf.jpg,stim_fb/posf.jpg,stim_02/c.jpg,stim_02/d.jpg,2,2,j,5,48,348,30,j,1,0.38320252328,02,03,60.0208129981,PLT_learning_02,A,2014_Mrz_28_1330,P28,
stim_fb/ques.jpg,stim_fb/posf.jpg,stim_fb/negf.jpg,stim_02/f.jpg,stim_02/e.jpg,1,3,f,5,49,349,49,j,0,0.283312347605,02,03,60.0208129981,PLT_learning_02,A,2014_Mrz_28_1330,P28,
stim_fb/ques.jpg,stim_fb/negf.jpg,stim_fb/posf.jpg,stim_02/d.jpg,stim_02/c.jpg,1,2,f,5,50,350,23,j,0,0.583162355313,02,03,60.0208129981,PLT_learning_02,A,2014_Mrz_28_1330,P28,
stim_fb/ques.jpg,stim_fb/negf.jpg,stim_fb/posf.jpg,stim_02/b.jpg,stim_02/a.jpg,1,1,f,5,51,351,7,f,1,0.266599967668,02,03,60.0208129981,PLT_learning_02,A,2014_Mrz_28_1330,P28,
stim_fb/ques.jpg,stim_fb/negf.jpg,stim_fb/posf.jpg,stim_02/d.jpg,stim_02/c.jpg,1,2,f,5,52,352,22,f,1,0.533209538236,02,03,60.0208129981,PLT_learning_02,A,2014_Mrz_28_1330,P28,
stim_fb/ques.jpg,stim_fb/negf.jpg,stim_fb/posf.jpg,stim_02/a.jpg,stim_02/b.jpg,2,1,j,5,53,353,12,j,1,0.749795324115,02,03,60.0208129981,PLT_learning_02,A,2014_Mrz_28_1330,P28,
stim_fb/ques.jpg,stim_fb/negf.jpg,stim_fb/posf.jpg,stim_02/a.jpg,stim_02/b.jpg,2,1,j,5,54,354,13,j,1,1.41626596993,02,03,60.0208129981,PLT_learning_02,A,2014_Mrz_28_1330,P28,
stim_fb/ques.jpg,stim_fb/negf.jpg,stim_fb/posf.jpg,stim_02/f.jpg,stim_02/e.jpg,1,3,f,5,55,355,42,j,0,1.41623280038,02,03,60.0208129981,PLT_learning_02,A,2014_Mrz_28_1330,P28,
stim_fb/ques.jpg,stim_fb/negf.jpg,stim_fb/posf.jpg,stim_02/e.jpg,stim_02/f.jpg,2,3,j,5,56,356,53,j,1,0.449851043784,02,03,60.0208129981,PLT_learning_02,A,2014_Mrz_28_1330,P28,
stim_fb/ques.jpg,stim_fb/negf.jpg,stim_fb/posf.jpg,stim_02/a.jpg,stim_02/b.jpg,2,1,j,5,57,357,11,j,1,0.683137955584,02,03,60.0208129981,PLT_learning_02,A,2014_Mrz_28_1330,P28,
stim_fb/ques.jpg,stim_fb/posf.jpg,stim_fb/negf.jpg,stim_02/e.jpg,stim_02/f.jpg,2,3,j,5,58,358,56,j,1,1.11632737074,02,03,60.0208129981,PLT_learning_02,A,2014_Mrz_28_1330,P28,
stim_fb/ques.jpg,stim_fb/negf.jpg,stim_fb/posf.jpg,stim_02/c.jpg,stim_02/d.jpg,2,2,j,5,59,359,32,f,0,0.199973621351,02,03,60.0208129981,PLT_learning_02,A,2014_Mrz_28_1330,P28,
