Fb3,Fb2,Fb1,Symbol2,Symbol1,PosCond,Pair,Correct,trials.thisRepN,trials.thisTrialN,trials.thisN,trials.thisIndex,Response.keys,Response.corr,Response.rt,Version,Session Number,frameRate,expName,StimCondition,date,Participant,
stim_fb/ques.jpg,stim_fb/negf.jpg,stim_fb/posf.jpg,stim_01/a.jpg,stim_01/b.jpg,2,1,j,0,0,0,15,f,0,0.83311309539,01,02,60.01427589,PLT_learning_01,A,2014_Mrz_24_1445,P29,
stim_fb/ques.jpg,stim_fb/negf.jpg,stim_fb/posf.jpg,stim_01/b.jpg,stim_01/a.jpg,1,1,f,0,1,1,6,f,1,1.46624572447,01,02,60.01427589,PLT_learning_01,A,2014_Mrz_24_1445,P29,
stim_fb/ques.jpg,stim_fb/posf.jpg,stim_fb/negf.jpg,stim_01/d.jpg,stim_01/c.jpg,1,2,f,0,2,2,29,j,0,0.899718856249,01,02,60.01427589,PLT_learning_01,A,2014_Mrz_24_1445,P29,
stim_fb/ques.jpg,stim_fb/negf.jpg,stim_fb/posf.jpg,stim_01/d.jpg,stim_01/c.jpg,1,2,f,0,3,3,24,j,0,0.883094418839,01,02,60.01427589,PLT_learning_01,A,2014_Mrz_24_1445,P29,
stim_fb/ques.jpg,stim_fb/negf.jpg,stim_fb/posf.jpg,stim_01/c.jpg,stim_01/d.jpg,2,2,j,0,4,4,33,f,0,1.38280757889,01,02,60.01427589,PLT_learning_01,A,2014_Mrz_24_1445,P29,
stim_fb/ques.jpg,stim_fb/negf.jpg,stim_fb/posf.jpg,stim_01/a.jpg,stim_01/b.jpg,2,1,j,0,5,5,13,j,1,1.5828445741,01,02,60.01427589,PLT_learning_01,A,2014_Mrz_24_1445,P29,
stim_fb/ques.jpg,stim_fb/negf.jpg,stim_fb/posf.jpg,stim_01/e.jpg,stim_01/f.jpg,2,3,j,0,6,6,53,j,1,1.03306560101,01,02,60.01427589,PLT_learning_01,A,2014_Mrz_24_1445,P29,
stim_fb/ques.jpg,stim_fb/posf.jpg,stim_fb/negf.jpg,stim_01/c.jpg,stim_01/d.jpg,2,2,j,0,7,7,38,j,1,1.58286439049,01,02,60.01427589,PLT_learning_01,A,2014_Mrz_24_1445,P29,
stim_fb/ques.jpg,stim_fb/negf.jpg,stim_fb/posf.jpg,stim_01/e.jpg,stim_01/f.jpg,2,3,j,0,8,8,55,j,1,0.783114972068,01,02,60.01427589,PLT_learning_01,A,2014_Mrz_24_1445,P29,
stim_fb/ques.jpg,stim_fb/negf.jpg,stim_fb/posf.jpg,stim_01/b.jpg,stim_01/a.jpg,1,1,f,0,9,9,0,f,1,1.133054765,01,02,60.01427589,PLT_learning_01,A,2014_Mrz_24_1445,P29,
stim_fb/ques.jpg,stim_fb/posf.jpg,stim_fb/negf.jpg,stim_01/f.jpg,stim_01/e.jpg,1,3,f,0,10,10,48,f,1,1.03303599221,01,02,60.01427589,PLT_learning_01,A,2014_Mrz_24_1445,P29,
stim_fb/ques.jpg,stim_fb/posf.jpg,stim_fb/negf.jpg,stim_01/f.jpg,stim_01/e.jpg,1,3,f,0,11,11,47,j,0,1.51620387516,01,02,60.01427589,PLT_learning_01,A,2014_Mrz_24_1445,P29,
stim_fb/ques.jpg,stim_fb/negf.jpg,stim_fb/posf.jpg,stim_01/f.jpg,stim_01/e.jpg,1,3,f,0,12,12,40,j,0,0.749826810325,01,02,60.01427589,PLT_learning_01,A,2014_Mrz_24_1445,P29,
stim_fb/ques.jpg,stim_fb/negf.jpg,stim_fb/posf.jpg,stim_01/b.jpg,stim_01/a.jpg,1,1,f,0,13,13,2,f,1,1.0163758859,01,02,60.01427589,PLT_learning_01,A,2014_Mrz_24_1445,P29,
stim_fb/ques.jpg,stim_fb/negf.jpg,stim_fb/posf.jpg,stim_01/b.jpg,stim_01/a.jpg,1,1,f,0,14,14,4,f,1,0.749640953076,01,02,60.01427589,PLT_learning_01,A,2014_Mrz_24_1445,P29,
stim_fb/ques.jpg,stim_fb/negf.jpg,stim_fb/posf.jpg,stim_01/e.jpg,stim_01/f.jpg,2,3,j,0,15,15,50,f,0,1.11631424726,01,02,60.01427589,PLT_learning_01,A,2014_Mrz_24_1445,P29,
stim_fb/ques.jpg,stim_fb/posf.jpg,stim_fb/negf.jpg,stim_01/d.jpg,stim_01/c.jpg,1,2,f,0,16,16,27,f,1,1.18285868527,01,02,60.01427589,PLT_learning_01,A,2014_Mrz_24_1445,P29,
stim_fb/ques.jpg,stim_fb/negf.jpg,stim_fb/posf.jpg,stim_01/a.jpg,stim_01/b.jpg,2,1,j,0,17,17,12,j,1,1.03306770626,01,02,60.01427589,PLT_learning_01,A,2014_Mrz_24_1445,P29,
stim_fb/ques.jpg,stim_fb/negf.jpg,stim_fb/posf.jpg,stim_01/c.jpg,stim_01/d.jpg,2,2,j,0,18,18,36,j,1,1.16638103473,01,02,60.01427589,PLT_learning_01,A,2014_Mrz_24_1445,P29,
stim_fb/ques.jpg,stim_fb/posf.jpg,stim_fb/negf.jpg,stim_01/a.jpg,stim_01/b.jpg,2,1,j,0,19,19,18,j,1,0.999724477259,01,02,60.01427589,PLT_learning_01,A,2014_Mrz_24_1445,P29,
stim_fb/ques.jpg,stim_fb/posf.jpg,stim_fb/negf.jpg,stim_01/f.jpg,stim_01/e.jpg,1,3,f,0,20,20,49,f,1,1.09965069135,01,02,60.01427589,PLT_learning_01,A,2014_Mrz_24_1445,P29,
stim_fb/ques.jpg,stim_fb/negf.jpg,stim_fb/posf.jpg,stim_01/c.jpg,stim_01/d.jpg,2,2,j,0,21,21,31,j,1,1.01642927798,01,02,60.01427589,PLT_learning_01,A,2014_Mrz_24_1445,P29,
stim_fb/ques.jpg,stim_fb/negf.jpg,stim_fb/posf.jpg,stim_01/f.jpg,stim_01/e.jpg,1,3,f,0,22,22,43,j,0,1.19965291389,01,02,60.01427589,PLT_learning_01,A,2014_Mrz_24_1445,P29,
stim_fb/ques.jpg,stim_fb/posf.jpg,stim_fb/negf.jpg,stim_01/a.jpg,stim_01/b.jpg,2,1,j,0,23,23,19,j,1,0.833110821723,01,02,60.01427589,PLT_learning_01,A,2014_Mrz_24_1445,P29,
stim_fb/ques.jpg,stim_fb/negf.jpg,stim_fb/posf.jpg,stim_01/f.jpg,stim_01/e.jpg,1,3,f,0,24,24,42,j,0,1.33295702438,01,02,60.01427589,PLT_learning_01,A,2014_Mrz_24_1445,P29,
stim_fb/ques.jpg,stim_fb/negf.jpg,stim_fb/posf.jpg,stim_01/c.jpg,stim_01/d.jpg,2,2,j,0,25,25,34,j,1,0.699844807183,01,02,60.01427589,PLT_learning_01,A,2014_Mrz_24_1445,P29,
stim_fb/ques.jpg,stim_fb/negf.jpg,stim_fb/posf.jpg,stim_01/f.jpg,stim_01/e.jpg,1,3,f,0,26,26,44,f,1,0.816440547063,01,02,60.01427589,PLT_learning_01,A,2014_Mrz_24_1445,P29,
stim_fb/ques.jpg,stim_fb/negf.jpg,stim_fb/posf.jpg,stim_01/b.jpg,stim_01/a.jpg,1,1,f,0,27,27,7,f,1,0.616515538981,01,02,60.01427589,PLT_learning_01,A,2014_Mrz_24_1445,P29,
stim_fb/ques.jpg,stim_fb/negf.jpg,stim_fb/posf.jpg,stim_01/d.jpg,stim_01/c.jpg,1,2,f,0,28,28,26,j,0,0.933079664062,01,02,60.01427589,PLT_learning_01,A,2014_Mrz_24_1445,P29,
stim_fb/ques.jpg,stim_fb/negf.jpg,stim_fb/posf.jpg,stim_01/a.jpg,stim_01/b.jpg,2,1,j,0,29,29,14,j,1,0.833125113345,01,02,60.01427589,PLT_learning_01,A,2014_Mrz_24_1445,P29,
stim_fb/ques.jpg,stim_fb/negf.jpg,stim_fb/posf.jpg,stim_01/c.jpg,stim_01/d.jpg,2,2,j,0,30,30,30,j,1,0.949684829437,01,02,60.01427589,PLT_learning_01,A,2014_Mrz_24_1445,P29,
stim_fb/ques.jpg,stim_fb/negf.jpg,stim_fb/posf.jpg,stim_01/a.jpg,stim_01/b.jpg,2,1,j,0,31,31,16,j,1,0.766430462929,01,02,60.01427589,PLT_learning_01,A,2014_Mrz_24_1445,P29,
stim_fb/ques.jpg,stim_fb/negf.jpg,stim_fb/posf.jpg,stim_01/a.jpg,stim_01/b.jpg,2,1,j,0,32,32,11,j,1,0.649811060068,01,02,60.01427589,PLT_learning_01,A,2014_Mrz_24_1445,P29,
stim_fb/ques.jpg,stim_fb/posf.jpg,stim_fb/negf.jpg,stim_01/d.jpg,stim_01/c.jpg,1,2,f,0,33,33,28,j,0,1.09972436297,01,02,60.01427589,PLT_learning_01,A,2014_Mrz_24_1445,P29,
stim_fb/ques.jpg,stim_fb/negf.jpg,stim_fb/posf.jpg,stim_01/d.jpg,stim_01/c.jpg,1,2,f,0,34,34,21,j,0,1.28296720476,01,02,60.01427589,PLT_learning_01,A,2014_Mrz_24_1445,P29,
stim_fb/ques.jpg,stim_fb/posf.jpg,stim_fb/negf.jpg,stim_01/e.jpg,stim_01/f.jpg,2,3,j,0,35,35,59,None,0,,01,02,60.01427589,PLT_learning_01,A,2014_Mrz_24_1445,P29,
stim_fb/ques.jpg,stim_fb/negf.jpg,stim_fb/posf.jpg,stim_01/e.jpg,stim_01/f.jpg,2,3,j,0,36,36,52,j,1,0.633166135593,01,02,60.01427589,PLT_learning_01,A,2014_Mrz_24_1445,P29,
stim_fb/ques.jpg,stim_fb/negf.jpg,stim_fb/posf.jpg,stim_01/b.jpg,stim_01/a.jpg,1,1,f,0,37,37,1,f,1,0.599812440508,01,02,60.01427589,PLT_learning_01,A,2014_Mrz_24_1445,P29,
stim_fb/ques.jpg,stim_fb/posf.jpg,stim_fb/negf.jpg,stim_01/c.jpg,stim_01/d.jpg,2,2,j,0,38,38,37,j,1,0.683202631559,01,02,60.01427589,PLT_learning_01,A,2014_Mrz_24_1445,P29,
stim_fb/ques.jpg,stim_fb/negf.jpg,stim_fb/posf.jpg,stim_01/e.jpg,stim_01/f.jpg,2,3,j,0,39,39,51,j,1,0.866464201022,01,02,60.01427589,PLT_learning_01,A,2014_Mrz_24_1445,P29,
stim_fb/ques.jpg,stim_fb/negf.jpg,stim_fb/posf.jpg,stim_01/c.jpg,stim_01/d.jpg,2,2,j,0,40,40,35,j,1,0.59985037105,01,02,60.01427589,PLT_learning_01,A,2014_Mrz_24_1445,P29,
stim_fb/ques.jpg,stim_fb/negf.jpg,stim_fb/posf.jpg,stim_01/e.jpg,stim_01/f.jpg,2,3,j,0,41,41,54,j,1,0.94972601409,01,02,60.01427589,PLT_learning_01,A,2014_Mrz_24_1445,P29,
stim_fb/ques.jpg,stim_fb/negf.jpg,stim_fb/posf.jpg,stim_01/d.jpg,stim_01/c.jpg,1,2,f,0,42,42,25,f,1,0.816437975654,01,02,60.01427589,PLT_learning_01,A,2014_Mrz_24_1445,P29,
stim_fb/ques.jpg,stim_fb/negf.jpg,stim_fb/posf.jpg,stim_01/b.jpg,stim_01/a.jpg,1,1,f,0,43,43,5,f,1,0.733138289185,01,02,60.01427589,PLT_learning_01,A,2014_Mrz_24_1445,P29,
stim_fb/ques.jpg,stim_fb/negf.jpg,stim_fb/posf.jpg,stim_01/a.jpg,stim_01/b.jpg,2,1,j,0,44,44,10,j,1,0.966397891745,01,02,60.01427589,PLT_learning_01,A,2014_Mrz_24_1445,P29,
stim_fb/ques.jpg,stim_fb/posf.jpg,stim_fb/negf.jpg,stim_01/e.jpg,stim_01/f.jpg,2,3,j,0,45,45,57,f,0,1.03303582379,01,02,60.01427589,PLT_learning_01,A,2014_Mrz_24_1445,P29,
stim_fb/ques.jpg,stim_fb/negf.jpg,stim_fb/posf.jpg,stim_01/f.jpg,stim_01/e.jpg,1,3,f,0,46,46,41,j,0,1.16637718513,01,02,60.01427589,PLT_learning_01,A,2014_Mrz_24_1445,P29,
stim_fb/ques.jpg,stim_fb/posf.jpg,stim_fb/negf.jpg,stim_01/e.jpg,stim_01/f.jpg,2,3,j,0,47,47,56,f,0,1.4495815851,01,02,60.01427589,PLT_learning_01,A,2014_Mrz_24_1445,P29,
stim_fb/ques.jpg,stim_fb/negf.jpg,stim_fb/posf.jpg,stim_01/c.jpg,stim_01/d.jpg,2,2,j,0,48,48,32,j,1,0.883079077601,01,02,60.01427589,PLT_learning_01,A,2014_Mrz_24_1445,P29,
stim_fb/ques.jpg,stim_fb/negf.jpg,stim_fb/posf.jpg,stim_01/d.jpg,stim_01/c.jpg,1,2,f,0,49,49,22,f,1,0.766435028308,01,02,60.01427589,PLT_learning_01,A,2014_Mrz_24_1445,P29,
stim_fb/ques.jpg,stim_fb/posf.jpg,stim_fb/negf.jpg,stim_01/e.jpg,stim_01/f.jpg,2,3,j,0,50,50,58,j,1,1.19963798468,01,02,60.01427589,PLT_learning_01,A,2014_Mrz_24_1445,P29,
stim_fb/ques.jpg,stim_fb/negf.jpg,stim_fb/posf.jpg,stim_01/b.jpg,stim_01/a.jpg,1,1,f,0,51,51,3,f,1,0.849783706889,01,02,60.01427589,PLT_learning_01,A,2014_Mrz_24_1445,P29,
stim_fb/ques.jpg,stim_fb/negf.jpg,stim_fb/posf.jpg,stim_01/d.jpg,stim_01/c.jpg,1,2,f,0,52,52,20,f,1,0.933062157427,01,02,60.01427589,PLT_learning_01,A,2014_Mrz_24_1445,P29,
stim_fb/ques.jpg,stim_fb/negf.jpg,stim_fb/posf.jpg,stim_01/d.jpg,stim_01/c.jpg,1,2,f,0,53,53,23,f,1,1.19968488658,01,02,60.01427589,PLT_learning_01,A,2014_Mrz_24_1445,P29,
stim_fb/ques.jpg,stim_fb/posf.jpg,stim_fb/negf.jpg,stim_01/c.jpg,stim_01/d.jpg,2,2,j,0,54,54,39,f,0,0.949782786596,01,02,60.01427589,PLT_learning_01,A,2014_Mrz_24_1445,P29,
stim_fb/ques.jpg,stim_fb/posf.jpg,stim_fb/negf.jpg,stim_01/f.jpg,stim_01/e.jpg,1,3,f,0,55,55,46,j,0,1.14967175585,01,02,60.01427589,PLT_learning_01,A,2014_Mrz_24_1445,P29,
stim_fb/ques.jpg,stim_fb/posf.jpg,stim_fb/negf.jpg,stim_01/b.jpg,stim_01/a.jpg,1,1,f,0,56,56,8,f,1,0.833118478809,01,02,60.01427589,PLT_learning_01,A,2014_Mrz_24_1445,P29,
stim_fb/ques.jpg,stim_fb/negf.jpg,stim_fb/posf.jpg,stim_01/a.jpg,stim_01/b.jpg,2,1,j,0,57,57,17,j,1,0.916397732348,01,02,60.01427589,PLT_learning_01,A,2014_Mrz_24_1445,P29,
stim_fb/ques.jpg,stim_fb/negf.jpg,stim_fb/posf.jpg,stim_01/f.jpg,stim_01/e.jpg,1,3,f,0,58,58,45,f,1,1.2162982143,01,02,60.01427589,PLT_learning_01,A,2014_Mrz_24_1445,P29,
stim_fb/ques.jpg,stim_fb/posf.jpg,stim_fb/negf.jpg,stim_01/b.jpg,stim_01/a.jpg,1,1,f,0,59,59,9,f,1,0.76648650762,01,02,60.01427589,PLT_learning_01,A,2014_Mrz_24_1445,P29,
stim_fb/ques.jpg,stim_fb/posf.jpg,stim_fb/negf.jpg,stim_01/e.jpg,stim_01/f.jpg,2,3,j,1,0,60,57,j,1,0.733015622439,01,02,60.01427589,PLT_learning_01,A,2014_Mrz_24_1445,P29,
stim_fb/ques.jpg,stim_fb/negf.jpg,stim_fb/posf.jpg,stim_01/f.jpg,stim_01/e.jpg,1,3,f,1,1,61,45,f,1,0.616500131578,01,02,60.01427589,PLT_learning_01,A,2014_Mrz_24_1445,P29,
stim_fb/ques.jpg,stim_fb/posf.jpg,stim_fb/negf.jpg,stim_01/d.jpg,stim_01/c.jpg,1,2,f,1,2,62,27,f,1,0.733119898347,01,02,60.01427589,PLT_learning_01,A,2014_Mrz_24_1445,P29,
stim_fb/ques.jpg,stim_fb/negf.jpg,stim_fb/posf.jpg,stim_01/a.jpg,stim_01/b.jpg,2,1,j,1,3,63,13,j,1,0.699818590838,01,02,60.01427589,PLT_learning_01,A,2014_Mrz_24_1445,P29,
stim_fb/ques.jpg,stim_fb/negf.jpg,stim_fb/posf.jpg,stim_01/b.jpg,stim_01/a.jpg,1,1,f,1,4,64,3,f,1,0.53318534447,01,02,60.01427589,PLT_learning_01,A,2014_Mrz_24_1445,P29,
stim_fb/ques.jpg,stim_fb/negf.jpg,stim_fb/posf.jpg,stim_01/c.jpg,stim_01/d.jpg,2,2,j,1,5,65,31,j,1,0.833115095375,01,02,60.01427589,PLT_learning_01,A,2014_Mrz_24_1445,P29,
stim_fb/ques.jpg,stim_fb/posf.jpg,stim_fb/negf.jpg,stim_01/d.jpg,stim_01/c.jpg,1,2,f,1,6,66,28,f,1,0.516551277058,01,02,60.01427589,PLT_learning_01,A,2014_Mrz_24_1445,P29,
stim_fb/ques.jpg,stim_fb/negf.jpg,stim_fb/posf.jpg,stim_01/e.jpg,stim_01/f.jpg,2,3,j,1,7,67,50,f,0,1.38291956602,01,02,60.01427589,PLT_learning_01,A,2014_Mrz_24_1445,P29,
stim_fb/ques.jpg,stim_fb/posf.jpg,stim_fb/negf.jpg,stim_01/c.jpg,stim_01/d.jpg,2,2,j,1,8,68,37,j,1,1.26627100247,01,02,60.01427589,PLT_learning_01,A,2014_Mrz_24_1445,P29,
stim_fb/ques.jpg,stim_fb/negf.jpg,stim_fb/posf.jpg,stim_01/a.jpg,stim_01/b.jpg,2,1,j,1,9,69,16,j,1,0.733107985654,01,02,60.01427589,PLT_learning_01,A,2014_Mrz_24_1445,P29,
stim_fb/ques.jpg,stim_fb/negf.jpg,stim_fb/posf.jpg,stim_01/e.jpg,stim_01/f.jpg,2,3,j,1,10,70,53,f,0,0.899738320764,01,02,60.01427589,PLT_learning_01,A,2014_Mrz_24_1445,P29,
stim_fb/ques.jpg,stim_fb/negf.jpg,stim_fb/posf.jpg,stim_01/b.jpg,stim_01/a.jpg,1,1,f,1,11,71,2,f,1,0.666518269787,01,02,60.01427589,PLT_learning_01,A,2014_Mrz_24_1445,P29,
stim_fb/ques.jpg,stim_fb/posf.jpg,stim_fb/negf.jpg,stim_01/f.jpg,stim_01/e.jpg,1,3,f,1,12,72,48,f,1,0.866429705039,01,02,60.01427589,PLT_learning_01,A,2014_Mrz_24_1445,P29,
stim_fb/ques.jpg,stim_fb/posf.jpg,stim_fb/negf.jpg,stim_01/c.jpg,stim_01/d.jpg,2,2,j,1,13,73,39,j,1,0.849773183661,01,02,60.01427589,PLT_learning_01,A,2014_Mrz_24_1445,P29,
stim_fb/ques.jpg,stim_fb/negf.jpg,stim_fb/posf.jpg,stim_01/b.jpg,stim_01/a.jpg,1,1,f,1,14,74,7,f,1,0.766452983061,01,02,60.01427589,PLT_learning_01,A,2014_Mrz_24_1445,P29,
stim_fb/ques.jpg,stim_fb/negf.jpg,stim_fb/posf.jpg,stim_01/d.jpg,stim_01/c.jpg,1,2,f,1,15,75,20,f,1,0.833108617228,01,02,60.01427589,PLT_learning_01,A,2014_Mrz_24_1445,P29,
stim_fb/ques.jpg,stim_fb/negf.jpg,stim_fb/posf.jpg,stim_01/b.jpg,stim_01/a.jpg,1,1,f,1,16,76,4,f,1,0.883106502959,01,02,60.01427589,PLT_learning_01,A,2014_Mrz_24_1445,P29,
stim_fb/ques.jpg,stim_fb/negf.jpg,stim_fb/posf.jpg,stim_01/a.jpg,stim_01/b.jpg,2,1,j,1,17,77,17,j,1,0.783109693913,01,02,60.01427589,PLT_learning_01,A,2014_Mrz_24_1445,P29,
stim_fb/ques.jpg,stim_fb/negf.jpg,stim_fb/posf.jpg,stim_01/f.jpg,stim_01/e.jpg,1,3,f,1,18,78,42,j,0,0.783082003894,01,02,60.01427589,PLT_learning_01,A,2014_Mrz_24_1445,P29,
stim_fb/ques.jpg,stim_fb/negf.jpg,stim_fb/posf.jpg,stim_01/e.jpg,stim_01/f.jpg,2,3,j,1,19,79,55,j,1,1.06635220788,01,02,60.01427589,PLT_learning_01,A,2014_Mrz_24_1445,P29,
stim_fb/ques.jpg,stim_fb/posf.jpg,stim_fb/negf.jpg,stim_01/e.jpg,stim_01/f.jpg,2,3,j,1,20,80,56,j,1,0.799728471215,01,02,60.01427589,PLT_learning_01,A,2014_Mrz_24_1445,P29,
stim_fb/ques.jpg,stim_fb/posf.jpg,stim_fb/negf.jpg,stim_01/f.jpg,stim_01/e.jpg,1,3,f,1,21,81,49,f,1,0.616507337539,01,02,60.01427589,PLT_learning_01,A,2014_Mrz_24_1445,P29,
stim_fb/ques.jpg,stim_fb/negf.jpg,stim_fb/posf.jpg,stim_01/d.jpg,stim_01/c.jpg,1,2,f,1,22,82,21,f,1,0.766487752723,01,02,60.01427589,PLT_learning_01,A,2014_Mrz_24_1445,P29,
stim_fb/ques.jpg,stim_fb/negf.jpg,stim_fb/posf.jpg,stim_01/a.jpg,stim_01/b.jpg,2,1,j,1,23,83,11,j,1,0.683167747611,01,02,60.01427589,PLT_learning_01,A,2014_Mrz_24_1445,P29,
stim_fb/ques.jpg,stim_fb/negf.jpg,stim_fb/posf.jpg,stim_01/c.jpg,stim_01/d.jpg,2,2,j,1,24,84,33,j,1,0.799786621153,01,02,60.01427589,PLT_learning_01,A,2014_Mrz_24_1445,P29,
stim_fb/ques.jpg,stim_fb/posf.jpg,stim_fb/negf.jpg,stim_01/e.jpg,stim_01/f.jpg,2,3,j,1,25,85,58,j,1,0.816462321336,01,02,60.01427589,PLT_learning_01,A,2014_Mrz_24_1445,P29,
stim_fb/ques.jpg,stim_fb/negf.jpg,stim_fb/posf.jpg,stim_01/d.jpg,stim_01/c.jpg,1,2,f,1,26,86,23,f,1,0.666502790205,01,02,60.01427589,PLT_learning_01,A,2014_Mrz_24_1445,P29,
stim_fb/ques.jpg,stim_fb/negf.jpg,stim_fb/posf.jpg,stim_01/b.jpg,stim_01/a.jpg,1,1,f,1,27,87,6,f,1,0.549876431004,01,02,60.01427589,PLT_learning_01,A,2014_Mrz_24_1445,P29,
stim_fb/ques.jpg,stim_fb/posf.jpg,stim_fb/negf.jpg,stim_01/b.jpg,stim_01/a.jpg,1,1,f,1,28,88,8,f,1,0.649815589356,01,02,60.01427589,PLT_learning_01,A,2014_Mrz_24_1445,P29,
stim_fb/ques.jpg,stim_fb/negf.jpg,stim_fb/posf.jpg,stim_01/d.jpg,stim_01/c.jpg,1,2,f,1,29,89,26,f,1,0.749841616229,01,02,60.01427589,PLT_learning_01,A,2014_Mrz_24_1445,P29,
stim_fb/ques.jpg,stim_fb/negf.jpg,stim_fb/posf.jpg,stim_01/f.jpg,stim_01/e.jpg,1,3,f,1,30,90,44,f,1,0.516533737341,01,02,60.01427589,PLT_learning_01,A,2014_Mrz_24_1445,P29,
stim_fb/ques.jpg,stim_fb/negf.jpg,stim_fb/posf.jpg,stim_01/d.jpg,stim_01/c.jpg,1,2,f,1,31,91,22,f,1,0.633172322013,01,02,60.01427589,PLT_learning_01,A,2014_Mrz_24_1445,P29,
stim_fb/ques.jpg,stim_fb/negf.jpg,stim_fb/posf.jpg,stim_01/a.jpg,stim_01/b.jpg,2,1,j,1,32,92,15,j,1,0.549884839964,01,02,60.01427589,PLT_learning_01,A,2014_Mrz_24_1445,P29,
stim_fb/ques.jpg,stim_fb/posf.jpg,stim_fb/negf.jpg,stim_01/c.jpg,stim_01/d.jpg,2,2,j,1,33,93,38,j,1,0.699810269095,01,02,60.01427589,PLT_learning_01,A,2014_Mrz_24_1445,P29,
stim_fb/ques.jpg,stim_fb/negf.jpg,stim_fb/posf.jpg,stim_01/c.jpg,stim_01/d.jpg,2,2,j,1,34,94,35,f,0,0.516523695311,01,02,60.01427589,PLT_learning_01,A,2014_Mrz_24_1445,P29,
stim_fb/ques.jpg,stim_fb/negf.jpg,stim_fb/posf.jpg,stim_01/e.jpg,stim_01/f.jpg,2,3,j,1,35,95,52,f,0,0.966372926519,01,02,60.01427589,PLT_learning_01,A,2014_Mrz_24_1445,P29,
stim_fb/ques.jpg,stim_fb/posf.jpg,stim_fb/negf.jpg,stim_01/f.jpg,stim_01/e.jpg,1,3,f,1,36,96,46,j,0,0.799791315854,01,02,60.01427589,PLT_learning_01,A,2014_Mrz_24_1445,P29,
stim_fb/ques.jpg,stim_fb/negf.jpg,stim_fb/posf.jpg,stim_01/a.jpg,stim_01/b.jpg,2,1,j,1,37,97,12,j,1,0.599828789257,01,02,60.01427589,PLT_learning_01,A,2014_Mrz_24_1445,P29,
stim_fb/ques.jpg,stim_fb/posf.jpg,stim_fb/negf.jpg,stim_01/d.jpg,stim_01/c.jpg,1,2,f,1,38,98,29,f,1,0.783141068113,01,02,60.01427589,PLT_learning_01,A,2014_Mrz_24_1445,P29,
stim_fb/ques.jpg,stim_fb/negf.jpg,stim_fb/posf.jpg,stim_01/e.jpg,stim_01/f.jpg,2,3,j,1,39,99,54,f,0,0.916415720183,01,02,60.01427589,PLT_learning_01,A,2014_Mrz_24_1445,P29,
stim_fb/ques.jpg,stim_fb/posf.jpg,stim_fb/negf.jpg,stim_01/a.jpg,stim_01/b.jpg,2,1,j,1,40,100,18,j,1,0.633136571905,01,02,60.01427589,PLT_learning_01,A,2014_Mrz_24_1445,P29,
stim_fb/ques.jpg,stim_fb/negf.jpg,stim_fb/posf.jpg,stim_01/a.jpg,stim_01/b.jpg,2,1,j,1,41,101,10,j,1,0.616437040323,01,02,60.01427589,PLT_learning_01,A,2014_Mrz_24_1445,P29,
stim_fb/ques.jpg,stim_fb/negf.jpg,stim_fb/posf.jpg,stim_01/b.jpg,stim_01/a.jpg,1,1,f,1,42,102,1,f,1,0.683153528169,01,02,60.01427589,PLT_learning_01,A,2014_Mrz_24_1445,P29,
stim_fb/ques.jpg,stim_fb/posf.jpg,stim_fb/negf.jpg,stim_01/a.jpg,stim_01/b.jpg,2,1,j,1,43,103,19,j,1,0.599909342035,01,02,60.01427589,PLT_learning_01,A,2014_Mrz_24_1445,P29,
stim_fb/ques.jpg,stim_fb/negf.jpg,stim_fb/posf.jpg,stim_01/c.jpg,stim_01/d.jpg,2,2,j,1,44,104,32,j,1,1.08305967023,01,02,60.01427589,PLT_learning_01,A,2014_Mrz_24_1445,P29,
stim_fb/ques.jpg,stim_fb/negf.jpg,stim_fb/posf.jpg,stim_01/b.jpg,stim_01/a.jpg,1,1,f,1,45,105,5,f,1,0.782961174727,01,02,60.01427589,PLT_learning_01,A,2014_Mrz_24_1445,P29,
stim_fb/ques.jpg,stim_fb/negf.jpg,stim_fb/posf.jpg,stim_01/d.jpg,stim_01/c.jpg,1,2,f,1,46,106,24,f,1,0.849749923685,01,02,60.01427589,PLT_learning_01,A,2014_Mrz_24_1445,P29,
stim_fb/ques.jpg,stim_fb/posf.jpg,stim_fb/negf.jpg,stim_01/b.jpg,stim_01/a.jpg,1,1,f,1,47,107,9,f,1,1.23295945143,01,02,60.01427589,PLT_learning_01,A,2014_Mrz_24_1445,P29,
stim_fb/ques.jpg,stim_fb/posf.jpg,stim_fb/negf.jpg,stim_01/e.jpg,stim_01/f.jpg,2,3,j,1,48,108,59,f,0,1.08300913527,01,02,60.01427589,PLT_learning_01,A,2014_Mrz_24_1445,P29,
stim_fb/ques.jpg,stim_fb/negf.jpg,stim_fb/posf.jpg,stim_01/b.jpg,stim_01/a.jpg,1,1,f,1,49,109,0,j,0,0.966407620996,01,02,60.01427589,PLT_learning_01,A,2014_Mrz_24_1445,P29,
stim_fb/ques.jpg,stim_fb/negf.jpg,stim_fb/posf.jpg,stim_01/f.jpg,stim_01/e.jpg,1,3,f,1,50,110,40,j,0,1.19968717829,01,02,60.01427589,PLT_learning_01,A,2014_Mrz_24_1445,P29,
stim_fb/ques.jpg,stim_fb/negf.jpg,stim_fb/posf.jpg,stim_01/d.jpg,stim_01/c.jpg,1,2,f,1,51,111,25,f,1,0.883101573672,01,02,60.01427589,PLT_learning_01,A,2014_Mrz_24_1445,P29,
stim_fb/ques.jpg,stim_fb/negf.jpg,stim_fb/posf.jpg,stim_01/a.jpg,stim_01/b.jpg,2,1,j,1,52,112,14,j,1,0.783129522334,01,02,60.01427589,PLT_learning_01,A,2014_Mrz_24_1445,P29,
stim_fb/ques.jpg,stim_fb/posf.jpg,stim_fb/negf.jpg,stim_01/f.jpg,stim_01/e.jpg,1,3,f,1,53,113,47,f,1,1.33294737333,01,02,60.01427589,PLT_learning_01,A,2014_Mrz_24_1445,P29,
stim_fb/ques.jpg,stim_fb/negf.jpg,stim_fb/posf.jpg,stim_01/f.jpg,stim_01/e.jpg,1,3,f,1,54,114,43,j,0,1.1662787167,01,02,60.01427589,PLT_learning_01,A,2014_Mrz_24_1445,P29,
stim_fb/ques.jpg,stim_fb/negf.jpg,stim_fb/posf.jpg,stim_01/c.jpg,stim_01/d.jpg,2,2,j,1,55,115,36,j,1,1.31630915858,01,02,60.01427589,PLT_learning_01,A,2014_Mrz_24_1445,P29,
stim_fb/ques.jpg,stim_fb/negf.jpg,stim_fb/posf.jpg,stim_01/c.jpg,stim_01/d.jpg,2,2,j,1,56,116,30,j,1,0.833102839829,01,02,60.01427589,PLT_learning_01,A,2014_Mrz_24_1445,P29,
stim_fb/ques.jpg,stim_fb/negf.jpg,stim_fb/posf.jpg,stim_01/f.jpg,stim_01/e.jpg,1,3,f,1,57,117,41,f,1,0.399875817475,01,02,60.01427589,PLT_learning_01,A,2014_Mrz_24_1445,P29,
stim_fb/ques.jpg,stim_fb/negf.jpg,stim_fb/posf.jpg,stim_01/c.jpg,stim_01/d.jpg,2,2,j,1,58,118,34,j,1,0.716468880685,01,02,60.01427589,PLT_learning_01,A,2014_Mrz_24_1445,P29,
stim_fb/ques.jpg,stim_fb/negf.jpg,stim_fb/posf.jpg,stim_01/e.jpg,stim_01/f.jpg,2,3,j,1,59,119,51,j,1,0.733097477462,01,02,60.01427589,PLT_learning_01,A,2014_Mrz_24_1445,P29,
stim_fb/ques.jpg,stim_fb/negf.jpg,stim_fb/posf.jpg,stim_01/f.jpg,stim_01/e.jpg,1,3,f,2,0,120,42,f,1,0.766451930437,01,02,60.01427589,PLT_learning_01,A,2014_Mrz_24_1445,P29,
stim_fb/ques.jpg,stim_fb/posf.jpg,stim_fb/negf.jpg,stim_01/d.jpg,stim_01/c.jpg,1,2,f,2,1,121,28,f,1,0.699810720221,01,02,60.01427589,PLT_learning_01,A,2014_Mrz_24_1445,P29,
stim_fb/ques.jpg,stim_fb/negf.jpg,stim_fb/posf.jpg,stim_01/b.jpg,stim_01/a.jpg,1,1,f,2,2,122,5,j,0,0.416420008872,01,02,60.01427589,PLT_learning_01,A,2014_Mrz_24_1445,P29,
stim_fb/ques.jpg,stim_fb/negf.jpg,stim_fb/posf.jpg,stim_01/d.jpg,stim_01/c.jpg,1,2,f,2,3,123,26,f,1,0.68316079428,01,02,60.01427589,PLT_learning_01,A,2014_Mrz_24_1445,P29,
stim_fb/ques.jpg,stim_fb/negf.jpg,stim_fb/posf.jpg,stim_01/f.jpg,stim_01/e.jpg,1,3,f,2,4,124,40,f,1,0.716318638206,01,02,60.01427589,PLT_learning_01,A,2014_Mrz_24_1445,P29,
stim_fb/ques.jpg,stim_fb/posf.jpg,stim_fb/negf.jpg,stim_01/a.jpg,stim_01/b.jpg,2,1,j,2,5,125,18,j,1,0.66650010451,01,02,60.01427589,PLT_learning_01,A,2014_Mrz_24_1445,P29,
stim_fb/ques.jpg,stim_fb/posf.jpg,stim_fb/negf.jpg,stim_01/c.jpg,stim_01/d.jpg,2,2,j,2,6,126,38,f,0,0.583194628612,01,02,60.01427589,PLT_learning_01,A,2014_Mrz_24_1445,P29,
stim_fb/ques.jpg,stim_fb/posf.jpg,stim_fb/negf.jpg,stim_01/d.jpg,stim_01/c.jpg,1,2,f,2,7,127,27,j,0,0.649816909648,01,02,60.01427589,PLT_learning_01,A,2014_Mrz_24_1445,P29,
stim_fb/ques.jpg,stim_fb/posf.jpg,stim_fb/negf.jpg,stim_01/c.jpg,stim_01/d.jpg,2,2,j,2,8,128,39,j,1,0.549860370975,01,02,60.01427589,PLT_learning_01,A,2014_Mrz_24_1445,P29,
stim_fb/ques.jpg,stim_fb/negf.jpg,stim_fb/posf.jpg,stim_01/f.jpg,stim_01/e.jpg,1,3,f,2,9,129,44,j,0,0.91641786152,01,02,60.01427589,PLT_learning_01,A,2014_Mrz_24_1445,P29,
stim_fb/ques.jpg,stim_fb/posf.jpg,stim_fb/negf.jpg,stim_01/f.jpg,stim_01/e.jpg,1,3,f,2,10,130,49,f,1,0.550024481019,01,02,60.01427589,PLT_learning_01,A,2014_Mrz_24_1445,P29,
stim_fb/ques.jpg,stim_fb/negf.jpg,stim_fb/posf.jpg,stim_01/d.jpg,stim_01/c.jpg,1,2,f,2,11,131,24,f,1,0.749839628274,01,02,60.01427589,PLT_learning_01,A,2014_Mrz_24_1445,P29,
stim_fb/ques.jpg,stim_fb/negf.jpg,stim_fb/posf.jpg,stim_01/b.jpg,stim_01/a.jpg,1,1,f,2,12,132,7,f,1,0.6498446538,01,02,60.01427589,PLT_learning_01,A,2014_Mrz_24_1445,P29,
stim_fb/ques.jpg,stim_fb/negf.jpg,stim_fb/posf.jpg,stim_01/c.jpg,stim_01/d.jpg,2,2,j,2,13,133,32,f,0,0.649849613161,01,02,60.01427589,PLT_learning_01,A,2014_Mrz_24_1445,P29,
stim_fb/ques.jpg,stim_fb/posf.jpg,stim_fb/negf.jpg,stim_01/b.jpg,stim_01/a.jpg,1,1,f,2,14,134,8,j,0,0.516515845746,01,02,60.01427589,PLT_learning_01,A,2014_Mrz_24_1445,P29,
stim_fb/ques.jpg,stim_fb/negf.jpg,stim_fb/posf.jpg,stim_01/c.jpg,stim_01/d.jpg,2,2,j,2,15,135,31,j,1,0.68312899903,01,02,60.01427589,PLT_learning_01,A,2014_Mrz_24_1445,P29,
stim_fb/ques.jpg,stim_fb/negf.jpg,stim_fb/posf.jpg,stim_01/c.jpg,stim_01/d.jpg,2,2,j,2,16,136,35,f,0,0.399968379185,01,02,60.01427589,PLT_learning_01,A,2014_Mrz_24_1445,P29,
stim_fb/ques.jpg,stim_fb/negf.jpg,stim_fb/posf.jpg,stim_01/a.jpg,stim_01/b.jpg,2,1,j,2,17,137,11,j,1,0.56649167149,01,02,60.01427589,PLT_learning_01,A,2014_Mrz_24_1445,P29,
stim_fb/ques.jpg,stim_fb/negf.jpg,stim_fb/posf.jpg,stim_01/a.jpg,stim_01/b.jpg,2,1,j,2,18,138,16,j,1,1.03303946587,01,02,60.01427589,PLT_learning_01,A,2014_Mrz_24_1445,P29,
stim_fb/ques.jpg,stim_fb/negf.jpg,stim_fb/posf.jpg,stim_01/d.jpg,stim_01/c.jpg,1,2,f,2,19,139,20,j,0,0.64986383561,01,02,60.01427589,PLT_learning_01,A,2014_Mrz_24_1445,P29,
stim_fb/ques.jpg,stim_fb/negf.jpg,stim_fb/posf.jpg,stim_01/a.jpg,stim_01/b.jpg,2,1,j,2,20,140,15,f,0,0.733125922362,01,02,60.01427589,PLT_learning_01,A,2014_Mrz_24_1445,P29,
stim_fb/ques.jpg,stim_fb/negf.jpg,stim_fb/posf.jpg,stim_01/e.jpg,stim_01/f.jpg,2,3,j,2,21,141,50,f,0,1.01636682732,01,02,60.01427589,PLT_learning_01,A,2014_Mrz_24_1445,P29,
stim_fb/ques.jpg,stim_fb/negf.jpg,stim_fb/posf.jpg,stim_01/f.jpg,stim_01/e.jpg,1,3,f,2,22,142,43,f,1,1.01634263201,01,02,60.01427589,PLT_learning_01,A,2014_Mrz_24_1445,P29,
stim_fb/ques.jpg,stim_fb/negf.jpg,stim_fb/posf.jpg,stim_01/d.jpg,stim_01/c.jpg,1,2,f,2,23,143,21,j,0,0.766491328637,01,02,60.01427589,PLT_learning_01,A,2014_Mrz_24_1445,P29,
stim_fb/ques.jpg,stim_fb/negf.jpg,stim_fb/posf.jpg,stim_01/b.jpg,stim_01/a.jpg,1,1,f,2,24,144,2,j,0,0.749800684206,01,02,60.01427589,PLT_learning_01,A,2014_Mrz_24_1445,P29,
stim_fb/ques.jpg,stim_fb/negf.jpg,stim_fb/posf.jpg,stim_01/d.jpg,stim_01/c.jpg,1,2,f,2,25,145,23,f,1,0.633165266427,01,02,60.01427589,PLT_learning_01,A,2014_Mrz_24_1445,P29,
stim_fb/ques.jpg,stim_fb/posf.jpg,stim_fb/negf.jpg,stim_01/e.jpg,stim_01/f.jpg,2,3,j,2,26,146,58,f,0,0.599840638793,01,02,60.01427589,PLT_learning_01,A,2014_Mrz_24_1445,P29,
stim_fb/ques.jpg,stim_fb/negf.jpg,stim_fb/posf.jpg,stim_01/a.jpg,stim_01/b.jpg,2,1,j,2,27,147,13,j,1,0.899781595626,01,02,60.01427589,PLT_learning_01,A,2014_Mrz_24_1445,P29,
stim_fb/ques.jpg,stim_fb/negf.jpg,stim_fb/posf.jpg,stim_01/b.jpg,stim_01/a.jpg,1,1,f,2,28,148,1,f,1,0.516528913317,01,02,60.01427589,PLT_learning_01,A,2014_Mrz_24_1445,P29,
stim_fb/ques.jpg,stim_fb/posf.jpg,stim_fb/negf.jpg,stim_01/f.jpg,stim_01/e.jpg,1,3,f,2,29,149,47,j,0,0.66649830302,01,02,60.01427589,PLT_learning_01,A,2014_Mrz_24_1445,P29,
stim_fb/ques.jpg,stim_fb/negf.jpg,stim_fb/posf.jpg,stim_01/e.jpg,stim_01/f.jpg,2,3,j,2,30,150,51,f,0,0.349905194697,01,02,60.01427589,PLT_learning_01,A,2014_Mrz_24_1445,P29,
stim_fb/ques.jpg,stim_fb/negf.jpg,stim_fb/posf.jpg,stim_01/c.jpg,stim_01/d.jpg,2,2,j,2,31,151,34,j,1,0.616505981158,01,02,60.01427589,PLT_learning_01,A,2014_Mrz_24_1445,P29,
stim_fb/ques.jpg,stim_fb/negf.jpg,stim_fb/posf.jpg,stim_01/c.jpg,stim_01/d.jpg,2,2,j,2,32,152,30,j,1,0.299954430418,01,02,60.01427589,PLT_learning_01,A,2014_Mrz_24_1445,P29,
stim_fb/ques.jpg,stim_fb/negf.jpg,stim_fb/posf.jpg,stim_01/b.jpg,stim_01/a.jpg,1,1,f,2,33,153,4,f,1,0.366578783618,01,02,60.01427589,PLT_learning_01,A,2014_Mrz_24_1445,P29,
stim_fb/ques.jpg,stim_fb/negf.jpg,stim_fb/posf.jpg,stim_01/c.jpg,stim_01/d.jpg,2,2,j,2,34,154,33,f,0,0.349929528349,01,02,60.01427589,PLT_learning_01,A,2014_Mrz_24_1445,P29,
stim_fb/ques.jpg,stim_fb/negf.jpg,stim_fb/posf.jpg,stim_01/e.jpg,stim_01/f.jpg,2,3,j,2,35,155,53,f,0,0.699809451056,01,02,60.01427589,PLT_learning_01,A,2014_Mrz_24_1445,P29,
stim_fb/ques.jpg,stim_fb/negf.jpg,stim_fb/posf.jpg,stim_01/f.jpg,stim_01/e.jpg,1,3,f,2,36,156,45,j,0,0.849775547553,01,02,60.01427589,PLT_learning_01,A,2014_Mrz_24_1445,P29,
stim_fb/ques.jpg,stim_fb/negf.jpg,stim_fb/posf.jpg,stim_01/e.jpg,stim_01/f.jpg,2,3,j,2,37,157,55,f,0,0.733196685739,01,02,60.01427589,PLT_learning_01,A,2014_Mrz_24_1445,P29,
stim_fb/ques.jpg,stim_fb/posf.jpg,stim_fb/negf.jpg,stim_01/a.jpg,stim_01/b.jpg,2,1,j,2,38,158,19,j,1,0.733128944896,01,02,60.01427589,PLT_learning_01,A,2014_Mrz_24_1445,P29,
stim_fb/ques.jpg,stim_fb/posf.jpg,stim_fb/negf.jpg,stim_01/f.jpg,stim_01/e.jpg,1,3,f,2,39,159,46,f,1,0.733168989707,01,02,60.01427589,PLT_learning_01,A,2014_Mrz_24_1445,P29,
stim_fb/ques.jpg,stim_fb/negf.jpg,stim_fb/posf.jpg,stim_01/b.jpg,stim_01/a.jpg,1,1,f,2,40,160,6,f,1,0.599832371186,01,02,60.01427589,PLT_learning_01,A,2014_Mrz_24_1445,P29,
stim_fb/ques.jpg,stim_fb/posf.jpg,stim_fb/negf.jpg,stim_01/d.jpg,stim_01/c.jpg,1,2,f,2,41,161,29,f,1,0.733134553876,01,02,60.01427589,PLT_learning_01,A,2014_Mrz_24_1445,P29,
stim_fb/ques.jpg,stim_fb/negf.jpg,stim_fb/posf.jpg,stim_01/e.jpg,stim_01/f.jpg,2,3,j,2,42,162,52,f,0,0.499874136285,01,02,60.01427589,PLT_learning_01,A,2014_Mrz_24_1445,P29,
stim_fb/ques.jpg,stim_fb/negf.jpg,stim_fb/posf.jpg,stim_01/d.jpg,stim_01/c.jpg,1,2,f,2,43,163,22,f,1,0.616514510418,01,02,60.01427589,PLT_learning_01,A,2014_Mrz_24_1445,P29,
stim_fb/ques.jpg,stim_fb/negf.jpg,stim_fb/posf.jpg,stim_01/f.jpg,stim_01/e.jpg,1,3,f,2,44,164,41,j,0,0.399902794716,01,02,60.01427589,PLT_learning_01,A,2014_Mrz_24_1445,P29,
stim_fb/ques.jpg,stim_fb/posf.jpg,stim_fb/negf.jpg,stim_01/f.jpg,stim_01/e.jpg,1,3,f,2,45,165,48,j,0,0.749788449711,01,02,60.01427589,PLT_learning_01,A,2014_Mrz_24_1445,P29,
stim_fb/ques.jpg,stim_fb/posf.jpg,stim_fb/negf.jpg,stim_01/e.jpg,stim_01/f.jpg,2,3,j,2,46,166,57,f,0,0.433232089984,01,02,60.01427589,PLT_learning_01,A,2014_Mrz_24_1445,P29,
stim_fb/ques.jpg,stim_fb/negf.jpg,stim_fb/posf.jpg,stim_01/c.jpg,stim_01/d.jpg,2,2,j,2,47,167,36,j,1,0.566512693889,01,02,60.01427589,PLT_learning_01,A,2014_Mrz_24_1445,P29,
stim_fb/ques.jpg,stim_fb/negf.jpg,stim_fb/posf.jpg,stim_01/a.jpg,stim_01/b.jpg,2,1,j,2,48,168,14,f,0,0.349930021579,01,02,60.01427589,PLT_learning_01,A,2014_Mrz_24_1445,P29,
stim_fb/ques.jpg,stim_fb/posf.jpg,stim_fb/negf.jpg,stim_01/e.jpg,stim_01/f.jpg,2,3,j,2,49,169,59,j,1,0.399841243298,01,02,60.01427589,PLT_learning_01,A,2014_Mrz_24_1445,P29,
stim_fb/ques.jpg,stim_fb/negf.jpg,stim_fb/posf.jpg,stim_01/b.jpg,stim_01/a.jpg,1,1,f,2,50,170,0,f,1,0.899767749115,01,02,60.01427589,PLT_learning_01,A,2014_Mrz_24_1445,P29,
stim_fb/ques.jpg,stim_fb/negf.jpg,stim_fb/posf.jpg,stim_01/e.jpg,stim_01/f.jpg,2,3,j,2,51,171,54,f,0,0.833142995917,01,02,60.01427589,PLT_learning_01,A,2014_Mrz_24_1445,P29,
stim_fb/ques.jpg,stim_fb/negf.jpg,stim_fb/posf.jpg,stim_01/a.jpg,stim_01/b.jpg,2,1,j,2,52,172,17,j,1,0.749805715746,01,02,60.01427589,PLT_learning_01,A,2014_Mrz_24_1445,P29,
stim_fb/ques.jpg,stim_fb/posf.jpg,stim_fb/negf.jpg,stim_01/b.jpg,stim_01/a.jpg,1,1,f,2,53,173,9,f,1,0.649834524553,01,02,60.01427589,PLT_learning_01,A,2014_Mrz_24_1445,P29,
stim_fb/ques.jpg,stim_fb/posf.jpg,stim_fb/negf.jpg,stim_01/e.jpg,stim_01/f.jpg,2,3,j,2,54,174,56,f,0,0.699656805587,01,02,60.01427589,PLT_learning_01,A,2014_Mrz_24_1445,P29,
stim_fb/ques.jpg,stim_fb/negf.jpg,stim_fb/posf.jpg,stim_01/b.jpg,stim_01/a.jpg,1,1,f,2,55,175,3,f,1,0.716475710709,01,02,60.01427589,PLT_learning_01,A,2014_Mrz_24_1445,P29,
stim_fb/ques.jpg,stim_fb/negf.jpg,stim_fb/posf.jpg,stim_01/a.jpg,stim_01/b.jpg,2,1,j,2,56,176,10,j,1,0.533230086991,01,02,60.01427589,PLT_learning_01,A,2014_Mrz_24_1445,P29,
stim_fb/ques.jpg,stim_fb/negf.jpg,stim_fb/posf.jpg,stim_01/d.jpg,stim_01/c.jpg,1,2,f,2,57,177,25,f,1,0.783129648649,01,02,60.01427589,PLT_learning_01,A,2014_Mrz_24_1445,P29,
stim_fb/ques.jpg,stim_fb/posf.jpg,stim_fb/negf.jpg,stim_01/c.jpg,stim_01/d.jpg,2,2,j,2,58,178,37,j,1,0.549864819061,01,02,60.01427589,PLT_learning_01,A,2014_Mrz_24_1445,P29,
stim_fb/ques.jpg,stim_fb/negf.jpg,stim_fb/posf.jpg,stim_01/a.jpg,stim_01/b.jpg,2,1,j,2,59,179,12,j,1,0.74980063007,01,02,60.01427589,PLT_learning_01,A,2014_Mrz_24_1445,P29,
stim_fb/ques.jpg,stim_fb/negf.jpg,stim_fb/posf.jpg,stim_01/e.jpg,stim_01/f.jpg,2,3,j,3,0,180,50,f,0,0.649798843618,01,02,60.01427589,PLT_learning_01,A,2014_Mrz_24_1445,P29,
stim_fb/ques.jpg,stim_fb/negf.jpg,stim_fb/posf.jpg,stim_01/c.jpg,stim_01/d.jpg,2,2,j,3,1,181,32,j,1,0.466578386628,01,02,60.01427589,PLT_learning_01,A,2014_Mrz_24_1445,P29,
stim_fb/ques.jpg,stim_fb/posf.jpg,stim_fb/negf.jpg,stim_01/b.jpg,stim_01/a.jpg,1,1,f,3,2,182,9,f,1,0.749796849648,01,02,60.01427589,PLT_learning_01,A,2014_Mrz_24_1445,P29,
stim_fb/ques.jpg,stim_fb/negf.jpg,stim_fb/posf.jpg,stim_01/c.jpg,stim_01/d.jpg,2,2,j,3,3,183,30,j,1,0.666510299922,01,02,60.01427589,PLT_learning_01,A,2014_Mrz_24_1445,P29,
stim_fb/ques.jpg,stim_fb/posf.jpg,stim_fb/negf.jpg,stim_01/b.jpg,stim_01/a.jpg,1,1,f,3,4,184,8,f,1,0.61649665792,01,02,60.01427589,PLT_learning_01,A,2014_Mrz_24_1445,P29,
stim_fb/ques.jpg,stim_fb/negf.jpg,stim_fb/posf.jpg,stim_01/d.jpg,stim_01/c.jpg,1,2,f,3,5,185,26,j,0,0.549870816008,01,02,60.01427589,PLT_learning_01,A,2014_Mrz_24_1445,P29,
stim_fb/ques.jpg,stim_fb/negf.jpg,stim_fb/posf.jpg,stim_01/b.jpg,stim_01/a.jpg,1,1,f,3,6,186,6,f,1,0.499869140834,01,02,60.01427589,PLT_learning_01,A,2014_Mrz_24_1445,P29,
stim_fb/ques.jpg,stim_fb/negf.jpg,stim_fb/posf.jpg,stim_01/a.jpg,stim_01/b.jpg,2,1,j,3,7,187,16,j,1,0.683156111609,01,02,60.01427589,PLT_learning_01,A,2014_Mrz_24_1445,P29,
stim_fb/ques.jpg,stim_fb/negf.jpg,stim_fb/posf.jpg,stim_01/f.jpg,stim_01/e.jpg,1,3,f,3,8,188,41,j,0,0.933037384681,01,02,60.01427589,PLT_learning_01,A,2014_Mrz_24_1445,P29,
stim_fb/ques.jpg,stim_fb/negf.jpg,stim_fb/posf.jpg,stim_01/d.jpg,stim_01/c.jpg,1,2,f,3,9,189,20,f,1,1.18299471733,01,02,60.01427589,PLT_learning_01,A,2014_Mrz_24_1445,P29,
stim_fb/ques.jpg,stim_fb/negf.jpg,stim_fb/posf.jpg,stim_01/d.jpg,stim_01/c.jpg,1,2,f,3,10,190,24,f,1,0.616541604951,01,02,60.01427589,PLT_learning_01,A,2014_Mrz_24_1445,P29,
stim_fb/ques.jpg,stim_fb/negf.jpg,stim_fb/posf.jpg,stim_01/b.jpg,stim_01/a.jpg,1,1,f,3,11,191,4,f,1,0.466571457358,01,02,60.01427589,PLT_learning_01,A,2014_Mrz_24_1445,P29,
stim_fb/ques.jpg,stim_fb/negf.jpg,stim_fb/posf.jpg,stim_01/e.jpg,stim_01/f.jpg,2,3,j,3,12,192,55,j,1,0.749795956422,01,02,60.01427589,PLT_learning_01,A,2014_Mrz_24_1445,P29,
stim_fb/ques.jpg,stim_fb/negf.jpg,stim_fb/posf.jpg,stim_01/a.jpg,stim_01/b.jpg,2,1,j,3,13,193,12,j,1,0.616495406802,01,02,60.01427589,PLT_learning_01,A,2014_Mrz_24_1445,P29,
stim_fb/ques.jpg,stim_fb/posf.jpg,stim_fb/negf.jpg,stim_01/f.jpg,stim_01/e.jpg,1,3,f,3,14,194,49,j,0,0.549906701453,01,02,60.01427589,PLT_learning_01,A,2014_Mrz_24_1445,P29,
stim_fb/ques.jpg,stim_fb/negf.jpg,stim_fb/posf.jpg,stim_01/b.jpg,stim_01/a.jpg,1,1,f,3,15,195,0,f,1,0.483263891248,01,02,60.01427589,PLT_learning_01,A,2014_Mrz_24_1445,P29,
stim_fb/ques.jpg,stim_fb/posf.jpg,stim_fb/negf.jpg,stim_01/d.jpg,stim_01/c.jpg,1,2,f,3,16,196,29,j,0,0.333246829723,01,02,60.01427589,PLT_learning_01,A,2014_Mrz_24_1445,P29,
stim_fb/ques.jpg,stim_fb/negf.jpg,stim_fb/posf.jpg,stim_01/a.jpg,stim_01/b.jpg,2,1,j,3,17,197,17,j,1,0.516512161563,01,02,60.01427589,PLT_learning_01,A,2014_Mrz_24_1445,P29,
stim_fb/ques.jpg,stim_fb/posf.jpg,stim_fb/negf.jpg,stim_01/d.jpg,stim_01/c.jpg,1,2,f,3,18,198,28,f,1,0.916401963895,01,02,60.01427589,PLT_learning_01,A,2014_Mrz_24_1445,P29,
stim_fb/ques.jpg,stim_fb/posf.jpg,stim_fb/negf.jpg,stim_01/f.jpg,stim_01/e.jpg,1,3,f,3,19,199,48,j,0,0.783153140203,01,02,60.01427589,PLT_learning_01,A,2014_Mrz_24_1445,P29,
stim_fb/ques.jpg,stim_fb/negf.jpg,stim_fb/posf.jpg,stim_01/c.jpg,stim_01/d.jpg,2,2,j,3,20,200,34,j,1,0.83309941429,01,02,60.01427589,PLT_learning_01,A,2014_Mrz_24_1445,P29,
stim_fb/ques.jpg,stim_fb/negf.jpg,stim_fb/posf.jpg,stim_01/f.jpg,stim_01/e.jpg,1,3,f,3,21,201,42,j,0,0.666501527056,01,02,60.01427589,PLT_learning_01,A,2014_Mrz_24_1445,P29,
stim_fb/ques.jpg,stim_fb/negf.jpg,stim_fb/posf.jpg,stim_01/b.jpg,stim_01/a.jpg,1,1,f,3,22,202,5,f,1,0.783111513448,01,02,60.01427589,PLT_learning_01,A,2014_Mrz_24_1445,P29,
stim_fb/ques.jpg,stim_fb/posf.jpg,stim_fb/negf.jpg,stim_01/e.jpg,stim_01/f.jpg,2,3,j,3,23,203,58,j,1,0.883079886617,01,02,60.01427589,PLT_learning_01,A,2014_Mrz_24_1445,P29,
stim_fb/ques.jpg,stim_fb/negf.jpg,stim_fb/posf.jpg,stim_01/b.jpg,stim_01/a.jpg,1,1,f,3,24,204,2,f,1,0.616509066849,01,02,60.01427589,PLT_learning_01,A,2014_Mrz_24_1445,P29,
stim_fb/ques.jpg,stim_fb/negf.jpg,stim_fb/posf.jpg,stim_01/a.jpg,stim_01/b.jpg,2,1,j,3,25,205,11,j,1,0.566513087871,01,02,60.01427589,PLT_learning_01,A,2014_Mrz_24_1445,P29,
stim_fb/ques.jpg,stim_fb/negf.jpg,stim_fb/posf.jpg,stim_01/d.jpg,stim_01/c.jpg,1,2,f,3,26,206,21,f,1,0.849759096548,01,02,60.01427589,PLT_learning_01,A,2014_Mrz_24_1445,P29,
stim_fb/ques.jpg,stim_fb/negf.jpg,stim_fb/posf.jpg,stim_01/c.jpg,stim_01/d.jpg,2,2,j,3,27,207,31,j,1,0.633172989676,01,02,60.01427589,PLT_learning_01,A,2014_Mrz_24_1445,P29,
stim_fb/ques.jpg,stim_fb/negf.jpg,stim_fb/posf.jpg,stim_01/f.jpg,stim_01/e.jpg,1,3,f,3,28,208,44,j,0,0.699792281261,01,02,60.01427589,PLT_learning_01,A,2014_Mrz_24_1445,P29,
stim_fb/ques.jpg,stim_fb/negf.jpg,stim_fb/posf.jpg,stim_01/b.jpg,stim_01/a.jpg,1,1,f,3,29,209,3,f,1,0.566523123886,01,02,60.01427589,PLT_learning_01,A,2014_Mrz_24_1445,P29,
stim_fb/ques.jpg,stim_fb/posf.jpg,stim_fb/negf.jpg,stim_01/e.jpg,stim_01/f.jpg,2,3,j,3,30,210,57,j,1,0.983077441523,01,02,60.01427589,PLT_learning_01,A,2014_Mrz_24_1445,P29,
stim_fb/ques.jpg,stim_fb/negf.jpg,stim_fb/posf.jpg,stim_01/e.jpg,stim_01/f.jpg,2,3,j,3,31,211,53,f,0,0.449912084871,01,02,60.01427589,PLT_learning_01,A,2014_Mrz_24_1445,P29,
stim_fb/ques.jpg,stim_fb/negf.jpg,stim_fb/posf.jpg,stim_01/c.jpg,stim_01/d.jpg,2,2,j,3,32,212,33,j,1,0.799782867798,01,02,60.01427589,PLT_learning_01,A,2014_Mrz_24_1445,P29,
stim_fb/ques.jpg,stim_fb/negf.jpg,stim_fb/posf.jpg,stim_01/b.jpg,stim_01/a.jpg,1,1,f,3,33,213,1,f,1,0.58319041511,01,02,60.01427589,PLT_learning_01,A,2014_Mrz_24_1445,P29,
stim_fb/ques.jpg,stim_fb/negf.jpg,stim_fb/posf.jpg,stim_01/d.jpg,stim_01/c.jpg,1,2,f,3,34,214,22,j,0,0.549869032564,01,02,60.01427589,PLT_learning_01,A,2014_Mrz_24_1445,P29,
stim_fb/ques.jpg,stim_fb/negf.jpg,stim_fb/posf.jpg,stim_01/f.jpg,stim_01/e.jpg,1,3,f,3,35,215,43,j,0,0.69980964053,01,02,60.01427589,PLT_learning_01,A,2014_Mrz_24_1445,P29,
stim_fb/ques.jpg,stim_fb/negf.jpg,stim_fb/posf.jpg,stim_01/a.jpg,stim_01/b.jpg,2,1,j,3,36,216,14,j,1,0.583188920384,01,02,60.01427589,PLT_learning_01,A,2014_Mrz_24_1445,P29,
stim_fb/ques.jpg,stim_fb/posf.jpg,stim_fb/negf.jpg,stim_01/e.jpg,stim_01/f.jpg,2,3,j,3,37,217,59,f,0,0.483201302245,01,02,60.01427589,PLT_learning_01,A,2014_Mrz_24_1445,P29,
stim_fb/ques.jpg,stim_fb/negf.jpg,stim_fb/posf.jpg,stim_01/c.jpg,stim_01/d.jpg,2,2,j,3,38,218,35,j,1,0.516558663468,01,02,60.01427589,PLT_learning_01,A,2014_Mrz_24_1445,P29,
stim_fb/ques.jpg,stim_fb/posf.jpg,stim_fb/negf.jpg,stim_01/a.jpg,stim_01/b.jpg,2,1,j,3,39,219,18,j,1,0.63320535635,01,02,60.01427589,PLT_learning_01,A,2014_Mrz_24_1445,P29,
stim_fb/ques.jpg,stim_fb/negf.jpg,stim_fb/posf.jpg,stim_01/a.jpg,stim_01/b.jpg,2,1,j,3,40,220,13,j,1,0.533185648228,01,02,60.01427589,PLT_learning_01,A,2014_Mrz_24_1445,P29,
stim_fb/ques.jpg,stim_fb/posf.jpg,stim_fb/negf.jpg,stim_01/a.jpg,stim_01/b.jpg,2,1,j,3,41,221,19,j,1,0.433226423861,01,02,60.01427589,PLT_learning_01,A,2014_Mrz_24_1445,P29,
stim_fb/ques.jpg,stim_fb/negf.jpg,stim_fb/posf.jpg,stim_01/f.jpg,stim_01/e.jpg,1,3,f,3,42,222,45,j,0,0.533194448162,01,02,60.01427589,PLT_learning_01,A,2014_Mrz_24_1445,P29,
stim_fb/ques.jpg,stim_fb/posf.jpg,stim_fb/negf.jpg,stim_01/c.jpg,stim_01/d.jpg,2,2,j,3,43,223,38,j,1,0.816486170781,01,02,60.01427589,PLT_learning_01,A,2014_Mrz_24_1445,P29,
stim_fb/ques.jpg,stim_fb/negf.jpg,stim_fb/posf.jpg,stim_01/e.jpg,stim_01/f.jpg,2,3,j,3,44,224,51,j,1,0.899809207449,01,02,60.01427589,PLT_learning_01,A,2014_Mrz_24_1445,P29,
stim_fb/ques.jpg,stim_fb/posf.jpg,stim_fb/negf.jpg,stim_01/c.jpg,stim_01/d.jpg,2,2,j,3,45,225,37,f,0,0.933045312441,01,02,60.01427589,PLT_learning_01,A,2014_Mrz_24_1445,P29,
stim_fb/ques.jpg,stim_fb/posf.jpg,stim_fb/negf.jpg,stim_01/d.jpg,stim_01/c.jpg,1,2,f,3,46,226,27,j,0,0.416578079864,01,02,60.01427589,PLT_learning_01,A,2014_Mrz_24_1445,P29,
stim_fb/ques.jpg,stim_fb/negf.jpg,stim_fb/posf.jpg,stim_01/e.jpg,stim_01/f.jpg,2,3,j,3,47,227,52,f,0,0.516546416944,01,02,60.01427589,PLT_learning_01,A,2014_Mrz_24_1445,P29,
stim_fb/ques.jpg,stim_fb/negf.jpg,stim_fb/posf.jpg,stim_01/b.jpg,stim_01/a.jpg,1,1,f,3,48,228,7,f,1,0.733113991624,01,02,60.01427589,PLT_learning_01,A,2014_Mrz_24_1445,P29,
stim_fb/ques.jpg,stim_fb/posf.jpg,stim_fb/negf.jpg,stim_01/f.jpg,stim_01/e.jpg,1,3,f,3,49,229,47,j,0,0.583183055766,01,02,60.01427589,PLT_learning_01,A,2014_Mrz_24_1445,P29,
stim_fb/ques.jpg,stim_fb/posf.jpg,stim_fb/negf.jpg,stim_01/e.jpg,stim_01/f.jpg,2,3,j,3,50,230,56,f,0,0.583188261742,01,02,60.01427589,PLT_learning_01,A,2014_Mrz_24_1445,P29,
stim_fb/ques.jpg,stim_fb/posf.jpg,stim_fb/negf.jpg,stim_01/c.jpg,stim_01/d.jpg,2,2,j,3,51,231,39,j,1,0.733142926744,01,02,60.01427589,PLT_learning_01,A,2014_Mrz_24_1445,P29,
stim_fb/ques.jpg,stim_fb/negf.jpg,stim_fb/posf.jpg,stim_01/f.jpg,stim_01/e.jpg,1,3,f,3,52,232,40,f,1,0.599868497229,01,02,60.01427589,PLT_learning_01,A,2014_Mrz_24_1445,P29,
stim_fb/ques.jpg,stim_fb/negf.jpg,stim_fb/posf.jpg,stim_01/e.jpg,stim_01/f.jpg,2,3,j,3,53,233,54,f,0,0.499886758746,01,02,60.01427589,PLT_learning_01,A,2014_Mrz_24_1445,P29,
stim_fb/ques.jpg,stim_fb/negf.jpg,stim_fb/posf.jpg,stim_01/c.jpg,stim_01/d.jpg,2,2,j,3,54,234,36,j,1,0.666467506259,01,02,60.01427589,PLT_learning_01,A,2014_Mrz_24_1445,P29,
stim_fb/ques.jpg,stim_fb/posf.jpg,stim_fb/negf.jpg,stim_01/f.jpg,stim_01/e.jpg,1,3,f,3,55,235,46,j,0,0.416562434869,01,02,60.01427589,PLT_learning_01,A,2014_Mrz_24_1445,P29,
stim_fb/ques.jpg,stim_fb/negf.jpg,stim_fb/posf.jpg,stim_01/d.jpg,stim_01/c.jpg,1,2,f,3,56,236,23,f,1,0.566538513244,01,02,60.01427589,PLT_learning_01,A,2014_Mrz_24_1445,P29,
stim_fb/ques.jpg,stim_fb/negf.jpg,stim_fb/posf.jpg,stim_01/d.jpg,stim_01/c.jpg,1,2,f,3,57,237,25,j,0,0.466595114322,01,02,60.01427589,PLT_learning_01,A,2014_Mrz_24_1445,P29,
stim_fb/ques.jpg,stim_fb/negf.jpg,stim_fb/posf.jpg,stim_01/a.jpg,stim_01/b.jpg,2,1,j,3,58,238,15,j,1,0.749809249555,01,02,60.01427589,PLT_learning_01,A,2014_Mrz_24_1445,P29,
stim_fb/ques.jpg,stim_fb/negf.jpg,stim_fb/posf.jpg,stim_01/a.jpg,stim_01/b.jpg,2,1,j,3,59,239,10,j,1,0.633172628778,01,02,60.01427589,PLT_learning_01,A,2014_Mrz_24_1445,P29,
stim_fb/ques.jpg,stim_fb/negf.jpg,stim_fb/posf.jpg,stim_01/a.jpg,stim_01/b.jpg,2,1,j,4,0,240,14,j,1,0.516557881519,01,02,60.01427589,PLT_learning_01,A,2014_Mrz_24_1445,P29,
stim_fb/ques.jpg,stim_fb/negf.jpg,stim_fb/posf.jpg,stim_01/a.jpg,stim_01/b.jpg,2,1,j,4,1,241,10,j,1,0.449887886557,01,02,60.01427589,PLT_learning_01,A,2014_Mrz_24_1445,P29,
stim_fb/ques.jpg,stim_fb/negf.jpg,stim_fb/posf.jpg,stim_01/c.jpg,stim_01/d.jpg,2,2,j,4,2,242,30,f,0,0.499940180901,01,02,60.01427589,PLT_learning_01,A,2014_Mrz_24_1445,P29,
stim_fb/ques.jpg,stim_fb/negf.jpg,stim_fb/posf.jpg,stim_01/d.jpg,stim_01/c.jpg,1,2,f,4,3,243,23,j,0,0.39990777513,01,02,60.01427589,PLT_learning_01,A,2014_Mrz_24_1445,P29,
stim_fb/ques.jpg,stim_fb/negf.jpg,stim_fb/posf.jpg,stim_01/d.jpg,stim_01/c.jpg,1,2,f,4,4,244,22,j,0,0.833119796092,01,02,60.01427589,PLT_learning_01,A,2014_Mrz_24_1445,P29,
stim_fb/ques.jpg,stim_fb/negf.jpg,stim_fb/posf.jpg,stim_01/b.jpg,stim_01/a.jpg,1,1,f,4,5,245,5,f,1,0.749794016587,01,02,60.01427589,PLT_learning_01,A,2014_Mrz_24_1445,P29,
stim_fb/ques.jpg,stim_fb/negf.jpg,stim_fb/posf.jpg,stim_01/a.jpg,stim_01/b.jpg,2,1,j,4,6,246,11,j,1,0.616511241268,01,02,60.01427589,PLT_learning_01,A,2014_Mrz_24_1445,P29,
stim_fb/ques.jpg,stim_fb/posf.jpg,stim_fb/negf.jpg,stim_01/c.jpg,stim_01/d.jpg,2,2,j,4,7,247,37,j,1,1.21626303261,01,02,60.01427589,PLT_learning_01,A,2014_Mrz_24_1445,P29,
stim_fb/ques.jpg,stim_fb/posf.jpg,stim_fb/negf.jpg,stim_01/f.jpg,stim_01/e.jpg,1,3,f,4,8,248,48,f,1,1.1829722784,01,02,60.01427589,PLT_learning_01,A,2014_Mrz_24_1445,P29,
stim_fb/ques.jpg,stim_fb/negf.jpg,stim_fb/posf.jpg,stim_01/b.jpg,stim_01/a.jpg,1,1,f,4,9,249,3,f,1,0.649826927617,01,02,60.01427589,PLT_learning_01,A,2014_Mrz_24_1445,P29,
stim_fb/ques.jpg,stim_fb/negf.jpg,stim_fb/posf.jpg,stim_01/d.jpg,stim_01/c.jpg,1,2,f,4,10,250,24,f,1,0.999729887745,01,02,60.01427589,PLT_learning_01,A,2014_Mrz_24_1445,P29,
stim_fb/ques.jpg,stim_fb/negf.jpg,stim_fb/posf.jpg,stim_01/c.jpg,stim_01/d.jpg,2,2,j,4,11,251,32,j,1,0.64983505688,01,02,60.01427589,PLT_learning_01,A,2014_Mrz_24_1445,P29,
stim_fb/ques.jpg,stim_fb/negf.jpg,stim_fb/posf.jpg,stim_01/c.jpg,stim_01/d.jpg,2,2,j,4,12,252,33,j,1,1.14967368366,01,02,60.01427589,PLT_learning_01,A,2014_Mrz_24_1445,P29,
stim_fb/ques.jpg,stim_fb/negf.jpg,stim_fb/posf.jpg,stim_01/e.jpg,stim_01/f.jpg,2,3,j,4,13,253,55,f,0,1.06637992496,01,02,60.01427589,PLT_learning_01,A,2014_Mrz_24_1445,P29,
stim_fb/ques.jpg,stim_fb/negf.jpg,stim_fb/posf.jpg,stim_01/a.jpg,stim_01/b.jpg,2,1,j,4,14,254,12,j,1,0.599884033954,01,02,60.01427589,PLT_learning_01,A,2014_Mrz_24_1445,P29,
stim_fb/ques.jpg,stim_fb/negf.jpg,stim_fb/posf.jpg,stim_01/b.jpg,stim_01/a.jpg,1,1,f,4,15,255,4,f,1,0.699781607657,01,02,60.01427589,PLT_learning_01,A,2014_Mrz_24_1445,P29,
stim_fb/ques.jpg,stim_fb/negf.jpg,stim_fb/posf.jpg,stim_01/e.jpg,stim_01/f.jpg,2,3,j,4,16,256,53,f,0,0.866435389208,01,02,60.01427589,PLT_learning_01,A,2014_Mrz_24_1445,P29,
stim_fb/ques.jpg,stim_fb/posf.jpg,stim_fb/negf.jpg,stim_01/b.jpg,stim_01/a.jpg,1,1,f,4,17,257,8,f,1,0.683214219442,01,02,60.01427589,PLT_learning_01,A,2014_Mrz_24_1445,P29,
stim_fb/ques.jpg,stim_fb/posf.jpg,stim_fb/negf.jpg,stim_01/a.jpg,stim_01/b.jpg,2,1,j,4,18,258,18,j,1,0.616543195916,01,02,60.01427589,PLT_learning_01,A,2014_Mrz_24_1445,P29,
stim_fb/ques.jpg,stim_fb/negf.jpg,stim_fb/posf.jpg,stim_01/e.jpg,stim_01/f.jpg,2,3,j,4,19,259,52,j,1,0.683119363012,01,02,60.01427589,PLT_learning_01,A,2014_Mrz_24_1445,P29,
stim_fb/ques.jpg,stim_fb/posf.jpg,stim_fb/negf.jpg,stim_01/c.jpg,stim_01/d.jpg,2,2,j,4,20,260,39,j,1,0.533192357952,01,02,60.01427589,PLT_learning_01,A,2014_Mrz_24_1445,P29,
stim_fb/ques.jpg,stim_fb/negf.jpg,stim_fb/posf.jpg,stim_01/d.jpg,stim_01/c.jpg,1,2,f,4,21,261,26,f,1,0.583173735536,01,02,60.01427589,PLT_learning_01,A,2014_Mrz_24_1445,P29,
stim_fb/ques.jpg,stim_fb/posf.jpg,stim_fb/negf.jpg,stim_01/a.jpg,stim_01/b.jpg,2,1,j,4,22,262,19,j,1,0.616347940241,01,02,60.01427589,PLT_learning_01,A,2014_Mrz_24_1445,P29,
stim_fb/ques.jpg,stim_fb/posf.jpg,stim_fb/negf.jpg,stim_01/f.jpg,stim_01/e.jpg,1,3,f,4,23,263,47,f,1,0.683156770249,01,02,60.01427589,PLT_learning_01,A,2014_Mrz_24_1445,P29,
stim_fb/ques.jpg,stim_fb/negf.jpg,stim_fb/posf.jpg,stim_01/a.jpg,stim_01/b.jpg,2,1,j,4,24,264,15,j,1,0.616499866918,01,02,60.01427589,PLT_learning_01,A,2014_Mrz_24_1445,P29,
stim_fb/ques.jpg,stim_fb/negf.jpg,stim_fb/posf.jpg,stim_01/f.jpg,stim_01/e.jpg,1,3,f,4,25,265,43,f,1,0.733133645612,01,02,60.01427589,PLT_learning_01,A,2014_Mrz_24_1445,P29,
stim_fb/ques.jpg,stim_fb/negf.jpg,stim_fb/posf.jpg,stim_01/b.jpg,stim_01/a.jpg,1,1,f,4,26,266,1,f,1,0.499871411494,01,02,60.01427589,PLT_learning_01,A,2014_Mrz_24_1445,P29,
stim_fb/ques.jpg,stim_fb/posf.jpg,stim_fb/negf.jpg,stim_01/f.jpg,stim_01/e.jpg,1,3,f,4,27,267,46,f,1,0.633185979053,01,02,60.01427589,PLT_learning_01,A,2014_Mrz_24_1445,P29,
stim_fb/ques.jpg,stim_fb/negf.jpg,stim_fb/posf.jpg,stim_01/a.jpg,stim_01/b.jpg,2,1,j,4,28,268,13,j,1,0.599828951662,01,02,60.01427589,PLT_learning_01,A,2014_Mrz_24_1445,P29,
stim_fb/ques.jpg,stim_fb/negf.jpg,stim_fb/posf.jpg,stim_01/b.jpg,stim_01/a.jpg,1,1,f,4,29,269,7,f,1,0.683153359749,01,02,60.01427589,PLT_learning_01,A,2014_Mrz_24_1445,P29,
stim_fb/ques.jpg,stim_fb/posf.jpg,stim_fb/negf.jpg,stim_01/d.jpg,stim_01/c.jpg,1,2,f,4,30,270,29,f,1,0.58321787355,01,02,60.01427589,PLT_learning_01,A,2014_Mrz_24_1445,P29,
stim_fb/ques.jpg,stim_fb/posf.jpg,stim_fb/negf.jpg,stim_01/e.jpg,stim_01/f.jpg,2,3,j,4,31,271,56,j,1,0.683134099744,01,02,60.01427589,PLT_learning_01,A,2014_Mrz_24_1445,P29,
stim_fb/ques.jpg,stim_fb/negf.jpg,stim_fb/posf.jpg,stim_01/f.jpg,stim_01/e.jpg,1,3,f,4,32,272,45,j,0,0.649861164954,01,02,60.01427589,PLT_learning_01,A,2014_Mrz_24_1445,P29,
stim_fb/ques.jpg,stim_fb/negf.jpg,stim_fb/posf.jpg,stim_01/c.jpg,stim_01/d.jpg,2,2,j,4,33,273,36,f,0,0.6998085458,01,02,60.01427589,PLT_learning_01,A,2014_Mrz_24_1445,P29,
stim_fb/ques.jpg,stim_fb/negf.jpg,stim_fb/posf.jpg,stim_01/e.jpg,stim_01/f.jpg,2,3,j,4,34,274,50,j,1,0.633112319456,01,02,60.01427589,PLT_learning_01,A,2014_Mrz_24_1445,P29,
stim_fb/ques.jpg,stim_fb/negf.jpg,stim_fb/posf.jpg,stim_01/c.jpg,stim_01/d.jpg,2,2,j,4,35,275,31,j,1,0.499865291238,01,02,60.01427589,PLT_learning_01,A,2014_Mrz_24_1445,P29,
stim_fb/ques.jpg,stim_fb/negf.jpg,stim_fb/posf.jpg,stim_01/e.jpg,stim_01/f.jpg,2,3,j,4,36,276,51,j,1,0.549847513928,01,02,60.01427589,PLT_learning_01,A,2014_Mrz_24_1445,P29,
stim_fb/ques.jpg,stim_fb/negf.jpg,stim_fb/posf.jpg,stim_01/b.jpg,stim_01/a.jpg,1,1,f,4,37,277,2,f,1,0.71649692258,01,02,60.01427589,PLT_learning_01,A,2014_Mrz_24_1445,P29,
stim_fb/ques.jpg,stim_fb/negf.jpg,stim_fb/posf.jpg,stim_01/a.jpg,stim_01/b.jpg,2,1,j,4,38,278,16,j,1,0.616518853241,01,02,60.01427589,PLT_learning_01,A,2014_Mrz_24_1445,P29,
stim_fb/ques.jpg,stim_fb/negf.jpg,stim_fb/posf.jpg,stim_01/c.jpg,stim_01/d.jpg,2,2,j,4,39,279,35,j,1,1.03305693341,01,02,60.01427589,PLT_learning_01,A,2014_Mrz_24_1445,P29,
stim_fb/ques.jpg,stim_fb/negf.jpg,stim_fb/posf.jpg,stim_01/f.jpg,stim_01/e.jpg,1,3,f,4,40,280,44,f,1,0.699802506748,01,02,60.01427589,PLT_learning_01,A,2014_Mrz_24_1445,P29,
stim_fb/ques.jpg,stim_fb/posf.jpg,stim_fb/negf.jpg,stim_01/d.jpg,stim_01/c.jpg,1,2,f,4,41,281,28,j,0,0.899755583792,01,02,60.01427589,PLT_learning_01,A,2014_Mrz_24_1445,P29,
stim_fb/ques.jpg,stim_fb/negf.jpg,stim_fb/posf.jpg,stim_01/e.jpg,stim_01/f.jpg,2,3,j,4,42,282,54,j,1,0.883010181878,01,02,60.01427589,PLT_learning_01,A,2014_Mrz_24_1445,P29,
stim_fb/ques.jpg,stim_fb/posf.jpg,stim_fb/negf.jpg,stim_01/e.jpg,stim_01/f.jpg,2,3,j,4,43,283,58,j,1,0.466544326734,01,02,60.01427589,PLT_learning_01,A,2014_Mrz_24_1445,P29,
stim_fb/ques.jpg,stim_fb/negf.jpg,stim_fb/posf.jpg,stim_01/f.jpg,stim_01/e.jpg,1,3,f,4,44,284,40,f,1,0.633183121931,01,02,60.01427589,PLT_learning_01,A,2014_Mrz_24_1445,P29,
stim_fb/ques.jpg,stim_fb/posf.jpg,stim_fb/negf.jpg,stim_01/e.jpg,stim_01/f.jpg,2,3,j,4,45,285,59,j,1,0.533205786423,01,02,60.01427589,PLT_learning_01,A,2014_Mrz_24_1445,P29,
stim_fb/ques.jpg,stim_fb/negf.jpg,stim_fb/posf.jpg,stim_01/d.jpg,stim_01/c.jpg,1,2,f,4,46,286,20,f,1,0.599875600936,01,02,60.01427589,PLT_learning_01,A,2014_Mrz_24_1445,P29,
stim_fb/ques.jpg,stim_fb/negf.jpg,stim_fb/posf.jpg,stim_01/b.jpg,stim_01/a.jpg,1,1,f,4,47,287,0,f,1,0.499889739175,01,02,60.01427589,PLT_learning_01,A,2014_Mrz_24_1445,P29,
stim_fb/ques.jpg,stim_fb/posf.jpg,stim_fb/negf.jpg,stim_01/d.jpg,stim_01/c.jpg,1,2,f,4,48,288,27,f,1,0.649810729243,01,02,60.01427589,PLT_learning_01,A,2014_Mrz_24_1445,P29,
stim_fb/ques.jpg,stim_fb/posf.jpg,stim_fb/negf.jpg,stim_01/b.jpg,stim_01/a.jpg,1,1,f,4,49,289,9,f,1,0.766475593417,01,02,60.01427589,PLT_learning_01,A,2014_Mrz_24_1445,P29,
stim_fb/ques.jpg,stim_fb/posf.jpg,stim_fb/negf.jpg,stim_01/c.jpg,stim_01/d.jpg,2,2,j,4,50,290,38,j,1,0.449886918143,01,02,60.01427589,PLT_learning_01,A,2014_Mrz_24_1445,P29,
stim_fb/ques.jpg,stim_fb/negf.jpg,stim_fb/posf.jpg,stim_01/f.jpg,stim_01/e.jpg,1,3,f,4,51,291,42,f,1,0.383389926392,01,02,60.01427589,PLT_learning_01,A,2014_Mrz_24_1445,P29,
stim_fb/ques.jpg,stim_fb/negf.jpg,stim_fb/posf.jpg,stim_01/f.jpg,stim_01/e.jpg,1,3,f,4,52,292,41,f,1,0.433271052098,01,02,60.01427589,PLT_learning_01,A,2014_Mrz_24_1445,P29,
stim_fb/ques.jpg,stim_fb/negf.jpg,stim_fb/posf.jpg,stim_01/d.jpg,stim_01/c.jpg,1,2,f,4,53,293,25,j,0,0.366602305246,01,02,60.01427589,PLT_learning_01,A,2014_Mrz_24_1445,P29,
stim_fb/ques.jpg,stim_fb/posf.jpg,stim_fb/negf.jpg,stim_01/f.jpg,stim_01/e.jpg,1,3,f,4,54,294,49,f,1,0.766431476455,01,02,60.01427589,PLT_learning_01,A,2014_Mrz_24_1445,P29,
stim_fb/ques.jpg,stim_fb/negf.jpg,stim_fb/posf.jpg,stim_01/d.jpg,stim_01/c.jpg,1,2,f,4,55,295,21,j,0,0.599860755934,01,02,60.01427589,PLT_learning_01,A,2014_Mrz_24_1445,P29,
stim_fb/ques.jpg,stim_fb/negf.jpg,stim_fb/posf.jpg,stim_01/b.jpg,stim_01/a.jpg,1,1,f,4,56,296,6,f,1,0.666509575116,01,02,60.01427589,PLT_learning_01,A,2014_Mrz_24_1445,P29,
stim_fb/ques.jpg,stim_fb/posf.jpg,stim_fb/negf.jpg,stim_01/e.jpg,stim_01/f.jpg,2,3,j,4,57,297,57,j,1,0.483178481364,01,02,60.01427589,PLT_learning_01,A,2014_Mrz_24_1445,P29,
stim_fb/ques.jpg,stim_fb/negf.jpg,stim_fb/posf.jpg,stim_01/c.jpg,stim_01/d.jpg,2,2,j,4,58,298,34,j,1,0.949700254885,01,02,60.01427589,PLT_learning_01,A,2014_Mrz_24_1445,P29,
stim_fb/ques.jpg,stim_fb/negf.jpg,stim_fb/posf.jpg,stim_01/a.jpg,stim_01/b.jpg,2,1,j,4,59,299,17,j,1,0.78313525763,01,02,60.01427589,PLT_learning_01,A,2014_Mrz_24_1445,P29,
stim_fb/ques.jpg,stim_fb/posf.jpg,stim_fb/negf.jpg,stim_01/d.jpg,stim_01/c.jpg,1,2,f,5,0,300,29,f,1,0.683151266531,01,02,60.01427589,PLT_learning_01,A,2014_Mrz_24_1445,P29,
stim_fb/ques.jpg,stim_fb/negf.jpg,stim_fb/posf.jpg,stim_01/f.jpg,stim_01/e.jpg,1,3,f,5,1,301,43,j,0,0.916428914069,01,02,60.01427589,PLT_learning_01,A,2014_Mrz_24_1445,P29,
stim_fb/ques.jpg,stim_fb/negf.jpg,stim_fb/posf.jpg,stim_01/a.jpg,stim_01/b.jpg,2,1,j,5,2,302,11,j,1,0.649850879317,01,02,60.01427589,PLT_learning_01,A,2014_Mrz_24_1445,P29,
stim_fb/ques.jpg,stim_fb/posf.jpg,stim_fb/negf.jpg,stim_01/c.jpg,stim_01/d.jpg,2,2,j,5,3,303,38,j,1,0.783121705852,01,02,60.01427589,PLT_learning_01,A,2014_Mrz_24_1445,P29,
stim_fb/ques.jpg,stim_fb/negf.jpg,stim_fb/posf.jpg,stim_01/e.jpg,stim_01/f.jpg,2,3,j,5,4,304,54,j,1,1.11659770678,01,02,60.01427589,PLT_learning_01,A,2014_Mrz_24_1445,P29,
stim_fb/ques.jpg,stim_fb/posf.jpg,stim_fb/negf.jpg,stim_01/f.jpg,stim_01/e.jpg,1,3,f,5,5,305,47,f,1,0.566498811288,01,02,60.01427589,PLT_learning_01,A,2014_Mrz_24_1445,P29,
stim_fb/ques.jpg,stim_fb/negf.jpg,stim_fb/posf.jpg,stim_01/a.jpg,stim_01/b.jpg,2,1,j,5,6,306,13,j,1,0.716473803956,01,02,60.01427589,PLT_learning_01,A,2014_Mrz_24_1445,P29,
stim_fb/ques.jpg,stim_fb/negf.jpg,stim_fb/posf.jpg,stim_01/a.jpg,stim_01/b.jpg,2,1,j,5,7,307,14,j,1,0.583169467899,01,02,60.01427589,PLT_learning_01,A,2014_Mrz_24_1445,P29,
stim_fb/ques.jpg,stim_fb/negf.jpg,stim_fb/posf.jpg,stim_01/b.jpg,stim_01/a.jpg,1,1,f,5,8,308,4,f,1,0.516543632003,01,02,60.01427589,PLT_learning_01,A,2014_Mrz_24_1445,P29,
stim_fb/ques.jpg,stim_fb/negf.jpg,stim_fb/posf.jpg,stim_01/a.jpg,stim_01/b.jpg,2,1,j,5,9,309,15,j,1,0.416564504026,01,02,60.01427589,PLT_learning_01,A,2014_Mrz_24_1445,P29,
stim_fb/ques.jpg,stim_fb/negf.jpg,stim_fb/posf.jpg,stim_01/d.jpg,stim_01/c.jpg,1,2,f,5,10,310,20,j,0,0.849919844211,01,02,60.01427589,PLT_learning_01,A,2014_Mrz_24_1445,P29,
stim_fb/ques.jpg,stim_fb/negf.jpg,stim_fb/posf.jpg,stim_01/e.jpg,stim_01/f.jpg,2,3,j,5,11,311,50,j,1,0.549857910843,01,02,60.01427589,PLT_learning_01,A,2014_Mrz_24_1445,P29,
stim_fb/ques.jpg,stim_fb/negf.jpg,stim_fb/posf.jpg,stim_01/e.jpg,stim_01/f.jpg,2,3,j,5,12,312,55,j,1,0.533214026962,01,02,60.01427589,PLT_learning_01,A,2014_Mrz_24_1445,P29,
stim_fb/ques.jpg,stim_fb/negf.jpg,stim_fb/posf.jpg,stim_01/d.jpg,stim_01/c.jpg,1,2,f,5,13,313,25,f,1,0.649835192216,01,02,60.01427589,PLT_learning_01,A,2014_Mrz_24_1445,P29,
stim_fb/ques.jpg,stim_fb/negf.jpg,stim_fb/posf.jpg,stim_01/c.jpg,stim_01/d.jpg,2,2,j,5,14,314,35,j,1,0.31659115345,01,02,60.01427589,PLT_learning_01,A,2014_Mrz_24_1445,P29,
stim_fb/ques.jpg,stim_fb/negf.jpg,stim_fb/posf.jpg,stim_01/c.jpg,stim_01/d.jpg,2,2,j,5,15,315,32,j,1,0.566505818753,01,02,60.01427589,PLT_learning_01,A,2014_Mrz_24_1445,P29,
stim_fb/ques.jpg,stim_fb/negf.jpg,stim_fb/posf.jpg,stim_01/c.jpg,stim_01/d.jpg,2,2,j,5,16,316,31,j,1,0.683166219803,01,02,60.01427589,PLT_learning_01,A,2014_Mrz_24_1445,P29,
stim_fb/ques.jpg,stim_fb/negf.jpg,stim_fb/posf.jpg,stim_01/b.jpg,stim_01/a.jpg,1,1,f,5,17,317,6,f,1,0.63317083631,01,02,60.01427589,PLT_learning_01,A,2014_Mrz_24_1445,P29,
stim_fb/ques.jpg,stim_fb/negf.jpg,stim_fb/posf.jpg,stim_01/f.jpg,stim_01/e.jpg,1,3,f,5,18,318,44,j,0,0.633190177517,01,02,60.01427589,PLT_learning_01,A,2014_Mrz_24_1445,P29,
stim_fb/ques.jpg,stim_fb/posf.jpg,stim_fb/negf.jpg,stim_01/a.jpg,stim_01/b.jpg,2,1,j,5,19,319,18,j,1,0.583199305269,01,02,60.01427589,PLT_learning_01,A,2014_Mrz_24_1445,P29,
stim_fb/ques.jpg,stim_fb/negf.jpg,stim_fb/posf.jpg,stim_01/b.jpg,stim_01/a.jpg,1,1,f,5,20,320,1,f,1,0.583187410621,01,02,60.01427589,PLT_learning_01,A,2014_Mrz_24_1445,P29,
stim_fb/ques.jpg,stim_fb/negf.jpg,stim_fb/posf.jpg,stim_01/e.jpg,stim_01/f.jpg,2,3,j,5,21,321,53,j,1,0.64982681634,01,02,60.01427589,PLT_learning_01,A,2014_Mrz_24_1445,P29,
stim_fb/ques.jpg,stim_fb/posf.jpg,stim_fb/negf.jpg,stim_01/a.jpg,stim_01/b.jpg,2,1,j,5,22,322,19,j,1,0.516533553883,01,02,60.01427589,PLT_learning_01,A,2014_Mrz_24_1445,P29,
stim_fb/ques.jpg,stim_fb/negf.jpg,stim_fb/posf.jpg,stim_01/e.jpg,stim_01/f.jpg,2,3,j,5,23,323,51,j,1,0.466561679987,01,02,60.01427589,PLT_learning_01,A,2014_Mrz_24_1445,P29,
stim_fb/ques.jpg,stim_fb/posf.jpg,stim_fb/negf.jpg,stim_01/e.jpg,stim_01/f.jpg,2,3,j,5,24,324,58,j,1,0.583139687672,01,02,60.01427589,PLT_learning_01,A,2014_Mrz_24_1445,P29,
stim_fb/ques.jpg,stim_fb/negf.jpg,stim_fb/posf.jpg,stim_01/b.jpg,stim_01/a.jpg,1,1,f,5,25,325,5,f,1,0.783122000586,01,02,60.01427589,PLT_learning_01,A,2014_Mrz_24_1445,P29,
stim_fb/ques.jpg,stim_fb/negf.jpg,stim_fb/posf.jpg,stim_01/b.jpg,stim_01/a.jpg,1,1,f,5,26,326,7,f,1,0.516542296675,01,02,60.01427589,PLT_learning_01,A,2014_Mrz_24_1445,P29,
stim_fb/ques.jpg,stim_fb/negf.jpg,stim_fb/posf.jpg,stim_01/f.jpg,stim_01/e.jpg,1,3,f,5,27,327,41,f,1,0.699801150367,01,02,60.01427589,PLT_learning_01,A,2014_Mrz_24_1445,P29,
stim_fb/ques.jpg,stim_fb/negf.jpg,stim_fb/posf.jpg,stim_01/d.jpg,stim_01/c.jpg,1,2,f,5,28,328,23,j,0,0.833097044383,01,02,60.01427589,PLT_learning_01,A,2014_Mrz_24_1445,P29,
stim_fb/ques.jpg,stim_fb/negf.jpg,stim_fb/posf.jpg,stim_01/f.jpg,stim_01/e.jpg,1,3,f,5,29,329,42,f,1,0.71648101894,01,02,60.01427589,PLT_learning_01,A,2014_Mrz_24_1445,P29,
stim_fb/ques.jpg,stim_fb/negf.jpg,stim_fb/posf.jpg,stim_01/a.jpg,stim_01/b.jpg,2,1,j,5,30,330,16,j,1,0.566541024504,01,02,60.01427589,PLT_learning_01,A,2014_Mrz_24_1445,P29,
stim_fb/ques.jpg,stim_fb/posf.jpg,stim_fb/negf.jpg,stim_01/f.jpg,stim_01/e.jpg,1,3,f,5,31,331,46,f,1,0.816422688551,01,02,60.01427589,PLT_learning_01,A,2014_Mrz_24_1445,P29,
stim_fb/ques.jpg,stim_fb/negf.jpg,stim_fb/posf.jpg,stim_01/c.jpg,stim_01/d.jpg,2,2,j,5,32,332,36,j,1,0.61651250141,01,02,60.01427589,PLT_learning_01,A,2014_Mrz_24_1445,P29,
stim_fb/ques.jpg,stim_fb/posf.jpg,stim_fb/negf.jpg,stim_01/b.jpg,stim_01/a.jpg,1,1,f,5,33,333,8,f,1,0.666488688054,01,02,60.01427589,PLT_learning_01,A,2014_Mrz_24_1445,P29,
stim_fb/ques.jpg,stim_fb/negf.jpg,stim_fb/posf.jpg,stim_01/f.jpg,stim_01/e.jpg,1,3,f,5,34,334,45,f,1,0.949729824588,01,02,60.01427589,PLT_learning_01,A,2014_Mrz_24_1445,P29,
stim_fb/ques.jpg,stim_fb/negf.jpg,stim_fb/posf.jpg,stim_01/d.jpg,stim_01/c.jpg,1,2,f,5,35,335,26,f,1,0.516588431666,01,02,60.01427589,PLT_learning_01,A,2014_Mrz_24_1445,P29,
stim_fb/ques.jpg,stim_fb/posf.jpg,stim_fb/negf.jpg,stim_01/e.jpg,stim_01/f.jpg,2,3,j,5,36,336,59,j,1,0.766462384494,01,02,60.01427589,PLT_learning_01,A,2014_Mrz_24_1445,P29,
stim_fb/ques.jpg,stim_fb/posf.jpg,stim_fb/negf.jpg,stim_01/e.jpg,stim_01/f.jpg,2,3,j,5,37,337,57,j,1,0.816389248202,01,02,60.01427589,PLT_learning_01,A,2014_Mrz_24_1445,P29,
stim_fb/ques.jpg,stim_fb/posf.jpg,stim_fb/negf.jpg,stim_01/d.jpg,stim_01/c.jpg,1,2,f,5,38,338,27,f,1,0.666495884993,01,02,60.01427589,PLT_learning_01,A,2014_Mrz_24_1445,P29,
stim_fb/ques.jpg,stim_fb/posf.jpg,stim_fb/negf.jpg,stim_01/f.jpg,stim_01/e.jpg,1,3,f,5,39,339,49,f,1,0.749806151834,01,02,60.01427589,PLT_learning_01,A,2014_Mrz_24_1445,P29,
stim_fb/ques.jpg,stim_fb/negf.jpg,stim_fb/posf.jpg,stim_01/f.jpg,stim_01/e.jpg,1,3,f,5,40,340,40,j,0,0.233303481929,01,02,60.01427589,PLT_learning_01,A,2014_Mrz_24_1445,P29,
stim_fb/ques.jpg,stim_fb/negf.jpg,stim_fb/posf.jpg,stim_01/a.jpg,stim_01/b.jpg,2,1,j,5,41,341,10,j,1,0.716496829347,01,02,60.01427589,PLT_learning_01,A,2014_Mrz_24_1445,P29,
stim_fb/ques.jpg,stim_fb/negf.jpg,stim_fb/posf.jpg,stim_01/b.jpg,stim_01/a.jpg,1,1,f,5,42,342,2,f,1,0.549861883745,01,02,60.01427589,PLT_learning_01,A,2014_Mrz_24_1445,P29,
stim_fb/ques.jpg,stim_fb/negf.jpg,stim_fb/posf.jpg,stim_01/b.jpg,stim_01/a.jpg,1,1,f,5,43,343,0,f,1,0.733155007857,01,02,60.01427589,PLT_learning_01,A,2014_Mrz_24_1445,P29,
stim_fb/ques.jpg,stim_fb/posf.jpg,stim_fb/negf.jpg,stim_01/c.jpg,stim_01/d.jpg,2,2,j,5,44,344,37,j,1,0.683145356802,01,02,60.01427589,PLT_learning_01,A,2014_Mrz_24_1445,P29,
stim_fb/ques.jpg,stim_fb/posf.jpg,stim_fb/negf.jpg,stim_01/e.jpg,stim_01/f.jpg,2,3,j,5,45,345,56,j,1,0.666471202472,01,02,60.01427589,PLT_learning_01,A,2014_Mrz_24_1445,P29,
stim_fb/ques.jpg,stim_fb/posf.jpg,stim_fb/negf.jpg,stim_01/b.jpg,stim_01/a.jpg,1,1,f,5,46,346,9,f,1,0.633159786768,01,02,60.01427589,PLT_learning_01,A,2014_Mrz_24_1445,P29,
stim_fb/ques.jpg,stim_fb/negf.jpg,stim_fb/posf.jpg,stim_01/c.jpg,stim_01/d.jpg,2,2,j,5,47,347,33,j,1,0.916410252555,01,02,60.01427589,PLT_learning_01,A,2014_Mrz_24_1445,P29,
stim_fb/ques.jpg,stim_fb/posf.jpg,stim_fb/negf.jpg,stim_01/f.jpg,stim_01/e.jpg,1,3,f,5,48,348,48,j,0,0.399930102781,01,02,60.01427589,PLT_learning_01,A,2014_Mrz_24_1445,P29,
stim_fb/ques.jpg,stim_fb/negf.jpg,stim_fb/posf.jpg,stim_01/b.jpg,stim_01/a.jpg,1,1,f,5,49,349,3,f,1,0.5332173322,01,02,60.01427589,PLT_learning_01,A,2014_Mrz_24_1445,P29,
stim_fb/ques.jpg,stim_fb/negf.jpg,stim_fb/posf.jpg,stim_01/c.jpg,stim_01/d.jpg,2,2,j,5,50,350,30,j,1,0.816430135112,01,02,60.01427589,PLT_learning_01,A,2014_Mrz_24_1445,P29,
stim_fb/ques.jpg,stim_fb/negf.jpg,stim_fb/posf.jpg,stim_01/d.jpg,stim_01/c.jpg,1,2,f,5,51,351,21,f,1,0.483216174314,01,02,60.01427589,PLT_learning_01,A,2014_Mrz_24_1445,P29,
stim_fb/ques.jpg,stim_fb/posf.jpg,stim_fb/negf.jpg,stim_01/d.jpg,stim_01/c.jpg,1,2,f,5,52,352,28,f,1,0.449912268328,01,02,60.01427589,PLT_learning_01,A,2014_Mrz_24_1445,P29,
stim_fb/ques.jpg,stim_fb/negf.jpg,stim_fb/posf.jpg,stim_01/d.jpg,stim_01/c.jpg,1,2,f,5,53,353,22,f,1,0.549876118224,01,02,60.01427589,PLT_learning_01,A,2014_Mrz_24_1445,P29,
stim_fb/ques.jpg,stim_fb/negf.jpg,stim_fb/posf.jpg,stim_01/e.jpg,stim_01/f.jpg,2,3,j,5,54,354,52,j,1,0.816442883888,01,02,60.01427589,PLT_learning_01,A,2014_Mrz_24_1445,P29,
stim_fb/ques.jpg,stim_fb/negf.jpg,stim_fb/posf.jpg,stim_01/d.jpg,stim_01/c.jpg,1,2,f,5,55,355,24,f,1,0.616530624582,01,02,60.01427589,PLT_learning_01,A,2014_Mrz_24_1445,P29,
stim_fb/ques.jpg,stim_fb/negf.jpg,stim_fb/posf.jpg,stim_01/c.jpg,stim_01/d.jpg,2,2,j,5,56,356,34,j,1,0.783121558485,01,02,60.01427589,PLT_learning_01,A,2014_Mrz_24_1445,P29,
stim_fb/ques.jpg,stim_fb/posf.jpg,stim_fb/negf.jpg,stim_01/c.jpg,stim_01/d.jpg,2,2,j,5,57,357,39,j,1,0.599831640364,01,02,60.01427589,PLT_learning_01,A,2014_Mrz_24_1445,P29,
stim_fb/ques.jpg,stim_fb/negf.jpg,stim_fb/posf.jpg,stim_01/a.jpg,stim_01/b.jpg,2,1,j,5,58,358,17,j,1,0.699866073187,01,02,60.01427589,PLT_learning_01,A,2014_Mrz_24_1445,P29,
stim_fb/ques.jpg,stim_fb/negf.jpg,stim_fb/posf.jpg,stim_01/a.jpg,stim_01/b.jpg,2,1,j,5,59,359,12,j,1,0.566502549605,01,02,60.01427589,PLT_learning_01,A,2014_Mrz_24_1445,P29,
