Fb3,Fb2,Fb1,Symbol2,Symbol1,PosCond,Pair,Correct,trials.thisRepN,trials.thisTrialN,trials.thisN,trials.thisIndex,Response.keys,Response.corr,Response.rt,Version,Session Number,frameRate,expName,StimCondition,date,Participant,
stim_fb/ques.jpg,stim_fb/negf.jpg,stim_fb/posf.jpg,stim_03/c.jpg,stim_03/d.jpg,2,2,j,0,0,0,33,None,0,,03,3,60.0230046139,PLT_learning_3,A,2014_Apr_01_1328,P30,
stim_fb/ques.jpg,stim_fb/negf.jpg,stim_fb/posf.jpg,stim_03/e.jpg,stim_03/f.jpg,2,3,j,0,1,1,54,j,1,0.983055140939,03,3,60.0230046139,PLT_learning_3,A,2014_Apr_01_1328,P30,
stim_fb/ques.jpg,stim_fb/negf.jpg,stim_fb/posf.jpg,stim_03/e.jpg,stim_03/f.jpg,2,3,j,0,2,2,51,j,1,1.04969751205,03,3,60.0230046139,PLT_learning_3,A,2014_Apr_01_1328,P30,
stim_fb/ques.jpg,stim_fb/negf.jpg,stim_fb/posf.jpg,stim_03/d.jpg,stim_03/c.jpg,1,2,f,0,3,3,26,f,1,1.08303379373,03,3,60.0230046139,PLT_learning_3,A,2014_Apr_01_1328,P30,
stim_fb/ques.jpg,stim_fb/negf.jpg,stim_fb/posf.jpg,stim_03/e.jpg,stim_03/f.jpg,2,3,j,0,4,4,50,j,1,1.19965478154,03,3,60.0230046139,PLT_learning_3,A,2014_Apr_01_1328,P30,
stim_fb/ques.jpg,stim_fb/posf.jpg,stim_fb/negf.jpg,stim_03/e.jpg,stim_03/f.jpg,2,3,j,0,5,5,57,j,1,1.24958489635,03,3,60.0230046139,PLT_learning_3,A,2014_Apr_01_1328,P30,
stim_fb/ques.jpg,stim_fb/negf.jpg,stim_fb/posf.jpg,stim_03/a.jpg,stim_03/b.jpg,2,1,j,0,6,6,12,f,0,1.16654864249,03,3,60.0230046139,PLT_learning_3,A,2014_Apr_01_1328,P30,
stim_fb/ques.jpg,stim_fb/negf.jpg,stim_fb/posf.jpg,stim_03/b.jpg,stim_03/a.jpg,1,1,f,0,7,7,1,f,1,0.949683436967,03,3,60.0230046139,PLT_learning_3,A,2014_Apr_01_1328,P30,
stim_fb/ques.jpg,stim_fb/negf.jpg,stim_fb/posf.jpg,stim_03/e.jpg,stim_03/f.jpg,2,3,j,0,8,8,52,j,1,0.949733135841,03,3,60.0230046139,PLT_learning_3,A,2014_Apr_01_1328,P30,
stim_fb/ques.jpg,stim_fb/negf.jpg,stim_fb/posf.jpg,stim_03/f.jpg,stim_03/e.jpg,1,3,f,0,9,9,41,f,1,0.833089712107,03,3,60.0230046139,PLT_learning_3,A,2014_Apr_01_1328,P30,
stim_fb/ques.jpg,stim_fb/negf.jpg,stim_fb/posf.jpg,stim_03/d.jpg,stim_03/c.jpg,1,2,f,0,10,10,20,j,0,1.06636658371,03,3,60.0230046139,PLT_learning_3,A,2014_Apr_01_1328,P30,
stim_fb/ques.jpg,stim_fb/posf.jpg,stim_fb/negf.jpg,stim_03/f.jpg,stim_03/e.jpg,1,3,f,0,11,11,47,f,1,0.899759072488,03,3,60.0230046139,PLT_learning_3,A,2014_Apr_01_1328,P30,
stim_fb/ques.jpg,stim_fb/negf.jpg,stim_fb/posf.jpg,stim_03/b.jpg,stim_03/a.jpg,1,1,f,0,12,12,2,f,1,0.849750588342,03,3,60.0230046139,PLT_learning_3,A,2014_Apr_01_1328,P30,
stim_fb/ques.jpg,stim_fb/negf.jpg,stim_fb/posf.jpg,stim_03/c.jpg,stim_03/d.jpg,2,2,j,0,13,13,30,f,0,0.899741180893,03,3,60.0230046139,PLT_learning_3,A,2014_Apr_01_1328,P30,
stim_fb/ques.jpg,stim_fb/negf.jpg,stim_fb/posf.jpg,stim_03/e.jpg,stim_03/f.jpg,2,3,j,0,14,14,53,j,1,0.883112295396,03,3,60.0230046139,PLT_learning_3,A,2014_Apr_01_1328,P30,
stim_fb/ques.jpg,stim_fb/posf.jpg,stim_fb/negf.jpg,stim_03/d.jpg,stim_03/c.jpg,1,2,f,0,15,15,28,j,0,1.21627957083,03,3,60.0230046139,PLT_learning_3,A,2014_Apr_01_1328,P30,
stim_fb/ques.jpg,stim_fb/posf.jpg,stim_fb/negf.jpg,stim_03/d.jpg,stim_03/c.jpg,1,2,f,0,16,16,29,j,0,0.933059531883,03,3,60.0230046139,PLT_learning_3,A,2014_Apr_01_1328,P30,
stim_fb/ques.jpg,stim_fb/negf.jpg,stim_fb/posf.jpg,stim_03/b.jpg,stim_03/a.jpg,1,1,f,0,17,17,5,j,0,0.949758413846,03,3,60.0230046139,PLT_learning_3,A,2014_Apr_01_1328,P30,
stim_fb/ques.jpg,stim_fb/posf.jpg,stim_fb/negf.jpg,stim_03/f.jpg,stim_03/e.jpg,1,3,f,0,18,18,49,f,1,0.866415121691,03,3,60.0230046139,PLT_learning_3,A,2014_Apr_01_1328,P30,
stim_fb/ques.jpg,stim_fb/posf.jpg,stim_fb/negf.jpg,stim_03/c.jpg,stim_03/d.jpg,2,2,j,0,19,19,38,f,0,0.93306173337,03,3,60.0230046139,PLT_learning_3,A,2014_Apr_01_1328,P30,
stim_fb/ques.jpg,stim_fb/posf.jpg,stim_fb/negf.jpg,stim_03/a.jpg,stim_03/b.jpg,2,1,j,0,20,20,19,j,1,0.816438826776,03,3,60.0230046139,PLT_learning_3,A,2014_Apr_01_1328,P30,
stim_fb/ques.jpg,stim_fb/negf.jpg,stim_fb/posf.jpg,stim_03/a.jpg,stim_03/b.jpg,2,1,j,0,21,21,11,j,1,0.88309746844,03,3,60.0230046139,PLT_learning_3,A,2014_Apr_01_1328,P30,
stim_fb/ques.jpg,stim_fb/posf.jpg,stim_fb/negf.jpg,stim_03/a.jpg,stim_03/b.jpg,2,1,j,0,22,22,18,j,1,0.816464062676,03,3,60.0230046139,PLT_learning_3,A,2014_Apr_01_1328,P30,
stim_fb/ques.jpg,stim_fb/negf.jpg,stim_fb/posf.jpg,stim_03/a.jpg,stim_03/b.jpg,2,1,j,0,23,23,17,j,1,0.666467882196,03,3,60.0230046139,PLT_learning_3,A,2014_Apr_01_1328,P30,
stim_fb/ques.jpg,stim_fb/negf.jpg,stim_fb/posf.jpg,stim_03/c.jpg,stim_03/d.jpg,2,2,j,0,24,24,34,j,1,0.766471304727,03,3,60.0230046139,PLT_learning_3,A,2014_Apr_01_1328,P30,
stim_fb/ques.jpg,stim_fb/negf.jpg,stim_fb/posf.jpg,stim_03/d.jpg,stim_03/c.jpg,1,2,f,0,25,25,24,j,0,0.849780624206,03,3,60.0230046139,PLT_learning_3,A,2014_Apr_01_1328,P30,
stim_fb/ques.jpg,stim_fb/negf.jpg,stim_fb/posf.jpg,stim_03/b.jpg,stim_03/a.jpg,1,1,f,0,26,26,4,f,1,0.949719430681,03,3,60.0230046139,PLT_learning_3,A,2014_Apr_01_1328,P30,
stim_fb/ques.jpg,stim_fb/negf.jpg,stim_fb/posf.jpg,stim_03/c.jpg,stim_03/d.jpg,2,2,j,0,27,27,36,f,0,0.899748669559,03,3,60.0230046139,PLT_learning_3,A,2014_Apr_01_1328,P30,
stim_fb/ques.jpg,stim_fb/negf.jpg,stim_fb/posf.jpg,stim_03/f.jpg,stim_03/e.jpg,1,3,f,0,28,28,43,j,0,0.733120280299,03,3,60.0230046139,PLT_learning_3,A,2014_Apr_01_1328,P30,
stim_fb/ques.jpg,stim_fb/negf.jpg,stim_fb/posf.jpg,stim_03/a.jpg,stim_03/b.jpg,2,1,j,0,29,29,10,j,1,0.683165431839,03,3,60.0230046139,PLT_learning_3,A,2014_Apr_01_1328,P30,
stim_fb/ques.jpg,stim_fb/negf.jpg,stim_fb/posf.jpg,stim_03/a.jpg,stim_03/b.jpg,2,1,j,0,30,30,13,j,1,0.499838365125,03,3,60.0230046139,PLT_learning_3,A,2014_Apr_01_1328,P30,
stim_fb/ques.jpg,stim_fb/posf.jpg,stim_fb/negf.jpg,stim_03/e.jpg,stim_03/f.jpg,2,3,j,0,31,31,59,j,1,0.616497581221,03,3,60.0230046139,PLT_learning_3,A,2014_Apr_01_1328,P30,
stim_fb/ques.jpg,stim_fb/negf.jpg,stim_fb/posf.jpg,stim_03/d.jpg,stim_03/c.jpg,1,2,f,0,32,32,21,j,0,0.64983224487,03,3,60.0230046139,PLT_learning_3,A,2014_Apr_01_1328,P30,
stim_fb/ques.jpg,stim_fb/negf.jpg,stim_fb/posf.jpg,stim_03/b.jpg,stim_03/a.jpg,1,1,f,0,33,33,6,f,1,0.533221593823,03,3,60.0230046139,PLT_learning_3,A,2014_Apr_01_1328,P30,
stim_fb/ques.jpg,stim_fb/posf.jpg,stim_fb/negf.jpg,stim_03/e.jpg,stim_03/f.jpg,2,3,j,0,34,34,58,f,0,0.583161365704,03,3,60.0230046139,PLT_learning_3,A,2014_Apr_01_1328,P30,
stim_fb/ques.jpg,stim_fb/negf.jpg,stim_fb/posf.jpg,stim_03/b.jpg,stim_03/a.jpg,1,1,f,0,35,35,3,f,1,0.59986043714,03,3,60.0230046139,PLT_learning_3,A,2014_Apr_01_1328,P30,
stim_fb/ques.jpg,stim_fb/negf.jpg,stim_fb/posf.jpg,stim_03/d.jpg,stim_03/c.jpg,1,2,f,0,36,36,25,j,0,0.433253196592,03,3,60.0230046139,PLT_learning_3,A,2014_Apr_01_1328,P30,
stim_fb/ques.jpg,stim_fb/negf.jpg,stim_fb/posf.jpg,stim_03/d.jpg,stim_03/c.jpg,1,2,f,0,37,37,22,f,1,0.483225425373,03,3,60.0230046139,PLT_learning_3,A,2014_Apr_01_1328,P30,
stim_fb/ques.jpg,stim_fb/negf.jpg,stim_fb/posf.jpg,stim_03/c.jpg,stim_03/d.jpg,2,2,j,0,38,38,32,f,0,0.549848055278,03,3,60.0230046139,PLT_learning_3,A,2014_Apr_01_1328,P30,
stim_fb/ques.jpg,stim_fb/negf.jpg,stim_fb/posf.jpg,stim_03/b.jpg,stim_03/a.jpg,1,1,f,0,39,39,0,j,0,0.549869507748,03,3,60.0230046139,PLT_learning_3,A,2014_Apr_01_1328,P30,
stim_fb/ques.jpg,stim_fb/negf.jpg,stim_fb/posf.jpg,stim_03/d.jpg,stim_03/c.jpg,1,2,f,0,40,40,23,j,0,0.566529421583,03,3,60.0230046139,PLT_learning_3,A,2014_Apr_01_1328,P30,
stim_fb/ques.jpg,stim_fb/negf.jpg,stim_fb/posf.jpg,stim_03/e.jpg,stim_03/f.jpg,2,3,j,0,41,41,55,j,1,0.0999896030858,03,3,60.0230046139,PLT_learning_3,A,2014_Apr_01_1328,P30,
stim_fb/ques.jpg,stim_fb/posf.jpg,stim_fb/negf.jpg,stim_03/d.jpg,stim_03/c.jpg,1,2,f,0,42,42,27,f,1,0.699812013443,03,3,60.0230046139,PLT_learning_3,A,2014_Apr_01_1328,P30,
stim_fb/ques.jpg,stim_fb/negf.jpg,stim_fb/posf.jpg,stim_03/a.jpg,stim_03/b.jpg,2,1,j,0,43,43,15,f,0,0.949727974978,03,3,60.0230046139,PLT_learning_3,A,2014_Apr_01_1328,P30,
stim_fb/ques.jpg,stim_fb/negf.jpg,stim_fb/posf.jpg,stim_03/f.jpg,stim_03/e.jpg,1,3,f,0,44,44,42,j,0,0.433186767017,03,3,60.0230046139,PLT_learning_3,A,2014_Apr_01_1328,P30,
stim_fb/ques.jpg,stim_fb/negf.jpg,stim_fb/posf.jpg,stim_03/c.jpg,stim_03/d.jpg,2,2,j,0,45,45,31,f,0,0.783093399298,03,3,60.0230046139,PLT_learning_3,A,2014_Apr_01_1328,P30,
stim_fb/ques.jpg,stim_fb/negf.jpg,stim_fb/posf.jpg,stim_03/c.jpg,stim_03/d.jpg,2,2,j,0,46,46,35,f,0,0.699843378621,03,3,60.0230046139,PLT_learning_3,A,2014_Apr_01_1328,P30,
stim_fb/ques.jpg,stim_fb/posf.jpg,stim_fb/negf.jpg,stim_03/c.jpg,stim_03/d.jpg,2,2,j,0,47,47,37,f,0,0.649877321223,03,3,60.0230046139,PLT_learning_3,A,2014_Apr_01_1328,P30,
stim_fb/ques.jpg,stim_fb/posf.jpg,stim_fb/negf.jpg,stim_03/c.jpg,stim_03/d.jpg,2,2,j,0,48,48,39,f,0,0.749803484184,03,3,60.0230046139,PLT_learning_3,A,2014_Apr_01_1328,P30,
stim_fb/ques.jpg,stim_fb/negf.jpg,stim_fb/posf.jpg,stim_03/f.jpg,stim_03/e.jpg,1,3,f,0,49,49,40,j,0,0.749801418034,03,3,60.0230046139,PLT_learning_3,A,2014_Apr_01_1328,P30,
stim_fb/ques.jpg,stim_fb/posf.jpg,stim_fb/negf.jpg,stim_03/b.jpg,stim_03/a.jpg,1,1,f,0,50,50,9,f,1,0.783091793295,03,3,60.0230046139,PLT_learning_3,A,2014_Apr_01_1328,P30,
stim_fb/ques.jpg,stim_fb/negf.jpg,stim_fb/posf.jpg,stim_03/f.jpg,stim_03/e.jpg,1,3,f,0,51,51,45,j,0,0.733141546304,03,3,60.0230046139,PLT_learning_3,A,2014_Apr_01_1328,P30,
stim_fb/ques.jpg,stim_fb/posf.jpg,stim_fb/negf.jpg,stim_03/e.jpg,stim_03/f.jpg,2,3,j,0,52,52,56,j,1,1.13300773378,03,3,60.0230046139,PLT_learning_3,A,2014_Apr_01_1328,P30,
stim_fb/ques.jpg,stim_fb/negf.jpg,stim_fb/posf.jpg,stim_03/a.jpg,stim_03/b.jpg,2,1,j,0,53,53,14,j,1,0.616497737611,03,3,60.0230046139,PLT_learning_3,A,2014_Apr_01_1328,P30,
stim_fb/ques.jpg,stim_fb/posf.jpg,stim_fb/negf.jpg,stim_03/f.jpg,stim_03/e.jpg,1,3,f,0,54,54,46,j,0,0.566528552417,03,3,60.0230046139,PLT_learning_3,A,2014_Apr_01_1328,P30,
stim_fb/ques.jpg,stim_fb/negf.jpg,stim_fb/posf.jpg,stim_03/b.jpg,stim_03/a.jpg,1,1,f,0,55,55,7,f,1,0.633183558018,03,3,60.0230046139,PLT_learning_3,A,2014_Apr_01_1328,P30,
stim_fb/ques.jpg,stim_fb/posf.jpg,stim_fb/negf.jpg,stim_03/f.jpg,stim_03/e.jpg,1,3,f,0,56,56,48,j,0,0.666505945068,03,3,60.0230046139,PLT_learning_3,A,2014_Apr_01_1328,P30,
stim_fb/ques.jpg,stim_fb/negf.jpg,stim_fb/posf.jpg,stim_03/f.jpg,stim_03/e.jpg,1,3,f,0,57,57,44,j,0,0.699808491665,03,3,60.0230046139,PLT_learning_3,A,2014_Apr_01_1328,P30,
stim_fb/ques.jpg,stim_fb/posf.jpg,stim_fb/negf.jpg,stim_03/b.jpg,stim_03/a.jpg,1,1,f,0,58,58,8,j,0,0.616459918346,03,3,60.0230046139,PLT_learning_3,A,2014_Apr_01_1328,P30,
stim_fb/ques.jpg,stim_fb/negf.jpg,stim_fb/posf.jpg,stim_03/a.jpg,stim_03/b.jpg,2,1,j,0,59,59,16,f,0,0.733147212427,03,3,60.0230046139,PLT_learning_3,A,2014_Apr_01_1328,P30,
stim_fb/ques.jpg,stim_fb/negf.jpg,stim_fb/posf.jpg,stim_03/f.jpg,stim_03/e.jpg,1,3,f,1,0,60,42,j,0,0.583176514462,03,3,60.0230046139,PLT_learning_3,A,2014_Apr_01_1328,P30,
stim_fb/ques.jpg,stim_fb/negf.jpg,stim_fb/posf.jpg,stim_03/c.jpg,stim_03/d.jpg,2,2,j,1,1,61,34,j,1,0.49988999782,03,3,60.0230046139,PLT_learning_3,A,2014_Apr_01_1328,P30,
stim_fb/ques.jpg,stim_fb/negf.jpg,stim_fb/posf.jpg,stim_03/e.jpg,stim_03/f.jpg,2,3,j,1,2,62,54,f,0,0.783134629063,03,3,60.0230046139,PLT_learning_3,A,2014_Apr_01_1328,P30,
stim_fb/ques.jpg,stim_fb/negf.jpg,stim_fb/posf.jpg,stim_03/e.jpg,stim_03/f.jpg,2,3,j,1,3,63,53,j,1,0.999712886369,03,3,60.0230046139,PLT_learning_3,A,2014_Apr_01_1328,P30,
stim_fb/ques.jpg,stim_fb/negf.jpg,stim_fb/posf.jpg,stim_03/f.jpg,stim_03/e.jpg,1,3,f,1,4,64,45,f,1,0.716501448861,03,3,60.0230046139,PLT_learning_3,A,2014_Apr_01_1328,P30,
stim_fb/ques.jpg,stim_fb/negf.jpg,stim_fb/posf.jpg,stim_03/a.jpg,stim_03/b.jpg,2,1,j,1,5,65,17,j,1,0.899731358411,03,3,60.0230046139,PLT_learning_3,A,2014_Apr_01_1328,P30,
stim_fb/ques.jpg,stim_fb/posf.jpg,stim_fb/negf.jpg,stim_03/c.jpg,stim_03/d.jpg,2,2,j,1,6,66,39,f,0,0.949753009376,03,3,60.0230046139,PLT_learning_3,A,2014_Apr_01_1328,P30,
stim_fb/ques.jpg,stim_fb/negf.jpg,stim_fb/posf.jpg,stim_03/d.jpg,stim_03/c.jpg,1,2,f,1,7,67,26,j,0,1.0331593176,03,3,60.0230046139,PLT_learning_3,A,2014_Apr_01_1328,P30,
stim_fb/ques.jpg,stim_fb/negf.jpg,stim_fb/posf.jpg,stim_03/b.jpg,stim_03/a.jpg,1,1,f,1,8,68,5,j,0,0.749814939737,03,3,60.0230046139,PLT_learning_3,A,2014_Apr_01_1328,P30,
stim_fb/ques.jpg,stim_fb/negf.jpg,stim_fb/posf.jpg,stim_03/c.jpg,stim_03/d.jpg,2,2,j,1,9,69,36,j,1,0.949762858926,03,3,60.0230046139,PLT_learning_3,A,2014_Apr_01_1328,P30,
stim_fb/ques.jpg,stim_fb/negf.jpg,stim_fb/posf.jpg,stim_03/b.jpg,stim_03/a.jpg,1,1,f,1,10,70,3,f,1,0.599860001053,03,3,60.0230046139,PLT_learning_3,A,2014_Apr_01_1328,P30,
stim_fb/ques.jpg,stim_fb/negf.jpg,stim_fb/posf.jpg,stim_03/a.jpg,stim_03/b.jpg,2,1,j,1,11,71,15,j,1,0.633162625845,03,3,60.0230046139,PLT_learning_3,A,2014_Apr_01_1328,P30,
stim_fb/ques.jpg,stim_fb/negf.jpg,stim_fb/posf.jpg,stim_03/d.jpg,stim_03/c.jpg,1,2,f,1,12,72,23,f,1,0.733147789866,03,3,60.0230046139,PLT_learning_3,A,2014_Apr_01_1328,P30,
stim_fb/ques.jpg,stim_fb/negf.jpg,stim_fb/posf.jpg,stim_03/c.jpg,stim_03/d.jpg,2,2,j,1,13,73,33,j,1,0.416576558071,03,3,60.0230046139,PLT_learning_3,A,2014_Apr_01_1328,P30,
stim_fb/ques.jpg,stim_fb/posf.jpg,stim_fb/negf.jpg,stim_03/c.jpg,stim_03/d.jpg,2,2,j,1,14,74,37,f,0,0.633151922166,03,3,60.0230046139,PLT_learning_3,A,2014_Apr_01_1328,P30,
stim_fb/ques.jpg,stim_fb/posf.jpg,stim_fb/negf.jpg,stim_03/e.jpg,stim_03/f.jpg,2,3,j,1,15,75,59,j,1,0.799757249945,03,3,60.0230046139,PLT_learning_3,A,2014_Apr_01_1328,P30,
stim_fb/ques.jpg,stim_fb/negf.jpg,stim_fb/posf.jpg,stim_03/b.jpg,stim_03/a.jpg,1,1,f,1,16,76,0,j,0,0.533203924782,03,3,60.0230046139,PLT_learning_3,A,2014_Apr_01_1328,P30,
stim_fb/ques.jpg,stim_fb/negf.jpg,stim_fb/posf.jpg,stim_03/c.jpg,stim_03/d.jpg,2,2,j,1,17,77,35,f,0,0.649833986211,03,3,60.0230046139,PLT_learning_3,A,2014_Apr_01_1328,P30,
stim_fb/ques.jpg,stim_fb/negf.jpg,stim_fb/posf.jpg,stim_03/d.jpg,stim_03/c.jpg,1,2,f,1,18,78,24,f,1,0.499877691145,03,3,60.0230046139,PLT_learning_3,A,2014_Apr_01_1328,P30,
stim_fb/ques.jpg,stim_fb/posf.jpg,stim_fb/negf.jpg,stim_03/d.jpg,stim_03/c.jpg,1,2,f,1,19,79,27,f,1,0.599856590552,03,3,60.0230046139,PLT_learning_3,A,2014_Apr_01_1328,P30,
stim_fb/ques.jpg,stim_fb/posf.jpg,stim_fb/negf.jpg,stim_03/d.jpg,stim_03/c.jpg,1,2,f,1,20,80,29,j,0,0.483224823873,03,3,60.0230046139,PLT_learning_3,A,2014_Apr_01_1328,P30,
stim_fb/ques.jpg,stim_fb/negf.jpg,stim_fb/posf.jpg,stim_03/e.jpg,stim_03/f.jpg,2,3,j,1,21,81,52,f,0,0.716484498613,03,3,60.0230046139,PLT_learning_3,A,2014_Apr_01_1328,P30,
stim_fb/ques.jpg,stim_fb/negf.jpg,stim_fb/posf.jpg,stim_03/e.jpg,stim_03/f.jpg,2,3,j,1,22,82,51,f,0,0.616517632198,03,3,60.0230046139,PLT_learning_3,A,2014_Apr_01_1328,P30,
stim_fb/ques.jpg,stim_fb/negf.jpg,stim_fb/posf.jpg,stim_03/a.jpg,stim_03/b.jpg,2,1,j,1,23,83,16,j,1,0.616522883287,03,3,60.0230046139,PLT_learning_3,A,2014_Apr_01_1328,P30,
stim_fb/ques.jpg,stim_fb/negf.jpg,stim_fb/posf.jpg,stim_03/b.jpg,stim_03/a.jpg,1,1,f,1,24,84,7,f,1,0.799788145954,03,3,60.0230046139,PLT_learning_3,A,2014_Apr_01_1328,P30,
stim_fb/ques.jpg,stim_fb/negf.jpg,stim_fb/posf.jpg,stim_03/e.jpg,stim_03/f.jpg,2,3,j,1,25,85,55,f,0,0.533191479763,03,3,60.0230046139,PLT_learning_3,A,2014_Apr_01_1328,P30,
stim_fb/ques.jpg,stim_fb/posf.jpg,stim_fb/negf.jpg,stim_03/e.jpg,stim_03/f.jpg,2,3,j,1,26,86,58,f,0,0.816442634266,03,3,60.0230046139,PLT_learning_3,A,2014_Apr_01_1328,P30,
stim_fb/ques.jpg,stim_fb/negf.jpg,stim_fb/posf.jpg,stim_03/f.jpg,stim_03/e.jpg,1,3,f,1,27,87,44,j,0,0.616522579529,03,3,60.0230046139,PLT_learning_3,A,2014_Apr_01_1328,P30,
stim_fb/ques.jpg,stim_fb/posf.jpg,stim_fb/negf.jpg,stim_03/f.jpg,stim_03/e.jpg,1,3,f,1,28,88,47,f,1,0.449910126991,03,3,60.0230046139,PLT_learning_3,A,2014_Apr_01_1328,P30,
stim_fb/ques.jpg,stim_fb/negf.jpg,stim_fb/posf.jpg,stim_03/d.jpg,stim_03/c.jpg,1,2,f,1,29,89,21,j,0,0.449794783498,03,3,60.0230046139,PLT_learning_3,A,2014_Apr_01_1328,P30,
stim_fb/ques.jpg,stim_fb/posf.jpg,stim_fb/negf.jpg,stim_03/f.jpg,stim_03/e.jpg,1,3,f,1,30,90,49,j,0,0.466564449891,03,3,60.0230046139,PLT_learning_3,A,2014_Apr_01_1328,P30,
stim_fb/ques.jpg,stim_fb/negf.jpg,stim_fb/posf.jpg,stim_03/c.jpg,stim_03/d.jpg,2,2,j,1,31,91,32,f,0,0.666490624882,03,3,60.0230046139,PLT_learning_3,A,2014_Apr_01_1328,P30,
stim_fb/ques.jpg,stim_fb/negf.jpg,stim_fb/posf.jpg,stim_03/a.jpg,stim_03/b.jpg,2,1,j,1,32,92,10,f,0,0.783145374847,03,3,60.0230046139,PLT_learning_3,A,2014_Apr_01_1328,P30,
stim_fb/ques.jpg,stim_fb/negf.jpg,stim_fb/posf.jpg,stim_03/f.jpg,stim_03/e.jpg,1,3,f,1,33,93,41,j,0,0.499876716716,03,3,60.0230046139,PLT_learning_3,A,2014_Apr_01_1328,P30,
stim_fb/ques.jpg,stim_fb/negf.jpg,stim_fb/posf.jpg,stim_03/a.jpg,stim_03/b.jpg,2,1,j,1,34,94,12,j,1,0.716487788814,03,3,60.0230046139,PLT_learning_3,A,2014_Apr_01_1328,P30,
stim_fb/ques.jpg,stim_fb/posf.jpg,stim_fb/negf.jpg,stim_03/e.jpg,stim_03/f.jpg,2,3,j,1,35,95,57,f,0,0.699786642206,03,3,60.0230046139,PLT_learning_3,A,2014_Apr_01_1328,P30,
stim_fb/ques.jpg,stim_fb/posf.jpg,stim_fb/negf.jpg,stim_03/f.jpg,stim_03/e.jpg,1,3,f,1,36,96,48,j,0,0.533238396704,03,3,60.0230046139,PLT_learning_3,A,2014_Apr_01_1328,P30,
stim_fb/ques.jpg,stim_fb/negf.jpg,stim_fb/posf.jpg,stim_03/a.jpg,stim_03/b.jpg,2,1,j,1,37,97,13,f,0,0.566515316426,03,3,60.0230046139,PLT_learning_3,A,2014_Apr_01_1328,P30,
stim_fb/ques.jpg,stim_fb/posf.jpg,stim_fb/negf.jpg,stim_03/b.jpg,stim_03/a.jpg,1,1,f,1,38,98,8,j,0,0.549865513793,03,3,60.0230046139,PLT_learning_3,A,2014_Apr_01_1328,P30,
stim_fb/ques.jpg,stim_fb/posf.jpg,stim_fb/negf.jpg,stim_03/d.jpg,stim_03/c.jpg,1,2,f,1,39,99,28,f,1,0.583179961053,03,3,60.0230046139,PLT_learning_3,A,2014_Apr_01_1328,P30,
stim_fb/ques.jpg,stim_fb/negf.jpg,stim_fb/posf.jpg,stim_03/a.jpg,stim_03/b.jpg,2,1,j,1,40,100,14,j,1,0.699820855482,03,3,60.0230046139,PLT_learning_3,A,2014_Apr_01_1328,P30,
stim_fb/ques.jpg,stim_fb/negf.jpg,stim_fb/posf.jpg,stim_03/b.jpg,stim_03/a.jpg,1,1,f,1,41,101,6,f,1,0.633185567026,03,3,60.0230046139,PLT_learning_3,A,2014_Apr_01_1328,P30,
stim_fb/ques.jpg,stim_fb/negf.jpg,stim_fb/posf.jpg,stim_03/d.jpg,stim_03/c.jpg,1,2,f,1,42,102,25,j,0,0.983038031293,03,3,60.0230046139,PLT_learning_3,A,2014_Apr_01_1328,P30,
stim_fb/ques.jpg,stim_fb/negf.jpg,stim_fb/posf.jpg,stim_03/b.jpg,stim_03/a.jpg,1,1,f,1,43,103,4,f,1,0.683157362727,03,3,60.0230046139,PLT_learning_3,A,2014_Apr_01_1328,P30,
stim_fb/ques.jpg,stim_fb/posf.jpg,stim_fb/negf.jpg,stim_03/e.jpg,stim_03/f.jpg,2,3,j,1,44,104,56,j,1,0.749796897768,03,3,60.0230046139,PLT_learning_3,A,2014_Apr_01_1328,P30,
stim_fb/ques.jpg,stim_fb/posf.jpg,stim_fb/negf.jpg,stim_03/c.jpg,stim_03/d.jpg,2,2,j,1,45,105,38,f,0,0.449900683454,03,3,60.0230046139,PLT_learning_3,A,2014_Apr_01_1328,P30,
stim_fb/ques.jpg,stim_fb/posf.jpg,stim_fb/negf.jpg,stim_03/b.jpg,stim_03/a.jpg,1,1,f,1,46,106,9,f,1,0.516568281442,03,3,60.0230046139,PLT_learning_3,A,2014_Apr_01_1328,P30,
stim_fb/ques.jpg,stim_fb/posf.jpg,stim_fb/negf.jpg,stim_03/a.jpg,stim_03/b.jpg,2,1,j,1,47,107,18,j,1,0.583056969497,03,3,60.0230046139,PLT_learning_3,A,2014_Apr_01_1328,P30,
stim_fb/ques.jpg,stim_fb/posf.jpg,stim_fb/negf.jpg,stim_03/a.jpg,stim_03/b.jpg,2,1,j,1,48,108,19,j,1,0.566533565913,03,3,60.0230046139,PLT_learning_3,A,2014_Apr_01_1328,P30,
stim_fb/ques.jpg,stim_fb/negf.jpg,stim_fb/posf.jpg,stim_03/d.jpg,stim_03/c.jpg,1,2,f,1,49,109,20,f,1,0.616495241389,03,3,60.0230046139,PLT_learning_3,A,2014_Apr_01_1328,P30,
stim_fb/ques.jpg,stim_fb/negf.jpg,stim_fb/posf.jpg,stim_03/e.jpg,stim_03/f.jpg,2,3,j,1,50,110,50,f,0,0.866434005759,03,3,60.0230046139,PLT_learning_3,A,2014_Apr_01_1328,P30,
stim_fb/ques.jpg,stim_fb/negf.jpg,stim_fb/posf.jpg,stim_03/f.jpg,stim_03/e.jpg,1,3,f,1,51,111,43,j,0,0.549870049097,03,3,60.0230046139,PLT_learning_3,A,2014_Apr_01_1328,P30,
stim_fb/ques.jpg,stim_fb/negf.jpg,stim_fb/posf.jpg,stim_03/c.jpg,stim_03/d.jpg,2,2,j,1,52,112,31,j,1,0.283261046158,03,3,60.0230046139,PLT_learning_3,A,2014_Apr_01_1328,P30,
stim_fb/ques.jpg,stim_fb/negf.jpg,stim_fb/posf.jpg,stim_03/c.jpg,stim_03/d.jpg,2,2,j,1,53,113,30,j,1,0.716427284005,03,3,60.0230046139,PLT_learning_3,A,2014_Apr_01_1328,P30,
stim_fb/ques.jpg,stim_fb/posf.jpg,stim_fb/negf.jpg,stim_03/f.jpg,stim_03/e.jpg,1,3,f,1,54,114,46,f,1,0.616494681995,03,3,60.0230046139,PLT_learning_3,A,2014_Apr_01_1328,P30,
stim_fb/ques.jpg,stim_fb/negf.jpg,stim_fb/posf.jpg,stim_03/f.jpg,stim_03/e.jpg,1,3,f,1,55,115,40,f,1,0.733148472568,03,3,60.0230046139,PLT_learning_3,A,2014_Apr_01_1328,P30,
stim_fb/ques.jpg,stim_fb/negf.jpg,stim_fb/posf.jpg,stim_03/b.jpg,stim_03/a.jpg,1,1,f,1,56,116,1,j,0,0.799787342952,03,3,60.0230046139,PLT_learning_3,A,2014_Apr_01_1328,P30,
stim_fb/ques.jpg,stim_fb/negf.jpg,stim_fb/posf.jpg,stim_03/d.jpg,stim_03/c.jpg,1,2,f,1,57,117,22,f,1,0.499821559237,03,3,60.0230046139,PLT_learning_3,A,2014_Apr_01_1328,P30,
stim_fb/ques.jpg,stim_fb/negf.jpg,stim_fb/posf.jpg,stim_03/b.jpg,stim_03/a.jpg,1,1,f,1,58,118,2,f,1,0.516552958248,03,3,60.0230046139,PLT_learning_3,A,2014_Apr_01_1328,P30,
stim_fb/ques.jpg,stim_fb/negf.jpg,stim_fb/posf.jpg,stim_03/a.jpg,stim_03/b.jpg,2,1,j,1,59,119,11,f,0,0.549918587078,03,3,60.0230046139,PLT_learning_3,A,2014_Apr_01_1328,P30,
stim_fb/ques.jpg,stim_fb/negf.jpg,stim_fb/posf.jpg,stim_03/b.jpg,stim_03/a.jpg,1,1,f,2,0,120,5,f,1,0.666540023008,03,3,60.0230046139,PLT_learning_3,A,2014_Apr_01_1328,P30,
stim_fb/ques.jpg,stim_fb/negf.jpg,stim_fb/posf.jpg,stim_03/d.jpg,stim_03/c.jpg,1,2,f,2,1,121,25,f,1,0.716496023338,03,3,60.0230046139,PLT_learning_3,A,2014_Apr_01_1328,P30,
stim_fb/ques.jpg,stim_fb/negf.jpg,stim_fb/posf.jpg,stim_03/c.jpg,stim_03/d.jpg,2,2,j,2,2,122,31,f,0,0.349884644476,03,3,60.0230046139,PLT_learning_3,A,2014_Apr_01_1328,P30,
stim_fb/ques.jpg,stim_fb/negf.jpg,stim_fb/posf.jpg,stim_03/d.jpg,stim_03/c.jpg,1,2,f,2,3,123,24,f,1,0.299959519101,03,3,60.0230046139,PLT_learning_3,A,2014_Apr_01_1328,P30,
stim_fb/ques.jpg,stim_fb/negf.jpg,stim_fb/posf.jpg,stim_03/c.jpg,stim_03/d.jpg,2,2,j,2,4,124,34,j,1,0.449875802438,03,3,60.0230046139,PLT_learning_3,A,2014_Apr_01_1328,P30,
stim_fb/ques.jpg,stim_fb/negf.jpg,stim_fb/posf.jpg,stim_03/b.jpg,stim_03/a.jpg,1,1,f,2,5,125,4,j,0,0.499880443004,03,3,60.0230046139,PLT_learning_3,A,2014_Apr_01_1328,P30,
stim_fb/ques.jpg,stim_fb/negf.jpg,stim_fb/posf.jpg,stim_03/f.jpg,stim_03/e.jpg,1,3,f,2,6,126,45,f,1,0.116636118526,03,3,60.0230046139,PLT_learning_3,A,2014_Apr_01_1328,P30,
stim_fb/ques.jpg,stim_fb/posf.jpg,stim_fb/negf.jpg,stim_03/f.jpg,stim_03/e.jpg,1,3,f,2,7,127,49,j,0,0.349928424598,03,3,60.0230046139,PLT_learning_3,A,2014_Apr_01_1328,P30,
stim_fb/ques.jpg,stim_fb/negf.jpg,stim_fb/posf.jpg,stim_03/b.jpg,stim_03/a.jpg,1,1,f,2,8,128,3,f,1,0.466556486042,03,3,60.0230046139,PLT_learning_3,A,2014_Apr_01_1328,P30,
stim_fb/ques.jpg,stim_fb/posf.jpg,stim_fb/negf.jpg,stim_03/e.jpg,stim_03/f.jpg,2,3,j,2,9,129,57,j,1,0.549861047662,03,3,60.0230046139,PLT_learning_3,A,2014_Apr_01_1328,P30,
stim_fb/ques.jpg,stim_fb/posf.jpg,stim_fb/negf.jpg,stim_03/d.jpg,stim_03/c.jpg,1,2,f,2,10,130,29,j,0,0.666641571116,03,3,60.0230046139,PLT_learning_3,A,2014_Apr_01_1328,P30,
stim_fb/ques.jpg,stim_fb/posf.jpg,stim_fb/negf.jpg,stim_03/e.jpg,stim_03/f.jpg,2,3,j,2,11,131,58,j,1,0.633217786332,03,3,60.0230046139,PLT_learning_3,A,2014_Apr_01_1328,P30,
stim_fb/ques.jpg,stim_fb/negf.jpg,stim_fb/posf.jpg,stim_03/e.jpg,stim_03/f.jpg,2,3,j,2,12,132,52,f,0,0.616532209533,03,3,60.0230046139,PLT_learning_3,A,2014_Apr_01_1328,P30,
stim_fb/ques.jpg,stim_fb/posf.jpg,stim_fb/negf.jpg,stim_03/f.jpg,stim_03/e.jpg,1,3,f,2,13,133,46,j,0,0.349930072706,03,3,60.0230046139,PLT_learning_3,A,2014_Apr_01_1328,P30,
stim_fb/ques.jpg,stim_fb/negf.jpg,stim_fb/posf.jpg,stim_03/f.jpg,stim_03/e.jpg,1,3,f,2,14,134,42,j,0,0.799748606401,03,3,60.0230046139,PLT_learning_3,A,2014_Apr_01_1328,P30,
stim_fb/ques.jpg,stim_fb/posf.jpg,stim_fb/negf.jpg,stim_03/a.jpg,stim_03/b.jpg,2,1,j,2,15,135,18,j,1,0.799794016586,03,3,60.0230046139,PLT_learning_3,A,2014_Apr_01_1328,P30,
stim_fb/ques.jpg,stim_fb/negf.jpg,stim_fb/posf.jpg,stim_03/e.jpg,stim_03/f.jpg,2,3,j,2,16,136,53,j,1,0.7998051353,03,3,60.0230046139,PLT_learning_3,A,2014_Apr_01_1328,P30,
stim_fb/ques.jpg,stim_fb/posf.jpg,stim_fb/negf.jpg,stim_03/e.jpg,stim_03/f.jpg,2,3,j,2,17,137,56,j,1,0.56650029699,03,3,60.0230046139,PLT_learning_3,A,2014_Apr_01_1328,P30,
stim_fb/ques.jpg,stim_fb/negf.jpg,stim_fb/posf.jpg,stim_03/a.jpg,stim_03/b.jpg,2,1,j,2,18,138,11,f,0,0.433266351381,03,3,60.0230046139,PLT_learning_3,A,2014_Apr_01_1328,P30,
stim_fb/ques.jpg,stim_fb/negf.jpg,stim_fb/posf.jpg,stim_03/d.jpg,stim_03/c.jpg,1,2,f,2,19,139,23,j,0,0.583155726649,03,3,60.0230046139,PLT_learning_3,A,2014_Apr_01_1328,P30,
stim_fb/ques.jpg,stim_fb/negf.jpg,stim_fb/posf.jpg,stim_03/c.jpg,stim_03/d.jpg,2,2,j,2,20,140,35,j,1,0.416561770212,03,3,60.0230046139,PLT_learning_3,A,2014_Apr_01_1328,P30,
stim_fb/ques.jpg,stim_fb/posf.jpg,stim_fb/negf.jpg,stim_03/c.jpg,stim_03/d.jpg,2,2,j,2,21,141,38,j,1,0.899766410779,03,3,60.0230046139,PLT_learning_3,A,2014_Apr_01_1328,P30,
stim_fb/ques.jpg,stim_fb/negf.jpg,stim_fb/posf.jpg,stim_03/a.jpg,stim_03/b.jpg,2,1,j,2,22,142,13,f,0,0.583206276644,03,3,60.0230046139,PLT_learning_3,A,2014_Apr_01_1328,P30,
stim_fb/ques.jpg,stim_fb/posf.jpg,stim_fb/negf.jpg,stim_03/f.jpg,stim_03/e.jpg,1,3,f,2,23,143,48,j,0,0.666485521162,03,3,60.0230046139,PLT_learning_3,A,2014_Apr_01_1328,P30,
stim_fb/ques.jpg,stim_fb/posf.jpg,stim_fb/negf.jpg,stim_03/b.jpg,stim_03/a.jpg,1,1,f,2,24,144,9,f,1,0.683170000226,03,3,60.0230046139,PLT_learning_3,A,2014_Apr_01_1328,P30,
stim_fb/ques.jpg,stim_fb/negf.jpg,stim_fb/posf.jpg,stim_03/e.jpg,stim_03/f.jpg,2,3,j,2,25,145,50,f,0,0.749796639123,03,3,60.0230046139,PLT_learning_3,A,2014_Apr_01_1328,P30,
stim_fb/ques.jpg,stim_fb/negf.jpg,stim_fb/posf.jpg,stim_03/f.jpg,stim_03/e.jpg,1,3,f,2,26,146,41,j,0,0.683150150751,03,3,60.0230046139,PLT_learning_3,A,2014_Apr_01_1328,P30,
stim_fb/ques.jpg,stim_fb/negf.jpg,stim_fb/posf.jpg,stim_03/d.jpg,stim_03/c.jpg,1,2,f,2,27,147,20,j,0,0.84973228472,03,3,60.0230046139,PLT_learning_3,A,2014_Apr_01_1328,P30,
stim_fb/ques.jpg,stim_fb/negf.jpg,stim_fb/posf.jpg,stim_03/f.jpg,stim_03/e.jpg,1,3,f,2,28,148,44,j,0,0.616514489364,03,3,60.0230046139,PLT_learning_3,A,2014_Apr_01_1328,P30,
stim_fb/ques.jpg,stim_fb/negf.jpg,stim_fb/posf.jpg,stim_03/b.jpg,stim_03/a.jpg,1,1,f,2,29,149,6,j,0,0.349924367486,03,3,60.0230046139,PLT_learning_3,A,2014_Apr_01_1328,P30,
stim_fb/ques.jpg,stim_fb/posf.jpg,stim_fb/negf.jpg,stim_03/d.jpg,stim_03/c.jpg,1,2,f,2,30,150,28,j,0,0.499875224999,03,3,60.0230046139,PLT_learning_3,A,2014_Apr_01_1328,P30,
stim_fb/ques.jpg,stim_fb/posf.jpg,stim_fb/negf.jpg,stim_03/c.jpg,stim_03/d.jpg,2,2,j,2,31,151,39,j,1,0.699800512778,03,3,60.0230046139,PLT_learning_3,A,2014_Apr_01_1328,P30,
stim_fb/ques.jpg,stim_fb/negf.jpg,stim_fb/posf.jpg,stim_03/a.jpg,stim_03/b.jpg,2,1,j,2,32,152,10,f,0,0.566535878677,03,3,60.0230046139,PLT_learning_3,A,2014_Apr_01_1328,P30,
stim_fb/ques.jpg,stim_fb/posf.jpg,stim_fb/negf.jpg,stim_03/b.jpg,stim_03/a.jpg,1,1,f,2,33,153,8,f,1,0.483214655529,03,3,60.0230046139,PLT_learning_3,A,2014_Apr_01_1328,P30,
stim_fb/ques.jpg,stim_fb/negf.jpg,stim_fb/posf.jpg,stim_03/e.jpg,stim_03/f.jpg,2,3,j,2,34,154,51,j,1,0.449905152593,03,3,60.0230046139,PLT_learning_3,A,2014_Apr_01_1328,P30,
stim_fb/ques.jpg,stim_fb/negf.jpg,stim_fb/posf.jpg,stim_03/b.jpg,stim_03/a.jpg,1,1,f,2,35,155,1,f,1,0.73317053556,03,3,60.0230046139,PLT_learning_3,A,2014_Apr_01_1328,P30,
stim_fb/ques.jpg,stim_fb/posf.jpg,stim_fb/negf.jpg,stim_03/d.jpg,stim_03/c.jpg,1,2,f,2,36,156,27,j,0,0.833143098172,03,3,60.0230046139,PLT_learning_3,A,2014_Apr_01_1328,P30,
stim_fb/ques.jpg,stim_fb/posf.jpg,stim_fb/negf.jpg,stim_03/c.jpg,stim_03/d.jpg,2,2,j,2,37,157,37,j,1,0.866459256697,03,3,60.0230046139,PLT_learning_3,A,2014_Apr_01_1328,P30,
stim_fb/ques.jpg,stim_fb/posf.jpg,stim_fb/negf.jpg,stim_03/f.jpg,stim_03/e.jpg,1,3,f,2,38,158,47,j,0,0.749807577386,03,3,60.0230046139,PLT_learning_3,A,2014_Apr_01_1328,P30,
stim_fb/ques.jpg,stim_fb/posf.jpg,stim_fb/negf.jpg,stim_03/e.jpg,stim_03/f.jpg,2,3,j,2,39,159,59,f,0,0.783120187066,03,3,60.0230046139,PLT_learning_3,A,2014_Apr_01_1328,P30,
stim_fb/ques.jpg,stim_fb/negf.jpg,stim_fb/posf.jpg,stim_03/a.jpg,stim_03/b.jpg,2,1,j,2,40,160,14,j,1,0.783114984098,03,3,60.0230046139,PLT_learning_3,A,2014_Apr_01_1328,P30,
stim_fb/ques.jpg,stim_fb/negf.jpg,stim_fb/posf.jpg,stim_03/f.jpg,stim_03/e.jpg,1,3,f,2,41,161,40,j,0,0.616455479282,03,3,60.0230046139,PLT_learning_3,A,2014_Apr_01_1328,P30,
stim_fb/ques.jpg,stim_fb/negf.jpg,stim_fb/posf.jpg,stim_03/d.jpg,stim_03/c.jpg,1,2,f,2,42,162,26,f,1,0.499894109067,03,3,60.0230046139,PLT_learning_3,A,2014_Apr_01_1328,P30,
stim_fb/ques.jpg,stim_fb/negf.jpg,stim_fb/posf.jpg,stim_03/f.jpg,stim_03/e.jpg,1,3,f,2,43,163,43,j,0,0.549870599469,03,3,60.0230046139,PLT_learning_3,A,2014_Apr_01_1328,P30,
stim_fb/ques.jpg,stim_fb/negf.jpg,stim_fb/posf.jpg,stim_03/d.jpg,stim_03/c.jpg,1,2,f,2,44,164,22,f,1,0.499894845903,03,3,60.0230046139,PLT_learning_3,A,2014_Apr_01_1328,P30,
stim_fb/ques.jpg,stim_fb/negf.jpg,stim_fb/posf.jpg,stim_03/a.jpg,stim_03/b.jpg,2,1,j,2,45,165,15,j,1,0.516510997661,03,3,60.0230046139,PLT_learning_3,A,2014_Apr_01_1328,P30,
stim_fb/ques.jpg,stim_fb/negf.jpg,stim_fb/posf.jpg,stim_03/b.jpg,stim_03/a.jpg,1,1,f,2,46,166,0,f,1,0.533216553259,03,3,60.0230046139,PLT_learning_3,A,2014_Apr_01_1328,P30,
stim_fb/ques.jpg,stim_fb/negf.jpg,stim_fb/posf.jpg,stim_03/c.jpg,stim_03/d.jpg,2,2,j,2,47,167,32,f,0,0.61651208036,03,3,60.0230046139,PLT_learning_3,A,2014_Apr_01_1328,P30,
stim_fb/ques.jpg,stim_fb/negf.jpg,stim_fb/posf.jpg,stim_03/b.jpg,stim_03/a.jpg,1,1,f,2,48,168,2,j,0,0.749758910084,03,3,60.0230046139,PLT_learning_3,A,2014_Apr_01_1328,P30,
stim_fb/ques.jpg,stim_fb/negf.jpg,stim_fb/posf.jpg,stim_03/b.jpg,stim_03/a.jpg,1,1,f,2,49,169,7,j,0,0.566537851595,03,3,60.0230046139,PLT_learning_3,A,2014_Apr_01_1328,P30,
stim_fb/ques.jpg,stim_fb/negf.jpg,stim_fb/posf.jpg,stim_03/c.jpg,stim_03/d.jpg,2,2,j,2,50,170,36,f,0,0.599832620807,03,3,60.0230046139,PLT_learning_3,A,2014_Apr_01_1328,P30,
stim_fb/ques.jpg,stim_fb/negf.jpg,stim_fb/posf.jpg,stim_03/e.jpg,stim_03/f.jpg,2,3,j,2,51,171,54,j,1,0.566497788738,03,3,60.0230046139,PLT_learning_3,A,2014_Apr_01_1328,P30,
stim_fb/ques.jpg,stim_fb/negf.jpg,stim_fb/posf.jpg,stim_03/d.jpg,stim_03/c.jpg,1,2,f,2,52,172,21,j,0,0.849749271058,03,3,60.0230046139,PLT_learning_3,A,2014_Apr_01_1328,P30,
stim_fb/ques.jpg,stim_fb/negf.jpg,stim_fb/posf.jpg,stim_03/a.jpg,stim_03/b.jpg,2,1,j,2,53,173,17,j,1,0.683154586808,03,3,60.0230046139,PLT_learning_3,A,2014_Apr_01_1328,P30,
stim_fb/ques.jpg,stim_fb/posf.jpg,stim_fb/negf.jpg,stim_03/a.jpg,stim_03/b.jpg,2,1,j,2,54,174,19,j,1,1.01634033729,03,3,60.0230046139,PLT_learning_3,A,2014_Apr_01_1328,P30,
stim_fb/ques.jpg,stim_fb/negf.jpg,stim_fb/posf.jpg,stim_03/c.jpg,stim_03/d.jpg,2,2,j,2,55,175,30,f,0,0.716454375531,03,3,60.0230046139,PLT_learning_3,A,2014_Apr_01_1328,P30,
stim_fb/ques.jpg,stim_fb/negf.jpg,stim_fb/posf.jpg,stim_03/e.jpg,stim_03/f.jpg,2,3,j,2,56,176,55,f,0,0.933058028135,03,3,60.0230046139,PLT_learning_3,A,2014_Apr_01_1328,P30,
stim_fb/ques.jpg,stim_fb/negf.jpg,stim_fb/posf.jpg,stim_03/a.jpg,stim_03/b.jpg,2,1,j,2,57,177,16,j,1,0.616529911805,03,3,60.0230046139,PLT_learning_3,A,2014_Apr_01_1328,P30,
stim_fb/ques.jpg,stim_fb/negf.jpg,stim_fb/posf.jpg,stim_03/c.jpg,stim_03/d.jpg,2,2,j,2,58,178,33,f,0,0.583209118729,03,3,60.0230046139,PLT_learning_3,A,2014_Apr_01_1328,P30,
stim_fb/ques.jpg,stim_fb/negf.jpg,stim_fb/posf.jpg,stim_03/a.jpg,stim_03/b.jpg,2,1,j,2,59,179,12,j,1,0.633188415125,03,3,60.0230046139,PLT_learning_3,A,2014_Apr_01_1328,P30,
stim_fb/ques.jpg,stim_fb/negf.jpg,stim_fb/posf.jpg,stim_03/c.jpg,stim_03/d.jpg,2,2,j,3,0,180,35,f,0,1.68282929301,03,3,60.0230046139,PLT_learning_3,A,2014_Apr_01_1328,P30,
stim_fb/ques.jpg,stim_fb/negf.jpg,stim_fb/posf.jpg,stim_03/b.jpg,stim_03/a.jpg,1,1,f,3,1,181,2,f,1,0.699796362434,03,3,60.0230046139,PLT_learning_3,A,2014_Apr_01_1328,P30,
stim_fb/ques.jpg,stim_fb/posf.jpg,stim_fb/negf.jpg,stim_03/b.jpg,stim_03/a.jpg,1,1,f,3,2,182,8,j,0,0.633165849881,03,3,60.0230046139,PLT_learning_3,A,2014_Apr_01_1328,P30,
stim_fb/ques.jpg,stim_fb/negf.jpg,stim_fb/posf.jpg,stim_03/f.jpg,stim_03/e.jpg,1,3,f,3,3,183,43,j,0,0.616530296764,03,3,60.0230046139,PLT_learning_3,A,2014_Apr_01_1328,P30,
stim_fb/ques.jpg,stim_fb/negf.jpg,stim_fb/posf.jpg,stim_03/b.jpg,stim_03/a.jpg,1,1,f,3,4,184,7,f,1,0.733141732769,03,3,60.0230046139,PLT_learning_3,A,2014_Apr_01_1328,P30,
stim_fb/ques.jpg,stim_fb/posf.jpg,stim_fb/negf.jpg,stim_03/e.jpg,stim_03/f.jpg,2,3,j,3,5,185,58,j,1,0.433247533477,03,3,60.0230046139,PLT_learning_3,A,2014_Apr_01_1328,P30,
stim_fb/ques.jpg,stim_fb/posf.jpg,stim_fb/negf.jpg,stim_03/c.jpg,stim_03/d.jpg,2,2,j,3,6,186,37,j,1,0.633179070834,03,3,60.0230046139,PLT_learning_3,A,2014_Apr_01_1328,P30,
stim_fb/ques.jpg,stim_fb/posf.jpg,stim_fb/negf.jpg,stim_03/e.jpg,stim_03/f.jpg,2,3,j,3,7,187,59,f,0,0.716476537771,03,3,60.0230046139,PLT_learning_3,A,2014_Apr_01_1328,P30,
stim_fb/ques.jpg,stim_fb/negf.jpg,stim_fb/posf.jpg,stim_03/c.jpg,stim_03/d.jpg,2,2,j,3,8,188,36,f,0,0.633197984978,03,3,60.0230046139,PLT_learning_3,A,2014_Apr_01_1328,P30,
stim_fb/ques.jpg,stim_fb/posf.jpg,stim_fb/negf.jpg,stim_03/f.jpg,stim_03/e.jpg,1,3,f,3,9,189,47,j,0,0.333270432553,03,3,60.0230046139,PLT_learning_3,A,2014_Apr_01_1328,P30,
stim_fb/ques.jpg,stim_fb/negf.jpg,stim_fb/posf.jpg,stim_03/a.jpg,stim_03/b.jpg,2,1,j,3,10,190,11,j,1,0.483167359644,03,3,60.0230046139,PLT_learning_3,A,2014_Apr_01_1328,P30,
stim_fb/ques.jpg,stim_fb/negf.jpg,stim_fb/posf.jpg,stim_03/d.jpg,stim_03/c.jpg,1,2,f,3,11,191,24,f,1,0.43322544041,03,3,60.0230046139,PLT_learning_3,A,2014_Apr_01_1328,P30,
stim_fb/ques.jpg,stim_fb/negf.jpg,stim_fb/posf.jpg,stim_03/d.jpg,stim_03/c.jpg,1,2,f,3,12,192,25,j,0,0.383264429591,03,3,60.0230046139,PLT_learning_3,A,2014_Apr_01_1328,P30,
stim_fb/ques.jpg,stim_fb/negf.jpg,stim_fb/posf.jpg,stim_03/a.jpg,stim_03/b.jpg,2,1,j,3,13,193,14,f,0,0.51654620642,03,3,60.0230046139,PLT_learning_3,A,2014_Apr_01_1328,P30,
stim_fb/ques.jpg,stim_fb/negf.jpg,stim_fb/posf.jpg,stim_03/a.jpg,stim_03/b.jpg,2,1,j,3,14,194,17,j,1,0.483236285442,03,3,60.0230046139,PLT_learning_3,A,2014_Apr_01_1328,P30,
stim_fb/ques.jpg,stim_fb/negf.jpg,stim_fb/posf.jpg,stim_03/e.jpg,stim_03/f.jpg,2,3,j,3,15,195,53,f,0,0.533206117247,03,3,60.0230046139,PLT_learning_3,A,2014_Apr_01_1328,P30,
stim_fb/ques.jpg,stim_fb/negf.jpg,stim_fb/posf.jpg,stim_03/b.jpg,stim_03/a.jpg,1,1,f,3,16,196,6,f,1,0.383232342614,03,3,60.0230046139,PLT_learning_3,A,2014_Apr_01_1328,P30,
stim_fb/ques.jpg,stim_fb/negf.jpg,stim_fb/posf.jpg,stim_03/e.jpg,stim_03/f.jpg,2,3,j,3,17,197,52,j,1,0.533175726498,03,3,60.0230046139,PLT_learning_3,A,2014_Apr_01_1328,P30,
stim_fb/ques.jpg,stim_fb/posf.jpg,stim_fb/negf.jpg,stim_03/d.jpg,stim_03/c.jpg,1,2,f,3,18,198,29,f,1,0.566425828377,03,3,60.0230046139,PLT_learning_3,A,2014_Apr_01_1328,P30,
stim_fb/ques.jpg,stim_fb/negf.jpg,stim_fb/posf.jpg,stim_03/c.jpg,stim_03/d.jpg,2,2,j,3,19,199,32,f,0,0.549800091728,03,3,60.0230046139,PLT_learning_3,A,2014_Apr_01_1328,P30,
stim_fb/ques.jpg,stim_fb/negf.jpg,stim_fb/posf.jpg,stim_03/e.jpg,stim_03/f.jpg,2,3,j,3,20,200,50,j,1,0.58322397576,03,3,60.0230046139,PLT_learning_3,A,2014_Apr_01_1328,P30,
stim_fb/ques.jpg,stim_fb/negf.jpg,stim_fb/posf.jpg,stim_03/a.jpg,stim_03/b.jpg,2,1,j,3,21,201,16,f,0,0.433247368065,03,3,60.0230046139,PLT_learning_3,A,2014_Apr_01_1328,P30,
stim_fb/ques.jpg,stim_fb/posf.jpg,stim_fb/negf.jpg,stim_03/a.jpg,stim_03/b.jpg,2,1,j,3,22,202,18,j,1,0.383240092932,03,3,60.0230046139,PLT_learning_3,A,2014_Apr_01_1328,P30,
stim_fb/ques.jpg,stim_fb/negf.jpg,stim_fb/posf.jpg,stim_03/e.jpg,stim_03/f.jpg,2,3,j,3,23,203,51,j,1,0.483252198104,03,3,60.0230046139,PLT_learning_3,A,2014_Apr_01_1328,P30,
stim_fb/ques.jpg,stim_fb/negf.jpg,stim_fb/posf.jpg,stim_03/d.jpg,stim_03/c.jpg,1,2,f,3,24,204,20,f,1,0.533195254171,03,3,60.0230046139,PLT_learning_3,A,2014_Apr_01_1328,P30,
stim_fb/ques.jpg,stim_fb/posf.jpg,stim_fb/negf.jpg,stim_03/f.jpg,stim_03/e.jpg,1,3,f,3,25,205,48,f,1,0.266621108112,03,3,60.0230046139,PLT_learning_3,A,2014_Apr_01_1328,P30,
stim_fb/ques.jpg,stim_fb/negf.jpg,stim_fb/posf.jpg,stim_03/e.jpg,stim_03/f.jpg,2,3,j,3,26,206,55,j,1,0.699819438951,03,3,60.0230046139,PLT_learning_3,A,2014_Apr_01_1328,P30,
stim_fb/ques.jpg,stim_fb/negf.jpg,stim_fb/posf.jpg,stim_03/c.jpg,stim_03/d.jpg,2,2,j,3,27,207,31,f,0,0.26662705694,03,3,60.0230046139,PLT_learning_3,A,2014_Apr_01_1328,P30,
stim_fb/ques.jpg,stim_fb/posf.jpg,stim_fb/negf.jpg,stim_03/a.jpg,stim_03/b.jpg,2,1,j,3,28,208,19,j,1,0.416556958219,03,3,60.0230046139,PLT_learning_3,A,2014_Apr_01_1328,P30,
stim_fb/ques.jpg,stim_fb/negf.jpg,stim_fb/posf.jpg,stim_03/d.jpg,stim_03/c.jpg,1,2,f,3,29,209,23,j,0,0.449911696905,03,3,60.0230046139,PLT_learning_3,A,2014_Apr_01_1328,P30,
stim_fb/ques.jpg,stim_fb/negf.jpg,stim_fb/posf.jpg,stim_03/f.jpg,stim_03/e.jpg,1,3,f,3,30,210,44,f,1,0.24995232517,03,3,60.0230046139,PLT_learning_3,A,2014_Apr_01_1328,P30,
stim_fb/ques.jpg,stim_fb/posf.jpg,stim_fb/negf.jpg,stim_03/c.jpg,stim_03/d.jpg,2,2,j,3,31,211,38,j,1,0.316597646634,03,3,60.0230046139,PLT_learning_3,A,2014_Apr_01_1328,P30,
stim_fb/ques.jpg,stim_fb/negf.jpg,stim_fb/posf.jpg,stim_03/b.jpg,stim_03/a.jpg,1,1,f,3,32,212,4,f,1,0.433236917016,03,3,60.0230046139,PLT_learning_3,A,2014_Apr_01_1328,P30,
stim_fb/ques.jpg,stim_fb/negf.jpg,stim_fb/posf.jpg,stim_03/f.jpg,stim_03/e.jpg,1,3,f,3,33,213,42,j,0,0.599840515485,03,3,60.0230046139,PLT_learning_3,A,2014_Apr_01_1328,P30,
stim_fb/ques.jpg,stim_fb/posf.jpg,stim_fb/negf.jpg,stim_03/e.jpg,stim_03/f.jpg,2,3,j,3,34,214,56,j,1,0.499886839949,03,3,60.0230046139,PLT_learning_3,A,2014_Apr_01_1328,P30,
stim_fb/ques.jpg,stim_fb/posf.jpg,stim_fb/negf.jpg,stim_03/c.jpg,stim_03/d.jpg,2,2,j,3,35,215,39,f,0,0.333254841693,03,3,60.0230046139,PLT_learning_3,A,2014_Apr_01_1328,P30,
stim_fb/ques.jpg,stim_fb/posf.jpg,stim_fb/negf.jpg,stim_03/d.jpg,stim_03/c.jpg,1,2,f,3,36,216,28,f,1,0.433236047849,03,3,60.0230046139,PLT_learning_3,A,2014_Apr_01_1328,P30,
stim_fb/ques.jpg,stim_fb/negf.jpg,stim_fb/posf.jpg,stim_03/b.jpg,stim_03/a.jpg,1,1,f,3,37,217,0,j,0,0.499828900535,03,3,60.0230046139,PLT_learning_3,A,2014_Apr_01_1328,P30,
stim_fb/ques.jpg,stim_fb/negf.jpg,stim_fb/posf.jpg,stim_03/b.jpg,stim_03/a.jpg,1,1,f,3,38,218,3,j,0,0.416587535432,03,3,60.0230046139,PLT_learning_3,A,2014_Apr_01_1328,P30,
stim_fb/ques.jpg,stim_fb/negf.jpg,stim_fb/posf.jpg,stim_03/f.jpg,stim_03/e.jpg,1,3,f,3,39,219,41,f,1,0.383260727363,03,3,60.0230046139,PLT_learning_3,A,2014_Apr_01_1328,P30,
stim_fb/ques.jpg,stim_fb/negf.jpg,stim_fb/posf.jpg,stim_03/a.jpg,stim_03/b.jpg,2,1,j,3,40,220,10,j,1,0.649850127443,03,3,60.0230046139,PLT_learning_3,A,2014_Apr_01_1328,P30,
stim_fb/ques.jpg,stim_fb/negf.jpg,stim_fb/posf.jpg,stim_03/b.jpg,stim_03/a.jpg,1,1,f,3,41,221,1,j,0,0.716332716295,03,3,60.0230046139,PLT_learning_3,A,2014_Apr_01_1328,P30,
stim_fb/ques.jpg,stim_fb/negf.jpg,stim_fb/posf.jpg,stim_03/b.jpg,stim_03/a.jpg,1,1,f,3,42,222,5,f,1,0.233305731536,03,3,60.0230046139,PLT_learning_3,A,2014_Apr_01_1328,P30,
stim_fb/ques.jpg,stim_fb/negf.jpg,stim_fb/posf.jpg,stim_03/a.jpg,stim_03/b.jpg,2,1,j,3,43,223,12,f,0,0.499891519612,03,3,60.0230046139,PLT_learning_3,A,2014_Apr_01_1328,P30,
stim_fb/ques.jpg,stim_fb/posf.jpg,stim_fb/negf.jpg,stim_03/e.jpg,stim_03/f.jpg,2,3,j,3,44,224,57,j,1,0.366594822595,03,3,60.0230046139,PLT_learning_3,A,2014_Apr_01_1328,P30,
stim_fb/ques.jpg,stim_fb/posf.jpg,stim_fb/negf.jpg,stim_03/f.jpg,stim_03/e.jpg,1,3,f,3,45,225,46,f,1,0.433246002662,03,3,60.0230046139,PLT_learning_3,A,2014_Apr_01_1328,P30,
stim_fb/ques.jpg,stim_fb/negf.jpg,stim_fb/posf.jpg,stim_03/d.jpg,stim_03/c.jpg,1,2,f,3,46,226,22,j,0,0.48322739829,03,3,60.0230046139,PLT_learning_3,A,2014_Apr_01_1328,P30,
stim_fb/ques.jpg,stim_fb/negf.jpg,stim_fb/posf.jpg,stim_03/e.jpg,stim_03/f.jpg,2,3,j,3,47,227,54,f,0,0.566527418591,03,3,60.0230046139,PLT_learning_3,A,2014_Apr_01_1328,P30,
stim_fb/ques.jpg,stim_fb/negf.jpg,stim_fb/posf.jpg,stim_03/d.jpg,stim_03/c.jpg,1,2,f,3,48,228,26,f,1,0.533205410486,03,3,60.0230046139,PLT_learning_3,A,2014_Apr_01_1328,P30,
stim_fb/ques.jpg,stim_fb/posf.jpg,stim_fb/negf.jpg,stim_03/f.jpg,stim_03/e.jpg,1,3,f,3,49,229,49,j,0,0.266649014669,03,3,60.0230046139,PLT_learning_3,A,2014_Apr_01_1328,P30,
stim_fb/ques.jpg,stim_fb/negf.jpg,stim_fb/posf.jpg,stim_03/c.jpg,stim_03/d.jpg,2,2,j,3,50,230,33,f,0,0.516570001729,03,3,60.0230046139,PLT_learning_3,A,2014_Apr_01_1328,P30,
stim_fb/ques.jpg,stim_fb/negf.jpg,stim_fb/posf.jpg,stim_03/f.jpg,stim_03/e.jpg,1,3,f,3,51,231,45,j,0,0.549861008564,03,3,60.0230046139,PLT_learning_3,A,2014_Apr_01_1328,P30,
stim_fb/ques.jpg,stim_fb/negf.jpg,stim_fb/posf.jpg,stim_03/c.jpg,stim_03/d.jpg,2,2,j,3,52,232,34,f,0,0.616477888137,03,3,60.0230046139,PLT_learning_3,A,2014_Apr_01_1328,P30,
stim_fb/ques.jpg,stim_fb/negf.jpg,stim_fb/posf.jpg,stim_03/a.jpg,stim_03/b.jpg,2,1,j,3,53,233,15,j,1,0.483243500425,03,3,60.0230046139,PLT_learning_3,A,2014_Apr_01_1328,P30,
stim_fb/ques.jpg,stim_fb/negf.jpg,stim_fb/posf.jpg,stim_03/c.jpg,stim_03/d.jpg,2,2,j,3,54,234,30,f,0,0.549905925519,03,3,60.0230046139,PLT_learning_3,A,2014_Apr_01_1328,P30,
stim_fb/ques.jpg,stim_fb/negf.jpg,stim_fb/posf.jpg,stim_03/f.jpg,stim_03/e.jpg,1,3,f,3,55,235,40,j,0,0.499900803753,03,3,60.0230046139,PLT_learning_3,A,2014_Apr_01_1328,P30,
stim_fb/ques.jpg,stim_fb/posf.jpg,stim_fb/negf.jpg,stim_03/b.jpg,stim_03/a.jpg,1,1,f,3,56,236,9,f,1,0.699833589221,03,3,60.0230046139,PLT_learning_3,A,2014_Apr_01_1328,P30,
stim_fb/ques.jpg,stim_fb/posf.jpg,stim_fb/negf.jpg,stim_03/d.jpg,stim_03/c.jpg,1,2,f,3,57,237,27,f,1,0.666497003782,03,3,60.0230046139,PLT_learning_3,A,2014_Apr_01_1328,P30,
stim_fb/ques.jpg,stim_fb/negf.jpg,stim_fb/posf.jpg,stim_03/d.jpg,stim_03/c.jpg,1,2,f,3,58,238,21,j,0,0.199961585251,03,3,60.0230046139,PLT_learning_3,A,2014_Apr_01_1328,P30,
stim_fb/ques.jpg,stim_fb/negf.jpg,stim_fb/posf.jpg,stim_03/a.jpg,stim_03/b.jpg,2,1,j,3,59,239,13,j,1,0.333254739438,03,3,60.0230046139,PLT_learning_3,A,2014_Apr_01_1328,P30,
stim_fb/ques.jpg,stim_fb/negf.jpg,stim_fb/posf.jpg,stim_03/a.jpg,stim_03/b.jpg,2,1,j,4,0,240,17,j,1,0.449910163082,03,3,60.0230046139,PLT_learning_3,A,2014_Apr_01_1328,P30,
stim_fb/ques.jpg,stim_fb/negf.jpg,stim_fb/posf.jpg,stim_03/f.jpg,stim_03/e.jpg,1,3,f,4,1,241,41,f,1,0.349921218638,03,3,60.0230046139,PLT_learning_3,A,2014_Apr_01_1328,P30,
stim_fb/ques.jpg,stim_fb/negf.jpg,stim_fb/posf.jpg,stim_03/c.jpg,stim_03/d.jpg,2,2,j,4,2,242,35,j,1,0.549877432501,03,3,60.0230046139,PLT_learning_3,A,2014_Apr_01_1328,P30,
stim_fb/ques.jpg,stim_fb/negf.jpg,stim_fb/posf.jpg,stim_03/e.jpg,stim_03/f.jpg,2,3,j,4,3,243,54,f,0,0.516538281667,03,3,60.0230046139,PLT_learning_3,A,2014_Apr_01_1328,P30,
stim_fb/ques.jpg,stim_fb/posf.jpg,stim_fb/negf.jpg,stim_03/e.jpg,stim_03/f.jpg,2,3,j,4,4,244,58,f,0,0.633178598657,03,3,60.0230046139,PLT_learning_3,A,2014_Apr_01_1328,P30,
stim_fb/ques.jpg,stim_fb/posf.jpg,stim_fb/negf.jpg,stim_03/f.jpg,stim_03/e.jpg,1,3,f,4,5,245,48,j,0,0.766431040368,03,3,60.0230046139,PLT_learning_3,A,2014_Apr_01_1328,P30,
stim_fb/ques.jpg,stim_fb/negf.jpg,stim_fb/posf.jpg,stim_03/a.jpg,stim_03/b.jpg,2,1,j,4,6,246,14,f,0,0.116648728957,03,3,60.0230046139,PLT_learning_3,A,2014_Apr_01_1328,P30,
stim_fb/ques.jpg,stim_fb/posf.jpg,stim_fb/negf.jpg,stim_03/e.jpg,stim_03/f.jpg,2,3,j,4,7,247,57,f,0,0.633227915579,03,3,60.0230046139,PLT_learning_3,A,2014_Apr_01_1328,P30,
stim_fb/ques.jpg,stim_fb/negf.jpg,stim_fb/posf.jpg,stim_03/c.jpg,stim_03/d.jpg,2,2,j,4,8,248,34,f,0,0.766441085405,03,3,60.0230046139,PLT_learning_3,A,2014_Apr_01_1328,P30,
stim_fb/ques.jpg,stim_fb/posf.jpg,stim_fb/negf.jpg,stim_03/f.jpg,stim_03/e.jpg,1,3,f,4,9,249,49,j,0,0.499869688198,03,3,60.0230046139,PLT_learning_3,A,2014_Apr_01_1328,P30,
stim_fb/ques.jpg,stim_fb/negf.jpg,stim_fb/posf.jpg,stim_03/e.jpg,stim_03/f.jpg,2,3,j,4,10,250,51,j,1,0.683126232134,03,3,60.0230046139,PLT_learning_3,A,2014_Apr_01_1328,P30,
stim_fb/ques.jpg,stim_fb/negf.jpg,stim_fb/posf.jpg,stim_03/d.jpg,stim_03/c.jpg,1,2,f,4,11,251,20,f,1,0.699848037233,03,3,60.0230046139,PLT_learning_3,A,2014_Apr_01_1328,P30,
stim_fb/ques.jpg,stim_fb/negf.jpg,stim_fb/posf.jpg,stim_03/e.jpg,stim_03/f.jpg,2,3,j,4,12,252,52,f,0,0.699806795438,03,3,60.0230046139,PLT_learning_3,A,2014_Apr_01_1328,P30,
stim_fb/ques.jpg,stim_fb/negf.jpg,stim_fb/posf.jpg,stim_03/d.jpg,stim_03/c.jpg,1,2,f,4,13,253,23,j,0,0.783112196149,03,3,60.0230046139,PLT_learning_3,A,2014_Apr_01_1328,P30,
stim_fb/ques.jpg,stim_fb/posf.jpg,stim_fb/negf.jpg,stim_03/e.jpg,stim_03/f.jpg,2,3,j,4,14,254,59,j,1,0.449906250329,03,3,60.0230046139,PLT_learning_3,A,2014_Apr_01_1328,P30,
stim_fb/ques.jpg,stim_fb/posf.jpg,stim_fb/negf.jpg,stim_03/d.jpg,stim_03/c.jpg,1,2,f,4,15,255,28,j,0,0.449880427967,03,3,60.0230046139,PLT_learning_3,A,2014_Apr_01_1328,P30,
stim_fb/ques.jpg,stim_fb/negf.jpg,stim_fb/posf.jpg,stim_03/b.jpg,stim_03/a.jpg,1,1,f,4,16,256,3,f,1,0.649816323185,03,3,60.0230046139,PLT_learning_3,A,2014_Apr_01_1328,P30,
stim_fb/ques.jpg,stim_fb/posf.jpg,stim_fb/negf.jpg,stim_03/a.jpg,stim_03/b.jpg,2,1,j,4,17,257,19,f,0,0.749789222637,03,3,60.0230046139,PLT_learning_3,A,2014_Apr_01_1328,P30,
stim_fb/ques.jpg,stim_fb/negf.jpg,stim_fb/posf.jpg,stim_03/e.jpg,stim_03/f.jpg,2,3,j,4,18,258,53,j,1,0.466503635311,03,3,60.0230046139,PLT_learning_3,A,2014_Apr_01_1328,P30,
stim_fb/ques.jpg,stim_fb/negf.jpg,stim_fb/posf.jpg,stim_03/a.jpg,stim_03/b.jpg,2,1,j,4,19,259,13,f,0,0.649826861452,03,3,60.0230046139,PLT_learning_3,A,2014_Apr_01_1328,P30,
stim_fb/ques.jpg,stim_fb/negf.jpg,stim_fb/posf.jpg,stim_03/c.jpg,stim_03/d.jpg,2,2,j,4,20,260,36,j,1,0.84978733393,03,3,60.0230046139,PLT_learning_3,A,2014_Apr_01_1328,P30,
stim_fb/ques.jpg,stim_fb/negf.jpg,stim_fb/posf.jpg,stim_03/f.jpg,stim_03/e.jpg,1,3,f,4,21,261,40,j,0,0.516525617101,03,3,60.0230046139,PLT_learning_3,A,2014_Apr_01_1328,P30,
stim_fb/ques.jpg,stim_fb/negf.jpg,stim_fb/posf.jpg,stim_03/f.jpg,stim_03/e.jpg,1,3,f,4,22,262,42,j,0,0.499961765701,03,3,60.0230046139,PLT_learning_3,A,2014_Apr_01_1328,P30,
stim_fb/ques.jpg,stim_fb/negf.jpg,stim_fb/posf.jpg,stim_03/b.jpg,stim_03/a.jpg,1,1,f,4,23,263,4,j,0,0.749813992376,03,3,60.0230046139,PLT_learning_3,A,2014_Apr_01_1328,P30,
stim_fb/ques.jpg,stim_fb/posf.jpg,stim_fb/negf.jpg,stim_03/b.jpg,stim_03/a.jpg,1,1,f,4,24,264,8,f,1,0.466543003436,03,3,60.0230046139,PLT_learning_3,A,2014_Apr_01_1328,P30,
stim_fb/ques.jpg,stim_fb/negf.jpg,stim_fb/posf.jpg,stim_03/d.jpg,stim_03/c.jpg,1,2,f,4,25,265,24,f,1,0.516513692378,03,3,60.0230046139,PLT_learning_3,A,2014_Apr_01_1328,P30,
stim_fb/ques.jpg,stim_fb/negf.jpg,stim_fb/posf.jpg,stim_03/b.jpg,stim_03/a.jpg,1,1,f,4,26,266,6,f,1,0.383298600762,03,3,60.0230046139,PLT_learning_3,A,2014_Apr_01_1328,P30,
stim_fb/ques.jpg,stim_fb/negf.jpg,stim_fb/posf.jpg,stim_03/b.jpg,stim_03/a.jpg,1,1,f,4,27,267,2,j,0,0.199937185435,03,3,60.0230046139,PLT_learning_3,A,2014_Apr_01_1328,P30,
stim_fb/ques.jpg,stim_fb/negf.jpg,stim_fb/posf.jpg,stim_03/b.jpg,stim_03/a.jpg,1,1,f,4,28,268,1,f,1,0.549870169397,03,3,60.0230046139,PLT_learning_3,A,2014_Apr_01_1328,P30,
stim_fb/ques.jpg,stim_fb/posf.jpg,stim_fb/negf.jpg,stim_03/f.jpg,stim_03/e.jpg,1,3,f,4,29,269,46,j,0,0.566528158435,03,3,60.0230046139,PLT_learning_3,A,2014_Apr_01_1328,P30,
stim_fb/ques.jpg,stim_fb/negf.jpg,stim_fb/posf.jpg,stim_03/f.jpg,stim_03/e.jpg,1,3,f,4,30,270,43,j,0,0.51652603815,03,3,60.0230046139,PLT_learning_3,A,2014_Apr_01_1328,P30,
stim_fb/ques.jpg,stim_fb/negf.jpg,stim_fb/posf.jpg,stim_03/e.jpg,stim_03/f.jpg,2,3,j,4,31,271,50,f,0,0.783101146608,03,3,60.0230046139,PLT_learning_3,A,2014_Apr_01_1328,P30,
stim_fb/ques.jpg,stim_fb/negf.jpg,stim_fb/posf.jpg,stim_03/c.jpg,stim_03/d.jpg,2,2,j,4,32,272,32,f,0,0.549883011406,03,3,60.0230046139,PLT_learning_3,A,2014_Apr_01_1328,P30,
stim_fb/ques.jpg,stim_fb/negf.jpg,stim_fb/posf.jpg,stim_03/d.jpg,stim_03/c.jpg,1,2,f,4,33,273,21,f,1,0.516588242193,03,3,60.0230046139,PLT_learning_3,A,2014_Apr_01_1328,P30,
stim_fb/ques.jpg,stim_fb/posf.jpg,stim_fb/negf.jpg,stim_03/c.jpg,stim_03/d.jpg,2,2,j,4,34,274,38,f,0,0.666469037075,03,3,60.0230046139,PLT_learning_3,A,2014_Apr_01_1328,P30,
stim_fb/ques.jpg,stim_fb/posf.jpg,stim_fb/negf.jpg,stim_03/d.jpg,stim_03/c.jpg,1,2,f,4,35,275,29,f,1,0.53322586146,03,3,60.0230046139,PLT_learning_3,A,2014_Apr_01_1328,P30,
stim_fb/ques.jpg,stim_fb/posf.jpg,stim_fb/negf.jpg,stim_03/c.jpg,stim_03/d.jpg,2,2,j,4,36,276,39,j,1,0.649706065368,03,3,60.0230046139,PLT_learning_3,A,2014_Apr_01_1328,P30,
stim_fb/ques.jpg,stim_fb/posf.jpg,stim_fb/negf.jpg,stim_03/c.jpg,stim_03/d.jpg,2,2,j,4,37,277,37,f,0,0.4831880843,03,3,60.0230046139,PLT_learning_3,A,2014_Apr_01_1328,P30,
stim_fb/ques.jpg,stim_fb/negf.jpg,stim_fb/posf.jpg,stim_03/b.jpg,stim_03/a.jpg,1,1,f,4,38,278,7,f,1,0.749786831678,03,3,60.0230046139,PLT_learning_3,A,2014_Apr_01_1328,P30,
stim_fb/ques.jpg,stim_fb/negf.jpg,stim_fb/posf.jpg,stim_03/f.jpg,stim_03/e.jpg,1,3,f,4,39,279,44,j,0,0.783123335915,03,3,60.0230046139,PLT_learning_3,A,2014_Apr_01_1328,P30,
stim_fb/ques.jpg,stim_fb/negf.jpg,stim_fb/posf.jpg,stim_03/d.jpg,stim_03/c.jpg,1,2,f,4,40,280,26,f,1,0.483193209074,03,3,60.0230046139,PLT_learning_3,A,2014_Apr_01_1328,P30,
stim_fb/ques.jpg,stim_fb/posf.jpg,stim_fb/negf.jpg,stim_03/f.jpg,stim_03/e.jpg,1,3,f,4,41,281,47,j,0,0.4832299697,03,3,60.0230046139,PLT_learning_3,A,2014_Apr_01_1328,P30,
stim_fb/ques.jpg,stim_fb/negf.jpg,stim_fb/posf.jpg,stim_03/c.jpg,stim_03/d.jpg,2,2,j,4,42,282,31,f,0,0.583164899512,03,3,60.0230046139,PLT_learning_3,A,2014_Apr_01_1328,P30,
stim_fb/ques.jpg,stim_fb/negf.jpg,stim_fb/posf.jpg,stim_03/f.jpg,stim_03/e.jpg,1,3,f,4,43,283,45,j,0,0.466496384238,03,3,60.0230046139,PLT_learning_3,A,2014_Apr_01_1328,P30,
stim_fb/ques.jpg,stim_fb/negf.jpg,stim_fb/posf.jpg,stim_03/b.jpg,stim_03/a.jpg,1,1,f,4,44,284,0,j,0,0.599851631191,03,3,60.0230046139,PLT_learning_3,A,2014_Apr_01_1328,P30,
stim_fb/ques.jpg,stim_fb/negf.jpg,stim_fb/posf.jpg,stim_03/a.jpg,stim_03/b.jpg,2,1,j,4,45,285,10,j,1,0.449889023391,03,3,60.0230046139,PLT_learning_3,A,2014_Apr_01_1328,P30,
stim_fb/ques.jpg,stim_fb/negf.jpg,stim_fb/posf.jpg,stim_03/c.jpg,stim_03/d.jpg,2,2,j,4,46,286,33,j,1,0.399935215525,03,3,60.0230046139,PLT_learning_3,A,2014_Apr_01_1328,P30,
stim_fb/ques.jpg,stim_fb/negf.jpg,stim_fb/posf.jpg,stim_03/a.jpg,stim_03/b.jpg,2,1,j,4,47,287,16,f,0,0.516491283524,03,3,60.0230046139,PLT_learning_3,A,2014_Apr_01_1328,P30,
stim_fb/ques.jpg,stim_fb/negf.jpg,stim_fb/posf.jpg,stim_03/d.jpg,stim_03/c.jpg,1,2,f,4,48,288,25,j,0,0.783141338787,03,3,60.0230046139,PLT_learning_3,A,2014_Apr_01_1328,P30,
stim_fb/ques.jpg,stim_fb/negf.jpg,stim_fb/posf.jpg,stim_03/a.jpg,stim_03/b.jpg,2,1,j,4,49,289,15,j,1,0.716448799633,03,3,60.0230046139,PLT_learning_3,A,2014_Apr_01_1328,P30,
stim_fb/ques.jpg,stim_fb/negf.jpg,stim_fb/posf.jpg,stim_03/d.jpg,stim_03/c.jpg,1,2,f,4,50,290,22,j,0,0.749804624025,03,3,60.0230046139,PLT_learning_3,A,2014_Apr_01_1328,P30,
stim_fb/ques.jpg,stim_fb/posf.jpg,stim_fb/negf.jpg,stim_03/e.jpg,stim_03/f.jpg,2,3,j,4,51,291,56,f,0,0.949792678251,03,3,60.0230046139,PLT_learning_3,A,2014_Apr_01_1328,P30,
stim_fb/ques.jpg,stim_fb/negf.jpg,stim_fb/posf.jpg,stim_03/a.jpg,stim_03/b.jpg,2,1,j,4,52,292,11,j,1,0.516515289359,03,3,60.0230046139,PLT_learning_3,A,2014_Apr_01_1328,P30,
stim_fb/ques.jpg,stim_fb/negf.jpg,stim_fb/posf.jpg,stim_03/e.jpg,stim_03/f.jpg,2,3,j,4,53,293,55,f,0,0.666537232051,03,3,60.0230046139,PLT_learning_3,A,2014_Apr_01_1328,P30,
stim_fb/ques.jpg,stim_fb/negf.jpg,stim_fb/posf.jpg,stim_03/c.jpg,stim_03/d.jpg,2,2,j,4,54,294,30,f,0,0.616474155833,03,3,60.0230046139,PLT_learning_3,A,2014_Apr_01_1328,P30,
stim_fb/ques.jpg,stim_fb/posf.jpg,stim_fb/negf.jpg,stim_03/a.jpg,stim_03/b.jpg,2,1,j,4,55,295,18,j,1,0.649831712544,03,3,60.0230046139,PLT_learning_3,A,2014_Apr_01_1328,P30,
stim_fb/ques.jpg,stim_fb/posf.jpg,stim_fb/negf.jpg,stim_03/d.jpg,stim_03/c.jpg,1,2,f,4,56,296,27,j,0,0.466573258848,03,3,60.0230046139,PLT_learning_3,A,2014_Apr_01_1328,P30,
stim_fb/ques.jpg,stim_fb/negf.jpg,stim_fb/posf.jpg,stim_03/a.jpg,stim_03/b.jpg,2,1,j,4,57,297,12,f,0,0.699835565146,03,3,60.0230046139,PLT_learning_3,A,2014_Apr_01_1328,P30,
stim_fb/ques.jpg,stim_fb/posf.jpg,stim_fb/negf.jpg,stim_03/b.jpg,stim_03/a.jpg,1,1,f,4,58,298,9,f,1,0.599811246532,03,3,60.0230046139,PLT_learning_3,A,2014_Apr_01_1328,P30,
stim_fb/ques.jpg,stim_fb/negf.jpg,stim_fb/posf.jpg,stim_03/b.jpg,stim_03/a.jpg,1,1,f,4,59,299,5,f,1,0.583168691965,03,3,60.0230046139,PLT_learning_3,A,2014_Apr_01_1328,P30,
stim_fb/ques.jpg,stim_fb/negf.jpg,stim_fb/posf.jpg,stim_03/c.jpg,stim_03/d.jpg,2,2,j,5,0,300,31,f,0,0.516515018684,03,3,60.0230046139,PLT_learning_3,A,2014_Apr_01_1328,P30,
stim_fb/ques.jpg,stim_fb/negf.jpg,stim_fb/posf.jpg,stim_03/d.jpg,stim_03/c.jpg,1,2,f,5,1,301,24,j,0,0.44989364892,03,3,60.0230046139,PLT_learning_3,A,2014_Apr_01_1328,P30,
stim_fb/ques.jpg,stim_fb/negf.jpg,stim_fb/posf.jpg,stim_03/d.jpg,stim_03/c.jpg,1,2,f,5,2,302,21,j,0,0.399912190134,03,3,60.0230046139,PLT_learning_3,A,2014_Apr_01_1328,P30,
stim_fb/ques.jpg,stim_fb/negf.jpg,stim_fb/posf.jpg,stim_03/e.jpg,stim_03/f.jpg,2,3,j,5,3,303,50,j,1,0.0666869782935,03,3,60.0230046139,PLT_learning_3,A,2014_Apr_01_1328,P30,
stim_fb/ques.jpg,stim_fb/negf.jpg,stim_fb/posf.jpg,stim_03/c.jpg,stim_03/d.jpg,2,2,j,5,4,304,35,j,1,0.40023864783,03,3,60.0230046139,PLT_learning_3,A,2014_Apr_01_1328,P30,
stim_fb/ques.jpg,stim_fb/negf.jpg,stim_fb/posf.jpg,stim_03/a.jpg,stim_03/b.jpg,2,1,j,5,5,305,11,f,0,0.233298053398,03,3,60.0230046139,PLT_learning_3,A,2014_Apr_01_1328,P30,
stim_fb/ques.jpg,stim_fb/negf.jpg,stim_fb/posf.jpg,stim_03/d.jpg,stim_03/c.jpg,1,2,f,5,6,306,23,j,0,0.233295701536,03,3,60.0230046139,PLT_learning_3,A,2014_Apr_01_1328,P30,
stim_fb/ques.jpg,stim_fb/negf.jpg,stim_fb/posf.jpg,stim_03/d.jpg,stim_03/c.jpg,1,2,f,5,7,307,25,j,0,0.583207521748,03,3,60.0230046139,PLT_learning_3,A,2014_Apr_01_1328,P30,
stim_fb/ques.jpg,stim_fb/negf.jpg,stim_fb/posf.jpg,stim_03/b.jpg,stim_03/a.jpg,1,1,f,5,8,308,1,j,0,0.583161889008,03,3,60.0230046139,PLT_learning_3,A,2014_Apr_01_1328,P30,
stim_fb/ques.jpg,stim_fb/posf.jpg,stim_fb/negf.jpg,stim_03/b.jpg,stim_03/a.jpg,1,1,f,5,9,309,8,j,0,0.883085823415,03,3,60.0230046139,PLT_learning_3,A,2014_Apr_01_1328,P30,
stim_fb/ques.jpg,stim_fb/posf.jpg,stim_fb/negf.jpg,stim_03/f.jpg,stim_03/e.jpg,1,3,f,5,10,310,47,j,0,1.01643561778,03,3,60.0230046139,PLT_learning_3,A,2014_Apr_01_1328,P30,
stim_fb/ques.jpg,stim_fb/posf.jpg,stim_fb/negf.jpg,stim_03/d.jpg,stim_03/c.jpg,1,2,f,5,11,311,28,f,1,0.599863616063,03,3,60.0230046139,PLT_learning_3,A,2014_Apr_01_1328,P30,
stim_fb/ques.jpg,stim_fb/negf.jpg,stim_fb/posf.jpg,stim_03/d.jpg,stim_03/c.jpg,1,2,f,5,12,312,20,f,1,0.54986194991,03,3,60.0230046139,PLT_learning_3,A,2014_Apr_01_1328,P30,
stim_fb/ques.jpg,stim_fb/posf.jpg,stim_fb/negf.jpg,stim_03/e.jpg,stim_03/f.jpg,2,3,j,5,13,313,59,j,1,0.349929293764,03,3,60.0230046139,PLT_learning_3,A,2014_Apr_01_1328,P30,
stim_fb/ques.jpg,stim_fb/negf.jpg,stim_fb/posf.jpg,stim_03/c.jpg,stim_03/d.jpg,2,2,j,5,14,314,34,j,1,0.24997272201,03,3,60.0230046139,PLT_learning_3,A,2014_Apr_01_1328,P30,
stim_fb/ques.jpg,stim_fb/negf.jpg,stim_fb/posf.jpg,stim_03/a.jpg,stim_03/b.jpg,2,1,j,5,15,315,10,j,1,0.466533286216,03,3,60.0230046139,PLT_learning_3,A,2014_Apr_01_1328,P30,
stim_fb/ques.jpg,stim_fb/negf.jpg,stim_fb/posf.jpg,stim_03/d.jpg,stim_03/c.jpg,1,2,f,5,16,316,22,j,0,0.516539400455,03,3,60.0230046139,PLT_learning_3,A,2014_Apr_01_1328,P30,
stim_fb/ques.jpg,stim_fb/negf.jpg,stim_fb/posf.jpg,stim_03/b.jpg,stim_03/a.jpg,1,1,f,5,17,317,4,f,1,0.849787433177,03,3,60.0230046139,PLT_learning_3,A,2014_Apr_01_1328,P30,
stim_fb/ques.jpg,stim_fb/posf.jpg,stim_fb/negf.jpg,stim_03/b.jpg,stim_03/a.jpg,1,1,f,5,18,318,9,f,1,0.51653574334,03,3,60.0230046139,PLT_learning_3,A,2014_Apr_01_1328,P30,
stim_fb/ques.jpg,stim_fb/posf.jpg,stim_fb/negf.jpg,stim_03/c.jpg,stim_03/d.jpg,2,2,j,5,19,319,37,f,0,0.499905002218,03,3,60.0230046139,PLT_learning_3,A,2014_Apr_01_1328,P30,
stim_fb/ques.jpg,stim_fb/negf.jpg,stim_fb/posf.jpg,stim_03/d.jpg,stim_03/c.jpg,1,2,f,5,20,320,26,j,0,0.56656369501,03,3,60.0230046139,PLT_learning_3,A,2014_Apr_01_1328,P30,
stim_fb/ques.jpg,stim_fb/posf.jpg,stim_fb/negf.jpg,stim_03/c.jpg,stim_03/d.jpg,2,2,j,5,21,321,39,j,1,0.449890755709,03,3,60.0230046139,PLT_learning_3,A,2014_Apr_01_1328,P30,
stim_fb/ques.jpg,stim_fb/posf.jpg,stim_fb/negf.jpg,stim_03/f.jpg,stim_03/e.jpg,1,3,f,5,22,322,48,j,0,0.516532444117,03,3,60.0230046139,PLT_learning_3,A,2014_Apr_01_1328,P30,
stim_fb/ques.jpg,stim_fb/posf.jpg,stim_fb/negf.jpg,stim_03/f.jpg,stim_03/e.jpg,1,3,f,5,23,323,46,j,0,0.616541656078,03,3,60.0230046139,PLT_learning_3,A,2014_Apr_01_1328,P30,
stim_fb/ques.jpg,stim_fb/negf.jpg,stim_fb/posf.jpg,stim_03/b.jpg,stim_03/a.jpg,1,1,f,5,24,324,5,f,1,0.433280955782,03,3,60.0230046139,PLT_learning_3,A,2014_Apr_01_1328,P30,
stim_fb/ques.jpg,stim_fb/negf.jpg,stim_fb/posf.jpg,stim_03/b.jpg,stim_03/a.jpg,1,1,f,5,25,325,7,f,1,0.549919002112,03,3,60.0230046139,PLT_learning_3,A,2014_Apr_01_1328,P30,
stim_fb/ques.jpg,stim_fb/negf.jpg,stim_fb/posf.jpg,stim_03/b.jpg,stim_03/a.jpg,1,1,f,5,26,326,0,j,0,0.599870903226,03,3,60.0230046139,PLT_learning_3,A,2014_Apr_01_1328,P30,
stim_fb/ques.jpg,stim_fb/negf.jpg,stim_fb/posf.jpg,stim_03/a.jpg,stim_03/b.jpg,2,1,j,5,27,327,12,j,1,0.616517081826,03,3,60.0230046139,PLT_learning_3,A,2014_Apr_01_1328,P30,
stim_fb/ques.jpg,stim_fb/posf.jpg,stim_fb/negf.jpg,stim_03/f.jpg,stim_03/e.jpg,1,3,f,5,28,328,49,j,0,0.649808530763,03,3,60.0230046139,PLT_learning_3,A,2014_Apr_01_1328,P30,
stim_fb/ques.jpg,stim_fb/posf.jpg,stim_fb/negf.jpg,stim_03/e.jpg,stim_03/f.jpg,2,3,j,5,29,329,57,j,1,0.633177738513,03,3,60.0230046139,PLT_learning_3,A,2014_Apr_01_1328,P30,
stim_fb/ques.jpg,stim_fb/negf.jpg,stim_fb/posf.jpg,stim_03/b.jpg,stim_03/a.jpg,1,1,f,5,30,330,3,j,0,0.649844990639,03,3,60.0230046139,PLT_learning_3,A,2014_Apr_01_1328,P30,
stim_fb/ques.jpg,stim_fb/negf.jpg,stim_fb/posf.jpg,stim_03/e.jpg,stim_03/f.jpg,2,3,j,5,31,331,55,j,1,0.499744678611,03,3,60.0230046139,PLT_learning_3,A,2014_Apr_01_1328,P30,
stim_fb/ques.jpg,stim_fb/posf.jpg,stim_fb/negf.jpg,stim_03/a.jpg,stim_03/b.jpg,2,1,j,5,32,332,19,f,0,0.549866834084,03,3,60.0230046139,PLT_learning_3,A,2014_Apr_01_1328,P30,
stim_fb/ques.jpg,stim_fb/negf.jpg,stim_fb/posf.jpg,stim_03/e.jpg,stim_03/f.jpg,2,3,j,5,33,333,54,j,1,0.74980920745,03,3,60.0230046139,PLT_learning_3,A,2014_Apr_01_1328,P30,
stim_fb/ques.jpg,stim_fb/negf.jpg,stim_fb/posf.jpg,stim_03/e.jpg,stim_03/f.jpg,2,3,j,5,34,334,53,j,1,0.649851808633,03,3,60.0230046139,PLT_learning_3,A,2014_Apr_01_1328,P30,
stim_fb/ques.jpg,stim_fb/negf.jpg,stim_fb/posf.jpg,stim_03/a.jpg,stim_03/b.jpg,2,1,j,5,35,335,13,f,0,0.599859730378,03,3,60.0230046139,PLT_learning_3,A,2014_Apr_01_1328,P30,
stim_fb/ques.jpg,stim_fb/negf.jpg,stim_fb/posf.jpg,stim_03/a.jpg,stim_03/b.jpg,2,1,j,5,36,336,14,j,1,0.59985839505,03,3,60.0230046139,PLT_learning_3,A,2014_Apr_01_1328,P30,
stim_fb/ques.jpg,stim_fb/negf.jpg,stim_fb/posf.jpg,stim_03/f.jpg,stim_03/e.jpg,1,3,f,5,37,337,40,j,0,0.533190120375,03,3,60.0230046139,PLT_learning_3,A,2014_Apr_01_1328,P30,
stim_fb/ques.jpg,stim_fb/posf.jpg,stim_fb/negf.jpg,stim_03/d.jpg,stim_03/c.jpg,1,2,f,5,38,338,27,j,0,0.583165470936,03,3,60.0230046139,PLT_learning_3,A,2014_Apr_01_1328,P30,
stim_fb/ques.jpg,stim_fb/negf.jpg,stim_fb/posf.jpg,stim_03/e.jpg,stim_03/f.jpg,2,3,j,5,39,339,52,j,1,0.533190252705,03,3,60.0230046139,PLT_learning_3,A,2014_Apr_01_1328,P30,
stim_fb/ques.jpg,stim_fb/negf.jpg,stim_fb/posf.jpg,stim_03/f.jpg,stim_03/e.jpg,1,3,f,5,40,340,43,j,0,0.499884969286,03,3,60.0230046139,PLT_learning_3,A,2014_Apr_01_1328,P30,
stim_fb/ques.jpg,stim_fb/negf.jpg,stim_fb/posf.jpg,stim_03/f.jpg,stim_03/e.jpg,1,3,f,5,41,341,41,j,0,0.499863982978,03,3,60.0230046139,PLT_learning_3,A,2014_Apr_01_1328,P30,
stim_fb/ques.jpg,stim_fb/posf.jpg,stim_fb/negf.jpg,stim_03/e.jpg,stim_03/f.jpg,2,3,j,5,42,342,58,f,0,0.533215022444,03,3,60.0230046139,PLT_learning_3,A,2014_Apr_01_1328,P30,
stim_fb/ques.jpg,stim_fb/negf.jpg,stim_fb/posf.jpg,stim_03/e.jpg,stim_03/f.jpg,2,3,j,5,43,343,51,j,1,0.549843571101,03,3,60.0230046139,PLT_learning_3,A,2014_Apr_01_1328,P30,
stim_fb/ques.jpg,stim_fb/posf.jpg,stim_fb/negf.jpg,stim_03/c.jpg,stim_03/d.jpg,2,2,j,5,44,344,38,j,1,0.433249894361,03,3,60.0230046139,PLT_learning_3,A,2014_Apr_01_1328,P30,
stim_fb/ques.jpg,stim_fb/negf.jpg,stim_fb/posf.jpg,stim_03/c.jpg,stim_03/d.jpg,2,2,j,5,45,345,36,j,1,0.499891282021,03,3,60.0230046139,PLT_learning_3,A,2014_Apr_01_1328,P30,
stim_fb/ques.jpg,stim_fb/posf.jpg,stim_fb/negf.jpg,stim_03/e.jpg,stim_03/f.jpg,2,3,j,5,46,346,56,j,1,0.666509039781,03,3,60.0230046139,PLT_learning_3,A,2014_Apr_01_1328,P30,
stim_fb/ques.jpg,stim_fb/negf.jpg,stim_fb/posf.jpg,stim_03/b.jpg,stim_03/a.jpg,1,1,f,5,47,347,6,f,1,0.666497740618,03,3,60.0230046139,PLT_learning_3,A,2014_Apr_01_1328,P30,
stim_fb/ques.jpg,stim_fb/negf.jpg,stim_fb/posf.jpg,stim_03/f.jpg,stim_03/e.jpg,1,3,f,5,48,348,42,f,1,0.849768194224,03,3,60.0230046139,PLT_learning_3,A,2014_Apr_01_1328,P30,
stim_fb/ques.jpg,stim_fb/negf.jpg,stim_fb/posf.jpg,stim_03/f.jpg,stim_03/e.jpg,1,3,f,5,49,349,44,j,0,0.466548901136,03,3,60.0230046139,PLT_learning_3,A,2014_Apr_01_1328,P30,
stim_fb/ques.jpg,stim_fb/posf.jpg,stim_fb/negf.jpg,stim_03/d.jpg,stim_03/c.jpg,1,2,f,5,50,350,29,j,0,0.49988999782,03,3,60.0230046139,PLT_learning_3,A,2014_Apr_01_1328,P30,
stim_fb/ques.jpg,stim_fb/posf.jpg,stim_fb/negf.jpg,stim_03/a.jpg,stim_03/b.jpg,2,1,j,5,51,351,18,f,0,0.533163525086,03,3,60.0230046139,PLT_learning_3,A,2014_Apr_01_1328,P30,
stim_fb/ques.jpg,stim_fb/negf.jpg,stim_fb/posf.jpg,stim_03/a.jpg,stim_03/b.jpg,2,1,j,5,52,352,15,j,1,0.433250604131,03,3,60.0230046139,PLT_learning_3,A,2014_Apr_01_1328,P30,
stim_fb/ques.jpg,stim_fb/negf.jpg,stim_fb/posf.jpg,stim_03/c.jpg,stim_03/d.jpg,2,2,j,5,53,353,33,j,1,0.483225154698,03,3,60.0230046139,PLT_learning_3,A,2014_Apr_01_1328,P30,
stim_fb/ques.jpg,stim_fb/negf.jpg,stim_fb/posf.jpg,stim_03/c.jpg,stim_03/d.jpg,2,2,j,5,54,354,30,f,0,0.549861763445,03,3,60.0230046139,PLT_learning_3,A,2014_Apr_01_1328,P30,
stim_fb/ques.jpg,stim_fb/negf.jpg,stim_fb/posf.jpg,stim_03/c.jpg,stim_03/d.jpg,2,2,j,5,55,355,32,j,1,0.566524387034,03,3,60.0230046139,PLT_learning_3,A,2014_Apr_01_1328,P30,
stim_fb/ques.jpg,stim_fb/negf.jpg,stim_fb/posf.jpg,stim_03/f.jpg,stim_03/e.jpg,1,3,f,5,56,356,45,j,0,0.69976370704,03,3,60.0230046139,PLT_learning_3,A,2014_Apr_01_1328,P30,
stim_fb/ques.jpg,stim_fb/negf.jpg,stim_fb/posf.jpg,stim_03/a.jpg,stim_03/b.jpg,2,1,j,5,57,357,16,j,1,0.666548269562,03,3,60.0230046139,PLT_learning_3,A,2014_Apr_01_1328,P30,
stim_fb/ques.jpg,stim_fb/negf.jpg,stim_fb/posf.jpg,stim_03/a.jpg,stim_03/b.jpg,2,1,j,5,58,358,17,j,1,0.683194622597,03,3,60.0230046139,PLT_learning_3,A,2014_Apr_01_1328,P30,
stim_fb/ques.jpg,stim_fb/negf.jpg,stim_fb/posf.jpg,stim_03/b.jpg,stim_03/a.jpg,1,1,f,5,59,359,2,f,1,0.866422493064,03,3,60.0230046139,PLT_learning_3,A,2014_Apr_01_1328,P30,
