Fb3,Fb2,Fb1,Symbol2,Symbol1,PosCond,Pair,Correct,trials.thisRepN,trials.thisTrialN,trials.thisN,trials.thisIndex,Response.keys,Response.corr,Response.rt,Version,Session Number,frameRate,expName,StimCondition,date,Participant,
stim_fb/ques.jpg,stim_fb/negf.jpg,stim_fb/posf.jpg,stim_03/b.jpg,stim_03/a.jpg,1,1,f,0,0,0,3,f,1,1.31629638273,03,03,60.0173122923,PLT_learning_3,B,2014_Jan_31_1408,P01,
stim_fb/ques.jpg,stim_fb/negf.jpg,stim_fb/posf.jpg,stim_03/d.jpg,stim_03/c.jpg,1,2,f,0,1,1,21,f,1,1.21631447884,03,03,60.0173122923,PLT_learning_3,B,2014_Jan_31_1408,P01,
stim_fb/ques.jpg,stim_fb/negf.jpg,stim_fb/posf.jpg,stim_03/b.jpg,stim_03/a.jpg,1,1,f,0,2,2,4,j,0,1.09969742784,03,03,60.0173122923,PLT_learning_3,B,2014_Jan_31_1408,P01,
stim_fb/ques.jpg,stim_fb/negf.jpg,stim_fb/posf.jpg,stim_03/a.jpg,stim_03/b.jpg,2,1,j,0,3,3,17,j,1,1.06637539267,03,03,60.0173122923,PLT_learning_3,B,2014_Jan_31_1408,P01,
stim_fb/ques.jpg,stim_fb/posf.jpg,stim_fb/negf.jpg,stim_03/f.jpg,stim_03/e.jpg,1,3,f,0,4,4,49,j,0,1.23298725273,03,03,60.0173122923,PLT_learning_3,B,2014_Jan_31_1408,P01,
stim_fb/ques.jpg,stim_fb/posf.jpg,stim_fb/negf.jpg,stim_03/b.jpg,stim_03/a.jpg,1,1,f,0,5,5,9,f,1,0.799786961,03,03,60.0173122923,PLT_learning_3,B,2014_Jan_31_1408,P01,
stim_fb/ques.jpg,stim_fb/negf.jpg,stim_fb/posf.jpg,stim_03/d.jpg,stim_03/c.jpg,1,2,f,0,6,6,25,j,0,0.866443476365,03,03,60.0173122923,PLT_learning_3,B,2014_Jan_31_1408,P01,
stim_fb/ques.jpg,stim_fb/posf.jpg,stim_fb/negf.jpg,stim_03/e.jpg,stim_03/f.jpg,2,3,j,0,7,7,59,f,0,0.783121197585,03,03,60.0173122923,PLT_learning_3,B,2014_Jan_31_1408,P01,
stim_fb/ques.jpg,stim_fb/negf.jpg,stim_fb/posf.jpg,stim_03/e.jpg,stim_03/f.jpg,2,3,j,0,8,8,53,f,0,0.983070524282,03,03,60.0173122923,PLT_learning_3,B,2014_Jan_31_1408,P01,
stim_fb/ques.jpg,stim_fb/posf.jpg,stim_fb/negf.jpg,stim_03/c.jpg,stim_03/d.jpg,2,2,j,0,9,9,38,j,1,1.08303424185,03,03,60.0173122923,PLT_learning_3,B,2014_Jan_31_1408,P01,
stim_fb/ques.jpg,stim_fb/negf.jpg,stim_fb/posf.jpg,stim_03/c.jpg,stim_03/d.jpg,2,2,j,0,10,10,30,j,1,1.24967339193,03,03,60.0173122923,PLT_learning_3,B,2014_Jan_31_1408,P01,
stim_fb/ques.jpg,stim_fb/posf.jpg,stim_fb/negf.jpg,stim_03/e.jpg,stim_03/f.jpg,2,3,j,0,11,11,56,f,0,0.799772446824,03,03,60.0173122923,PLT_learning_3,B,2014_Jan_31_1408,P01,
stim_fb/ques.jpg,stim_fb/negf.jpg,stim_fb/posf.jpg,stim_03/b.jpg,stim_03/a.jpg,1,1,f,0,12,12,0,f,1,0.716466137849,03,03,60.0173122923,PLT_learning_3,B,2014_Jan_31_1408,P01,
stim_fb/ques.jpg,stim_fb/negf.jpg,stim_fb/posf.jpg,stim_03/d.jpg,stim_03/c.jpg,1,2,f,0,13,13,20,f,1,1.0497114939,03,03,60.0173122923,PLT_learning_3,B,2014_Jan_31_1408,P01,
stim_fb/ques.jpg,stim_fb/negf.jpg,stim_fb/posf.jpg,stim_03/e.jpg,stim_03/f.jpg,2,3,j,0,14,14,54,j,1,1.21636646943,03,03,60.0173122923,PLT_learning_3,B,2014_Jan_31_1408,P01,
stim_fb/ques.jpg,stim_fb/negf.jpg,stim_fb/posf.jpg,stim_03/f.jpg,stim_03/e.jpg,1,3,f,0,15,15,45,f,1,1.53287090473,03,03,60.0173122923,PLT_learning_3,B,2014_Jan_31_1408,P01,
stim_fb/ques.jpg,stim_fb/negf.jpg,stim_fb/posf.jpg,stim_03/e.jpg,stim_03/f.jpg,2,3,j,0,16,16,50,j,1,1.01638644221,03,03,60.0173122923,PLT_learning_3,B,2014_Jan_31_1408,P01,
stim_fb/ques.jpg,stim_fb/posf.jpg,stim_fb/negf.jpg,stim_03/c.jpg,stim_03/d.jpg,2,2,j,0,17,17,39,j,1,1.066365498,03,03,60.0173122923,PLT_learning_3,B,2014_Jan_31_1408,P01,
stim_fb/ques.jpg,stim_fb/posf.jpg,stim_fb/negf.jpg,stim_03/b.jpg,stim_03/a.jpg,1,1,f,0,18,18,8,f,1,0.766469554364,03,03,60.0173122923,PLT_learning_3,B,2014_Jan_31_1408,P01,
stim_fb/ques.jpg,stim_fb/negf.jpg,stim_fb/posf.jpg,stim_03/c.jpg,stim_03/d.jpg,2,2,j,0,19,19,34,j,1,0.933126078751,03,03,60.0173122923,PLT_learning_3,B,2014_Jan_31_1408,P01,
stim_fb/ques.jpg,stim_fb/negf.jpg,stim_fb/posf.jpg,stim_03/a.jpg,stim_03/b.jpg,2,1,j,0,20,20,16,j,1,0.733127423102,03,03,60.0173122923,PLT_learning_3,B,2014_Jan_31_1408,P01,
stim_fb/ques.jpg,stim_fb/negf.jpg,stim_fb/posf.jpg,stim_03/c.jpg,stim_03/d.jpg,2,2,j,0,21,21,31,j,1,0.866420544206,03,03,60.0173122923,PLT_learning_3,B,2014_Jan_31_1408,P01,
stim_fb/ques.jpg,stim_fb/posf.jpg,stim_fb/negf.jpg,stim_03/e.jpg,stim_03/f.jpg,2,3,j,0,22,22,57,j,1,1.28296075067,03,03,60.0173122923,PLT_learning_3,B,2014_Jan_31_1408,P01,
stim_fb/ques.jpg,stim_fb/negf.jpg,stim_fb/posf.jpg,stim_03/f.jpg,stim_03/e.jpg,1,3,f,0,23,23,43,f,1,0.849762720581,03,03,60.0173122923,PLT_learning_3,B,2014_Jan_31_1408,P01,
stim_fb/ques.jpg,stim_fb/negf.jpg,stim_fb/posf.jpg,stim_03/d.jpg,stim_03/c.jpg,1,2,f,0,24,24,24,f,1,0.949742113217,03,03,60.0173122923,PLT_learning_3,B,2014_Jan_31_1408,P01,
stim_fb/ques.jpg,stim_fb/negf.jpg,stim_fb/posf.jpg,stim_03/f.jpg,stim_03/e.jpg,1,3,f,0,25,25,41,f,1,0.949727099796,03,03,60.0173122923,PLT_learning_3,B,2014_Jan_31_1408,P01,
stim_fb/ques.jpg,stim_fb/negf.jpg,stim_fb/posf.jpg,stim_03/d.jpg,stim_03/c.jpg,1,2,f,0,26,26,26,f,1,0.766447807159,03,03,60.0173122923,PLT_learning_3,B,2014_Jan_31_1408,P01,
stim_fb/ques.jpg,stim_fb/negf.jpg,stim_fb/posf.jpg,stim_03/c.jpg,stim_03/d.jpg,2,2,j,0,27,27,36,j,1,0.733140860595,03,03,60.0173122923,PLT_learning_3,B,2014_Jan_31_1408,P01,
stim_fb/ques.jpg,stim_fb/negf.jpg,stim_fb/posf.jpg,stim_03/f.jpg,stim_03/e.jpg,1,3,f,0,28,28,44,f,1,1.11639306171,03,03,60.0173122923,PLT_learning_3,B,2014_Jan_31_1408,P01,
stim_fb/ques.jpg,stim_fb/posf.jpg,stim_fb/negf.jpg,stim_03/a.jpg,stim_03/b.jpg,2,1,j,0,29,29,18,j,1,0.666486188826,03,03,60.0173122923,PLT_learning_3,B,2014_Jan_31_1408,P01,
stim_fb/ques.jpg,stim_fb/posf.jpg,stim_fb/negf.jpg,stim_03/f.jpg,stim_03/e.jpg,1,3,f,0,30,30,46,f,1,1.18294886204,03,03,60.0173122923,PLT_learning_3,B,2014_Jan_31_1408,P01,
stim_fb/ques.jpg,stim_fb/negf.jpg,stim_fb/posf.jpg,stim_03/e.jpg,stim_03/f.jpg,2,3,j,0,31,31,52,j,1,0.982876844535,03,03,60.0173122923,PLT_learning_3,B,2014_Jan_31_1408,P01,
stim_fb/ques.jpg,stim_fb/negf.jpg,stim_fb/posf.jpg,stim_03/e.jpg,stim_03/f.jpg,2,3,j,0,32,32,51,j,1,0.733141407959,03,03,60.0173122923,PLT_learning_3,B,2014_Jan_31_1408,P01,
stim_fb/ques.jpg,stim_fb/negf.jpg,stim_fb/posf.jpg,stim_03/f.jpg,stim_03/e.jpg,1,3,f,0,33,33,40,f,1,0.716480185863,03,03,60.0173122923,PLT_learning_3,B,2014_Jan_31_1408,P01,
stim_fb/ques.jpg,stim_fb/negf.jpg,stim_fb/posf.jpg,stim_03/c.jpg,stim_03/d.jpg,2,2,j,0,34,34,35,j,1,1.34959840001,03,03,60.0173122923,PLT_learning_3,B,2014_Jan_31_1408,P01,
stim_fb/ques.jpg,stim_fb/negf.jpg,stim_fb/posf.jpg,stim_03/c.jpg,stim_03/d.jpg,2,2,j,0,35,35,32,j,1,1.08306998293,03,03,60.0173122923,PLT_learning_3,B,2014_Jan_31_1408,P01,
stim_fb/ques.jpg,stim_fb/negf.jpg,stim_fb/posf.jpg,stim_03/b.jpg,stim_03/a.jpg,1,1,f,0,36,36,1,f,1,0.866425497553,03,03,60.0173122923,PLT_learning_3,B,2014_Jan_31_1408,P01,
stim_fb/ques.jpg,stim_fb/posf.jpg,stim_fb/negf.jpg,stim_03/a.jpg,stim_03/b.jpg,2,1,j,0,37,37,19,j,1,0.6498129187,03,03,60.0173122923,PLT_learning_3,B,2014_Jan_31_1408,P01,
stim_fb/ques.jpg,stim_fb/posf.jpg,stim_fb/negf.jpg,stim_03/d.jpg,stim_03/c.jpg,1,2,f,0,38,38,27,f,1,0.666510904429,03,03,60.0173122923,PLT_learning_3,B,2014_Jan_31_1408,P01,
stim_fb/ques.jpg,stim_fb/posf.jpg,stim_fb/negf.jpg,stim_03/e.jpg,stim_03/f.jpg,2,3,j,0,39,39,58,j,1,0.749813971323,03,03,60.0173122923,PLT_learning_3,B,2014_Jan_31_1408,P01,
stim_fb/ques.jpg,stim_fb/posf.jpg,stim_fb/negf.jpg,stim_03/d.jpg,stim_03/c.jpg,1,2,f,0,40,40,28,f,1,0.699802395471,03,03,60.0173122923,PLT_learning_3,B,2014_Jan_31_1408,P01,
stim_fb/ques.jpg,stim_fb/negf.jpg,stim_fb/posf.jpg,stim_03/b.jpg,stim_03/a.jpg,1,1,f,0,41,41,6,f,1,0.799831592244,03,03,60.0173122923,PLT_learning_3,B,2014_Jan_31_1408,P01,
stim_fb/ques.jpg,stim_fb/posf.jpg,stim_fb/negf.jpg,stim_03/f.jpg,stim_03/e.jpg,1,3,f,0,42,42,47,f,1,0.799772867873,03,03,60.0173122923,PLT_learning_3,B,2014_Jan_31_1408,P01,
stim_fb/ques.jpg,stim_fb/negf.jpg,stim_fb/posf.jpg,stim_03/f.jpg,stim_03/e.jpg,1,3,f,0,43,43,42,f,1,0.616508474372,03,03,60.0173122923,PLT_learning_3,B,2014_Jan_31_1408,P01,
stim_fb/ques.jpg,stim_fb/negf.jpg,stim_fb/posf.jpg,stim_03/a.jpg,stim_03/b.jpg,2,1,j,0,44,44,11,j,1,0.716475006955,03,03,60.0173122923,PLT_learning_3,B,2014_Jan_31_1408,P01,
stim_fb/ques.jpg,stim_fb/negf.jpg,stim_fb/posf.jpg,stim_03/e.jpg,stim_03/f.jpg,2,3,j,0,45,45,55,j,1,0.64989526996,03,03,60.0173122923,PLT_learning_3,B,2014_Jan_31_1408,P01,
stim_fb/ques.jpg,stim_fb/negf.jpg,stim_fb/posf.jpg,stim_03/d.jpg,stim_03/c.jpg,1,2,f,0,46,46,23,f,1,1.03305149886,03,03,60.0173122923,PLT_learning_3,B,2014_Jan_31_1408,P01,
stim_fb/ques.jpg,stim_fb/negf.jpg,stim_fb/posf.jpg,stim_03/d.jpg,stim_03/c.jpg,1,2,f,0,47,47,22,f,1,0.683168165653,03,03,60.0173122923,PLT_learning_3,B,2014_Jan_31_1408,P01,
stim_fb/ques.jpg,stim_fb/negf.jpg,stim_fb/posf.jpg,stim_03/a.jpg,stim_03/b.jpg,2,1,j,0,48,48,13,j,1,0.683409730754,03,03,60.0173122923,PLT_learning_3,B,2014_Jan_31_1408,P01,
stim_fb/ques.jpg,stim_fb/negf.jpg,stim_fb/posf.jpg,stim_03/a.jpg,stim_03/b.jpg,2,1,j,0,49,49,10,j,1,0.71648899482,03,03,60.0173122923,PLT_learning_3,B,2014_Jan_31_1408,P01,
stim_fb/ques.jpg,stim_fb/negf.jpg,stim_fb/posf.jpg,stim_03/a.jpg,stim_03/b.jpg,2,1,j,0,50,50,15,j,1,0.616485142217,03,03,60.0173122923,PLT_learning_3,B,2014_Jan_31_1408,P01,
stim_fb/ques.jpg,stim_fb/posf.jpg,stim_fb/negf.jpg,stim_03/f.jpg,stim_03/e.jpg,1,3,f,0,51,51,48,f,1,0.883071700213,03,03,60.0173122923,PLT_learning_3,B,2014_Jan_31_1408,P01,
stim_fb/ques.jpg,stim_fb/posf.jpg,stim_fb/negf.jpg,stim_03/c.jpg,stim_03/d.jpg,2,2,j,0,52,52,37,j,1,0.74981647356,03,03,60.0173122923,PLT_learning_3,B,2014_Jan_31_1408,P01,
stim_fb/ques.jpg,stim_fb/negf.jpg,stim_fb/posf.jpg,stim_03/b.jpg,stim_03/a.jpg,1,1,f,0,53,53,2,f,1,0.766329762934,03,03,60.0173122923,PLT_learning_3,B,2014_Jan_31_1408,P01,
stim_fb/ques.jpg,stim_fb/negf.jpg,stim_fb/posf.jpg,stim_03/a.jpg,stim_03/b.jpg,2,1,j,0,54,54,12,j,1,0.649847540996,03,03,60.0173122923,PLT_learning_3,B,2014_Jan_31_1408,P01,
stim_fb/ques.jpg,stim_fb/negf.jpg,stim_fb/posf.jpg,stim_03/b.jpg,stim_03/a.jpg,1,1,f,0,55,55,5,f,1,0.633179518951,03,03,60.0173122923,PLT_learning_3,B,2014_Jan_31_1408,P01,
stim_fb/ques.jpg,stim_fb/negf.jpg,stim_fb/posf.jpg,stim_03/b.jpg,stim_03/a.jpg,1,1,f,0,56,56,7,f,1,0.599808518733,03,03,60.0173122923,PLT_learning_3,B,2014_Jan_31_1408,P01,
stim_fb/ques.jpg,stim_fb/negf.jpg,stim_fb/posf.jpg,stim_03/a.jpg,stim_03/b.jpg,2,1,j,0,57,57,14,j,1,0.81643794558,03,03,60.0173122923,PLT_learning_3,B,2014_Jan_31_1408,P01,
stim_fb/ques.jpg,stim_fb/posf.jpg,stim_fb/negf.jpg,stim_03/d.jpg,stim_03/c.jpg,1,2,f,0,58,58,29,f,1,0.566541087661,03,03,60.0173122923,PLT_learning_3,B,2014_Jan_31_1408,P01,
stim_fb/ques.jpg,stim_fb/negf.jpg,stim_fb/posf.jpg,stim_03/c.jpg,stim_03/d.jpg,2,2,j,0,59,59,33,j,1,0.716501271419,03,03,60.0173122923,PLT_learning_3,B,2014_Jan_31_1408,P01,
stim_fb/ques.jpg,stim_fb/posf.jpg,stim_fb/negf.jpg,stim_03/e.jpg,stim_03/f.jpg,2,3,j,1,0,60,57,j,1,0.81645715145,03,03,60.0173122923,PLT_learning_3,B,2014_Jan_31_1408,P01,
stim_fb/ques.jpg,stim_fb/negf.jpg,stim_fb/posf.jpg,stim_03/f.jpg,stim_03/e.jpg,1,3,f,1,1,61,45,f,1,0.84977371298,03,03,60.0173122923,PLT_learning_3,B,2014_Jan_31_1408,P01,
stim_fb/ques.jpg,stim_fb/posf.jpg,stim_fb/negf.jpg,stim_03/e.jpg,stim_03/f.jpg,2,3,j,1,2,62,56,j,1,0.549876121232,03,03,60.0173122923,PLT_learning_3,B,2014_Jan_31_1408,P01,
stim_fb/ques.jpg,stim_fb/posf.jpg,stim_fb/negf.jpg,stim_03/b.jpg,stim_03/a.jpg,1,1,f,1,3,63,9,f,1,0.849756266494,03,03,60.0173122923,PLT_learning_3,B,2014_Jan_31_1408,P01,
stim_fb/ques.jpg,stim_fb/negf.jpg,stim_fb/posf.jpg,stim_03/c.jpg,stim_03/d.jpg,2,2,j,1,4,64,35,j,1,0.783117086338,03,03,60.0173122923,PLT_learning_3,B,2014_Jan_31_1408,P01,
stim_fb/ques.jpg,stim_fb/negf.jpg,stim_fb/posf.jpg,stim_03/d.jpg,stim_03/c.jpg,1,2,f,1,5,65,21,f,1,0.5998406418,03,03,60.0173122923,PLT_learning_3,B,2014_Jan_31_1408,P01,
stim_fb/ques.jpg,stim_fb/posf.jpg,stim_fb/negf.jpg,stim_03/e.jpg,stim_03/f.jpg,2,3,j,1,6,66,58,j,1,0.666515039737,03,03,60.0173122923,PLT_learning_3,B,2014_Jan_31_1408,P01,
stim_fb/ques.jpg,stim_fb/negf.jpg,stim_fb/posf.jpg,stim_03/a.jpg,stim_03/b.jpg,2,1,j,1,7,67,10,j,1,0.683155464996,03,03,60.0173122923,PLT_learning_3,B,2014_Jan_31_1408,P01,
stim_fb/ques.jpg,stim_fb/negf.jpg,stim_fb/posf.jpg,stim_03/c.jpg,stim_03/d.jpg,2,2,j,1,8,68,33,j,1,0.683145471087,03,03,60.0173122923,PLT_learning_3,B,2014_Jan_31_1408,P01,
stim_fb/ques.jpg,stim_fb/posf.jpg,stim_fb/negf.jpg,stim_03/e.jpg,stim_03/f.jpg,2,3,j,1,9,69,59,j,1,1.04988733318,03,03,60.0173122923,PLT_learning_3,B,2014_Jan_31_1408,P01,
stim_fb/ques.jpg,stim_fb/negf.jpg,stim_fb/posf.jpg,stim_03/a.jpg,stim_03/b.jpg,2,1,j,1,10,70,15,j,1,0.733139272637,03,03,60.0173122923,PLT_learning_3,B,2014_Jan_31_1408,P01,
stim_fb/ques.jpg,stim_fb/negf.jpg,stim_fb/posf.jpg,stim_03/d.jpg,stim_03/c.jpg,1,2,f,1,11,71,20,f,1,0.666550335712,03,03,60.0173122923,PLT_learning_3,B,2014_Jan_31_1408,P01,
stim_fb/ques.jpg,stim_fb/negf.jpg,stim_fb/posf.jpg,stim_03/c.jpg,stim_03/d.jpg,2,2,j,1,12,72,32,j,1,0.699830816309,03,03,60.0173122923,PLT_learning_3,B,2014_Jan_31_1408,P01,
stim_fb/ques.jpg,stim_fb/negf.jpg,stim_fb/posf.jpg,stim_03/b.jpg,stim_03/a.jpg,1,1,f,1,13,73,4,f,1,0.649811932241,03,03,60.0173122923,PLT_learning_3,B,2014_Jan_31_1408,P01,
stim_fb/ques.jpg,stim_fb/negf.jpg,stim_fb/posf.jpg,stim_03/e.jpg,stim_03/f.jpg,2,3,j,1,14,74,54,j,1,0.799818620912,03,03,60.0173122923,PLT_learning_3,B,2014_Jan_31_1408,P01,
stim_fb/ques.jpg,stim_fb/negf.jpg,stim_fb/posf.jpg,stim_03/b.jpg,stim_03/a.jpg,1,1,f,1,15,75,6,f,1,1.01637526635,03,03,60.0173122923,PLT_learning_3,B,2014_Jan_31_1408,P01,
stim_fb/ques.jpg,stim_fb/negf.jpg,stim_fb/posf.jpg,stim_03/f.jpg,stim_03/e.jpg,1,3,f,1,16,76,44,f,1,1.31630662025,03,03,60.0173122923,PLT_learning_3,B,2014_Jan_31_1408,P01,
stim_fb/ques.jpg,stim_fb/negf.jpg,stim_fb/posf.jpg,stim_03/a.jpg,stim_03/b.jpg,2,1,j,1,17,77,13,j,1,0.716480456538,03,03,60.0173122923,PLT_learning_3,B,2014_Jan_31_1408,P01,
stim_fb/ques.jpg,stim_fb/posf.jpg,stim_fb/negf.jpg,stim_03/a.jpg,stim_03/b.jpg,2,1,j,1,18,78,18,j,1,0.633183281329,03,03,60.0173122923,PLT_learning_3,B,2014_Jan_31_1408,P01,
stim_fb/ques.jpg,stim_fb/negf.jpg,stim_fb/posf.jpg,stim_03/b.jpg,stim_03/a.jpg,1,1,f,1,19,79,7,f,1,0.649829032864,03,03,60.0173122923,PLT_learning_3,B,2014_Jan_31_1408,P01,
stim_fb/ques.jpg,stim_fb/negf.jpg,stim_fb/posf.jpg,stim_03/d.jpg,stim_03/c.jpg,1,2,f,1,20,80,22,f,1,0.733148893617,03,03,60.0173122923,PLT_learning_3,B,2014_Jan_31_1408,P01,
stim_fb/ques.jpg,stim_fb/negf.jpg,stim_fb/posf.jpg,stim_03/a.jpg,stim_03/b.jpg,2,1,j,1,21,81,12,j,1,0.7498287261,03,03,60.0173122923,PLT_learning_3,B,2014_Jan_31_1408,P01,
stim_fb/ques.jpg,stim_fb/negf.jpg,stim_fb/posf.jpg,stim_03/a.jpg,stim_03/b.jpg,2,1,j,1,22,82,17,j,1,0.999714922444,03,03,60.0173122923,PLT_learning_3,B,2014_Jan_31_1408,P01,
stim_fb/ques.jpg,stim_fb/negf.jpg,stim_fb/posf.jpg,stim_03/b.jpg,stim_03/a.jpg,1,1,f,1,23,83,3,f,1,1.03300185713,03,03,60.0173122923,PLT_learning_3,B,2014_Jan_31_1408,P01,
stim_fb/ques.jpg,stim_fb/posf.jpg,stim_fb/negf.jpg,stim_03/c.jpg,stim_03/d.jpg,2,2,j,1,24,84,39,j,1,0.949741436531,03,03,60.0173122923,PLT_learning_3,B,2014_Jan_31_1408,P01,
stim_fb/ques.jpg,stim_fb/posf.jpg,stim_fb/negf.jpg,stim_03/f.jpg,stim_03/e.jpg,1,3,f,1,25,85,48,f,1,1.16633113736,03,03,60.0173122923,PLT_learning_3,B,2014_Jan_31_1408,P01,
stim_fb/ques.jpg,stim_fb/posf.jpg,stim_fb/negf.jpg,stim_03/f.jpg,stim_03/e.jpg,1,3,f,1,26,86,49,f,1,1.13298374599,03,03,60.0173122923,PLT_learning_3,B,2014_Jan_31_1408,P01,
stim_fb/ques.jpg,stim_fb/negf.jpg,stim_fb/posf.jpg,stim_03/f.jpg,stim_03/e.jpg,1,3,f,1,27,87,43,f,1,0.66649677822,03,03,60.0173122923,PLT_learning_3,B,2014_Jan_31_1408,P01,
stim_fb/ques.jpg,stim_fb/negf.jpg,stim_fb/posf.jpg,stim_03/b.jpg,stim_03/a.jpg,1,1,f,1,28,88,5,f,1,0.783122280284,03,03,60.0173122923,PLT_learning_3,B,2014_Jan_31_1408,P01,
stim_fb/ques.jpg,stim_fb/posf.jpg,stim_fb/negf.jpg,stim_03/d.jpg,stim_03/c.jpg,1,2,f,1,29,89,28,f,1,1.11633054188,03,03,60.0173122923,PLT_learning_3,B,2014_Jan_31_1408,P01,
stim_fb/ques.jpg,stim_fb/negf.jpg,stim_fb/posf.jpg,stim_03/a.jpg,stim_03/b.jpg,2,1,j,1,30,90,14,j,1,1.13300476538,03,03,60.0173122923,PLT_learning_3,B,2014_Jan_31_1408,P01,
stim_fb/ques.jpg,stim_fb/negf.jpg,stim_fb/posf.jpg,stim_03/e.jpg,stim_03/f.jpg,2,3,j,1,31,91,52,j,1,0.783098827828,03,03,60.0173122923,PLT_learning_3,B,2014_Jan_31_1408,P01,
stim_fb/ques.jpg,stim_fb/posf.jpg,stim_fb/negf.jpg,stim_03/b.jpg,stim_03/a.jpg,1,1,f,1,32,92,8,f,1,0.849756338674,03,03,60.0173122923,PLT_learning_3,B,2014_Jan_31_1408,P01,
stim_fb/ques.jpg,stim_fb/negf.jpg,stim_fb/posf.jpg,stim_03/e.jpg,stim_03/f.jpg,2,3,j,1,33,93,51,j,1,1.16634399741,03,03,60.0173122923,PLT_learning_3,B,2014_Jan_31_1408,P01,
stim_fb/ques.jpg,stim_fb/negf.jpg,stim_fb/posf.jpg,stim_03/b.jpg,stim_03/a.jpg,1,1,f,1,34,94,1,f,1,0.899798001519,03,03,60.0173122923,PLT_learning_3,B,2014_Jan_31_1408,P01,
stim_fb/ques.jpg,stim_fb/negf.jpg,stim_fb/posf.jpg,stim_03/f.jpg,stim_03/e.jpg,1,3,f,1,35,95,42,f,1,1.2829526966,03,03,60.0173122923,PLT_learning_3,B,2014_Jan_31_1408,P01,
stim_fb/ques.jpg,stim_fb/negf.jpg,stim_fb/posf.jpg,stim_03/b.jpg,stim_03/a.jpg,1,1,f,1,36,96,2,f,1,1.39958929933,03,03,60.0173122923,PLT_learning_3,B,2014_Jan_31_1408,P01,
stim_fb/ques.jpg,stim_fb/negf.jpg,stim_fb/posf.jpg,stim_03/d.jpg,stim_03/c.jpg,1,2,f,1,37,97,24,f,1,0.733147853024,03,03,60.0173122923,PLT_learning_3,B,2014_Jan_31_1408,P01,
stim_fb/ques.jpg,stim_fb/posf.jpg,stim_fb/negf.jpg,stim_03/f.jpg,stim_03/e.jpg,1,3,f,1,38,98,47,f,1,1.11634943497,03,03,60.0173122923,PLT_learning_3,B,2014_Jan_31_1408,P01,
stim_fb/ques.jpg,stim_fb/negf.jpg,stim_fb/posf.jpg,stim_03/f.jpg,stim_03/e.jpg,1,3,f,1,39,99,41,f,1,0.599853968015,03,03,60.0173122923,PLT_learning_3,B,2014_Jan_31_1408,P01,
stim_fb/ques.jpg,stim_fb/negf.jpg,stim_fb/posf.jpg,stim_03/a.jpg,stim_03/b.jpg,2,1,j,1,40,100,11,j,1,1.36629068353,03,03,60.0173122923,PLT_learning_3,B,2014_Jan_31_1408,P01,
stim_fb/ques.jpg,stim_fb/posf.jpg,stim_fb/negf.jpg,stim_03/c.jpg,stim_03/d.jpg,2,2,j,1,41,101,38,j,1,0.88309002188,03,03,60.0173122923,PLT_learning_3,B,2014_Jan_31_1408,P01,
stim_fb/ques.jpg,stim_fb/negf.jpg,stim_fb/posf.jpg,stim_03/d.jpg,stim_03/c.jpg,1,2,f,1,42,102,25,f,1,0.633243620725,03,03,60.0173122923,PLT_learning_3,B,2014_Jan_31_1408,P01,
stim_fb/ques.jpg,stim_fb/negf.jpg,stim_fb/posf.jpg,stim_03/e.jpg,stim_03/f.jpg,2,3,j,1,43,103,50,j,1,0.7497710333,03,03,60.0173122923,PLT_learning_3,B,2014_Jan_31_1408,P01,
stim_fb/ques.jpg,stim_fb/negf.jpg,stim_fb/posf.jpg,stim_03/c.jpg,stim_03/d.jpg,2,2,j,1,44,104,36,j,1,1.26626386268,03,03,60.0173122923,PLT_learning_3,B,2014_Jan_31_1408,P01,
stim_fb/ques.jpg,stim_fb/negf.jpg,stim_fb/posf.jpg,stim_03/a.jpg,stim_03/b.jpg,2,1,j,1,45,105,16,j,1,1.24963172307,03,03,60.0173122923,PLT_learning_3,B,2014_Jan_31_1408,P01,
stim_fb/ques.jpg,stim_fb/negf.jpg,stim_fb/posf.jpg,stim_03/c.jpg,stim_03/d.jpg,2,2,j,1,46,106,34,j,1,0.799735072669,03,03,60.0173122923,PLT_learning_3,B,2014_Jan_31_1408,P01,
stim_fb/ques.jpg,stim_fb/negf.jpg,stim_fb/posf.jpg,stim_03/c.jpg,stim_03/d.jpg,2,2,j,1,47,107,31,j,1,0.766466089729,03,03,60.0173122923,PLT_learning_3,B,2014_Jan_31_1408,P01,
stim_fb/ques.jpg,stim_fb/negf.jpg,stim_fb/posf.jpg,stim_03/b.jpg,stim_03/a.jpg,1,1,f,1,48,108,0,f,1,1.28295412516,03,03,60.0173122923,PLT_learning_3,B,2014_Jan_31_1408,P01,
stim_fb/ques.jpg,stim_fb/posf.jpg,stim_fb/negf.jpg,stim_03/d.jpg,stim_03/c.jpg,1,2,f,1,49,109,27,f,1,0.949758985271,03,03,60.0173122923,PLT_learning_3,B,2014_Jan_31_1408,P01,
stim_fb/ques.jpg,stim_fb/posf.jpg,stim_fb/negf.jpg,stim_03/a.jpg,stim_03/b.jpg,2,1,j,1,50,110,19,j,1,0.833112223216,03,03,60.0173122923,PLT_learning_3,B,2014_Jan_31_1408,P01,
stim_fb/ques.jpg,stim_fb/negf.jpg,stim_fb/posf.jpg,stim_03/e.jpg,stim_03/f.jpg,2,3,j,1,51,111,55,j,1,1.29962058932,03,03,60.0173122923,PLT_learning_3,B,2014_Jan_31_1408,P01,
stim_fb/ques.jpg,stim_fb/negf.jpg,stim_fb/posf.jpg,stim_03/f.jpg,stim_03/e.jpg,1,3,f,1,52,112,40,None,0,,03,03,60.0173122923,PLT_learning_3,B,2014_Jan_31_1408,P01,
stim_fb/ques.jpg,stim_fb/negf.jpg,stim_fb/posf.jpg,stim_03/c.jpg,stim_03/d.jpg,2,2,j,1,53,113,30,j,1,0.799824843422,03,03,60.0173122923,PLT_learning_3,B,2014_Jan_31_1408,P01,
stim_fb/ques.jpg,stim_fb/posf.jpg,stim_fb/negf.jpg,stim_03/c.jpg,stim_03/d.jpg,2,2,j,1,54,114,37,j,1,0.849727710318,03,03,60.0173122923,PLT_learning_3,B,2014_Jan_31_1408,P01,
stim_fb/ques.jpg,stim_fb/posf.jpg,stim_fb/negf.jpg,stim_03/f.jpg,stim_03/e.jpg,1,3,f,1,55,115,46,f,1,1.21632520056,03,03,60.0173122923,PLT_learning_3,B,2014_Jan_31_1408,P01,
stim_fb/ques.jpg,stim_fb/negf.jpg,stim_fb/posf.jpg,stim_03/e.jpg,stim_03/f.jpg,2,3,j,1,56,116,53,j,1,1.11634935978,03,03,60.0173122923,PLT_learning_3,B,2014_Jan_31_1408,P01,
stim_fb/ques.jpg,stim_fb/negf.jpg,stim_fb/posf.jpg,stim_03/d.jpg,stim_03/c.jpg,1,2,f,1,57,117,26,f,1,0.583182749002,03,03,60.0173122923,PLT_learning_3,B,2014_Jan_31_1408,P01,
stim_fb/ques.jpg,stim_fb/posf.jpg,stim_fb/negf.jpg,stim_03/d.jpg,stim_03/c.jpg,1,2,f,1,58,118,29,f,1,0.999740982399,03,03,60.0173122923,PLT_learning_3,B,2014_Jan_31_1408,P01,
stim_fb/ques.jpg,stim_fb/negf.jpg,stim_fb/posf.jpg,stim_03/d.jpg,stim_03/c.jpg,1,2,f,1,59,119,23,f,1,0.549859522861,03,03,60.0173122923,PLT_learning_3,B,2014_Jan_31_1408,P01,
stim_fb/ques.jpg,stim_fb/posf.jpg,stim_fb/negf.jpg,stim_03/e.jpg,stim_03/f.jpg,2,3,j,2,0,120,58,j,1,0.833105339058,03,03,60.0173122923,PLT_learning_3,B,2014_Jan_31_1408,P01,
stim_fb/ques.jpg,stim_fb/negf.jpg,stim_fb/posf.jpg,stim_03/b.jpg,stim_03/a.jpg,1,1,f,2,1,121,6,j,0,0.733146647018,03,03,60.0173122923,PLT_learning_3,B,2014_Jan_31_1408,P01,
stim_fb/ques.jpg,stim_fb/negf.jpg,stim_fb/posf.jpg,stim_03/c.jpg,stim_03/d.jpg,2,2,j,2,2,122,33,j,1,0.683162304043,03,03,60.0173122923,PLT_learning_3,B,2014_Jan_31_1408,P01,
stim_fb/ques.jpg,stim_fb/negf.jpg,stim_fb/posf.jpg,stim_03/a.jpg,stim_03/b.jpg,2,1,j,2,3,123,11,j,1,0.666514164555,03,03,60.0173122923,PLT_learning_3,B,2014_Jan_31_1408,P01,
stim_fb/ques.jpg,stim_fb/negf.jpg,stim_fb/posf.jpg,stim_03/e.jpg,stim_03/f.jpg,2,3,j,2,4,124,55,j,1,0.999728642642,03,03,60.0173122923,PLT_learning_3,B,2014_Jan_31_1408,P01,
stim_fb/ques.jpg,stim_fb/negf.jpg,stim_fb/posf.jpg,stim_03/e.jpg,stim_03/f.jpg,2,3,j,2,5,125,53,j,1,1.04970637815,03,03,60.0173122923,PLT_learning_3,B,2014_Jan_31_1408,P01,
stim_fb/ques.jpg,stim_fb/negf.jpg,stim_fb/posf.jpg,stim_03/f.jpg,stim_03/e.jpg,1,3,f,2,6,126,41,j,0,1.23295812813,03,03,60.0173122923,PLT_learning_3,B,2014_Jan_31_1408,P01,
stim_fb/ques.jpg,stim_fb/negf.jpg,stim_fb/posf.jpg,stim_03/a.jpg,stim_03/b.jpg,2,1,j,2,7,127,17,j,1,0.766457746934,03,03,60.0173122923,PLT_learning_3,B,2014_Jan_31_1408,P01,
stim_fb/ques.jpg,stim_fb/negf.jpg,stim_fb/posf.jpg,stim_03/e.jpg,stim_03/f.jpg,2,3,j,2,8,128,50,j,1,1.04955583793,03,03,60.0173122923,PLT_learning_3,B,2014_Jan_31_1408,P01,
stim_fb/ques.jpg,stim_fb/negf.jpg,stim_fb/posf.jpg,stim_03/e.jpg,stim_03/f.jpg,2,3,j,2,9,129,51,j,1,1.0496636717,03,03,60.0173122923,PLT_learning_3,B,2014_Jan_31_1408,P01,
stim_fb/ques.jpg,stim_fb/negf.jpg,stim_fb/posf.jpg,stim_03/a.jpg,stim_03/b.jpg,2,1,j,2,10,130,15,j,1,0.766646446267,03,03,60.0173122923,PLT_learning_3,B,2014_Jan_31_1408,P01,
stim_fb/ques.jpg,stim_fb/negf.jpg,stim_fb/posf.jpg,stim_03/d.jpg,stim_03/c.jpg,1,2,f,2,11,131,24,f,1,0.866440231277,03,03,60.0173122923,PLT_learning_3,B,2014_Jan_31_1408,P01,
stim_fb/ques.jpg,stim_fb/negf.jpg,stim_fb/posf.jpg,stim_03/f.jpg,stim_03/e.jpg,1,3,f,2,12,132,45,f,1,1.44957753701,03,03,60.0173122923,PLT_learning_3,B,2014_Jan_31_1408,P01,
stim_fb/ques.jpg,stim_fb/negf.jpg,stim_fb/posf.jpg,stim_03/b.jpg,stim_03/a.jpg,1,1,f,2,13,133,1,f,1,1.06635435824,03,03,60.0173122923,PLT_learning_3,B,2014_Jan_31_1408,P01,
stim_fb/ques.jpg,stim_fb/negf.jpg,stim_fb/posf.jpg,stim_03/b.jpg,stim_03/a.jpg,1,1,f,2,14,134,4,f,1,0.999718281817,03,03,60.0173122923,PLT_learning_3,B,2014_Jan_31_1408,P01,
stim_fb/ques.jpg,stim_fb/posf.jpg,stim_fb/negf.jpg,stim_03/e.jpg,stim_03/f.jpg,2,3,j,2,15,135,57,j,1,1.01641670063,03,03,60.0173122923,PLT_learning_3,B,2014_Jan_31_1408,P01,
stim_fb/ques.jpg,stim_fb/negf.jpg,stim_fb/posf.jpg,stim_03/d.jpg,stim_03/c.jpg,1,2,f,2,16,136,22,f,1,0.816443220728,03,03,60.0173122923,PLT_learning_3,B,2014_Jan_31_1408,P01,
stim_fb/ques.jpg,stim_fb/posf.jpg,stim_fb/negf.jpg,stim_03/f.jpg,stim_03/e.jpg,1,3,f,2,17,137,49,f,1,1.48292466974,03,03,60.0173122923,PLT_learning_3,B,2014_Jan_31_1408,P01,
stim_fb/ques.jpg,stim_fb/negf.jpg,stim_fb/posf.jpg,stim_03/f.jpg,stim_03/e.jpg,1,3,f,2,18,138,42,f,1,1.0663684243,03,03,60.0173122923,PLT_learning_3,B,2014_Jan_31_1408,P01,
stim_fb/ques.jpg,stim_fb/negf.jpg,stim_fb/posf.jpg,stim_03/d.jpg,stim_03/c.jpg,1,2,f,2,19,139,21,f,1,0.716504278915,03,03,60.0173122923,PLT_learning_3,B,2014_Jan_31_1408,P01,
stim_fb/ques.jpg,stim_fb/posf.jpg,stim_fb/negf.jpg,stim_03/b.jpg,stim_03/a.jpg,1,1,f,2,20,140,9,f,1,0.766468164901,03,03,60.0173122923,PLT_learning_3,B,2014_Jan_31_1408,P01,
stim_fb/ques.jpg,stim_fb/negf.jpg,stim_fb/posf.jpg,stim_03/a.jpg,stim_03/b.jpg,2,1,j,2,21,141,12,j,1,0.666482525695,03,03,60.0173122923,PLT_learning_3,B,2014_Jan_31_1408,P01,
stim_fb/ques.jpg,stim_fb/negf.jpg,stim_fb/posf.jpg,stim_03/c.jpg,stim_03/d.jpg,2,2,j,2,22,142,31,j,1,0.616489918121,03,03,60.0173122923,PLT_learning_3,B,2014_Jan_31_1408,P01,
stim_fb/ques.jpg,stim_fb/negf.jpg,stim_fb/posf.jpg,stim_03/a.jpg,stim_03/b.jpg,2,1,j,2,23,143,13,j,1,0.683156271006,03,03,60.0173122923,PLT_learning_3,B,2014_Jan_31_1408,P01,
stim_fb/ques.jpg,stim_fb/negf.jpg,stim_fb/posf.jpg,stim_03/e.jpg,stim_03/f.jpg,2,3,j,2,24,144,54,f,0,1.01638078811,03,03,60.0173122923,PLT_learning_3,B,2014_Jan_31_1408,P01,
stim_fb/ques.jpg,stim_fb/posf.jpg,stim_fb/negf.jpg,stim_03/f.jpg,stim_03/e.jpg,1,3,f,2,25,145,48,j,0,0.649807920241,03,03,60.0173122923,PLT_learning_3,B,2014_Jan_31_1408,P01,
stim_fb/ques.jpg,stim_fb/posf.jpg,stim_fb/negf.jpg,stim_03/d.jpg,stim_03/c.jpg,1,2,f,2,26,146,28,f,1,0.683160340148,03,03,60.0173122923,PLT_learning_3,B,2014_Jan_31_1408,P01,
stim_fb/ques.jpg,stim_fb/negf.jpg,stim_fb/posf.jpg,stim_03/c.jpg,stim_03/d.jpg,2,2,j,2,27,147,35,j,1,0.766473788919,03,03,60.0173122923,PLT_learning_3,B,2014_Jan_31_1408,P01,
stim_fb/ques.jpg,stim_fb/negf.jpg,stim_fb/posf.jpg,stim_03/b.jpg,stim_03/a.jpg,1,1,f,2,28,148,2,f,1,0.899789373012,03,03,60.0173122923,PLT_learning_3,B,2014_Jan_31_1408,P01,
stim_fb/ques.jpg,stim_fb/negf.jpg,stim_fb/posf.jpg,stim_03/d.jpg,stim_03/c.jpg,1,2,f,2,29,149,20,f,1,0.899748612416,03,03,60.0173122923,PLT_learning_3,B,2014_Jan_31_1408,P01,
stim_fb/ques.jpg,stim_fb/posf.jpg,stim_fb/negf.jpg,stim_03/f.jpg,stim_03/e.jpg,1,3,f,2,30,150,46,f,1,0.999713560048,03,03,60.0173122923,PLT_learning_3,B,2014_Jan_31_1408,P01,
stim_fb/ques.jpg,stim_fb/negf.jpg,stim_fb/posf.jpg,stim_03/a.jpg,stim_03/b.jpg,2,1,j,2,31,151,14,j,1,0.849794221096,03,03,60.0173122923,PLT_learning_3,B,2014_Jan_31_1408,P01,
stim_fb/ques.jpg,stim_fb/negf.jpg,stim_fb/posf.jpg,stim_03/c.jpg,stim_03/d.jpg,2,2,j,2,32,152,34,j,1,0.933078785874,03,03,60.0173122923,PLT_learning_3,B,2014_Jan_31_1408,P01,
stim_fb/ques.jpg,stim_fb/negf.jpg,stim_fb/posf.jpg,stim_03/f.jpg,stim_03/e.jpg,1,3,f,2,33,153,40,f,1,1.1330613033,03,03,60.0173122923,PLT_learning_3,B,2014_Jan_31_1408,P01,
stim_fb/ques.jpg,stim_fb/posf.jpg,stim_fb/negf.jpg,stim_03/d.jpg,stim_03/c.jpg,1,2,f,2,34,154,29,f,1,1.21632271036,03,03,60.0173122923,PLT_learning_3,B,2014_Jan_31_1408,P01,
stim_fb/ques.jpg,stim_fb/negf.jpg,stim_fb/posf.jpg,stim_03/a.jpg,stim_03/b.jpg,2,1,j,2,35,155,16,j,1,0.816431404275,03,03,60.0173122923,PLT_learning_3,B,2014_Jan_31_1408,P01,
stim_fb/ques.jpg,stim_fb/negf.jpg,stim_fb/posf.jpg,stim_03/d.jpg,stim_03/c.jpg,1,2,f,2,36,156,25,f,1,1.31628366403,03,03,60.0173122923,PLT_learning_3,B,2014_Jan_31_1408,P01,
stim_fb/ques.jpg,stim_fb/posf.jpg,stim_fb/negf.jpg,stim_03/a.jpg,stim_03/b.jpg,2,1,j,2,37,157,19,j,1,0.799842389155,03,03,60.0173122923,PLT_learning_3,B,2014_Jan_31_1408,P01,
stim_fb/ques.jpg,stim_fb/posf.jpg,stim_fb/negf.jpg,stim_03/c.jpg,stim_03/d.jpg,2,2,j,2,38,158,39,j,1,0.949737057616,03,03,60.0173122923,PLT_learning_3,B,2014_Jan_31_1408,P01,
stim_fb/ques.jpg,stim_fb/posf.jpg,stim_fb/negf.jpg,stim_03/d.jpg,stim_03/c.jpg,1,2,f,2,39,159,27,f,1,0.683178111443,03,03,60.0173122923,PLT_learning_3,B,2014_Jan_31_1408,P01,
stim_fb/ques.jpg,stim_fb/posf.jpg,stim_fb/negf.jpg,stim_03/a.jpg,stim_03/b.jpg,2,1,j,2,40,160,18,j,1,0.666500567665,03,03,60.0173122923,PLT_learning_3,B,2014_Jan_31_1408,P01,
stim_fb/ques.jpg,stim_fb/posf.jpg,stim_fb/negf.jpg,stim_03/c.jpg,stim_03/d.jpg,2,2,j,2,41,161,37,j,1,0.666475837024,03,03,60.0173122923,PLT_learning_3,B,2014_Jan_31_1408,P01,
stim_fb/ques.jpg,stim_fb/negf.jpg,stim_fb/posf.jpg,stim_03/f.jpg,stim_03/e.jpg,1,3,f,2,42,162,44,f,1,0.916379597146,03,03,60.0173122923,PLT_learning_3,B,2014_Jan_31_1408,P01,
stim_fb/ques.jpg,stim_fb/negf.jpg,stim_fb/posf.jpg,stim_03/b.jpg,stim_03/a.jpg,1,1,f,2,43,163,0,f,1,0.916414541244,03,03,60.0173122923,PLT_learning_3,B,2014_Jan_31_1408,P01,
stim_fb/ques.jpg,stim_fb/posf.jpg,stim_fb/negf.jpg,stim_03/c.jpg,stim_03/d.jpg,2,2,j,2,44,164,38,j,1,0.883074701694,03,03,60.0173122923,PLT_learning_3,B,2014_Jan_31_1408,P01,
stim_fb/ques.jpg,stim_fb/posf.jpg,stim_fb/negf.jpg,stim_03/f.jpg,stim_03/e.jpg,1,3,f,2,45,165,47,f,1,0.833072058105,03,03,60.0173122923,PLT_learning_3,B,2014_Jan_31_1408,P01,
stim_fb/ques.jpg,stim_fb/posf.jpg,stim_fb/negf.jpg,stim_03/b.jpg,stim_03/a.jpg,1,1,f,2,46,166,8,f,1,0.583205413493,03,03,60.0173122923,PLT_learning_3,B,2014_Jan_31_1408,P01,
stim_fb/ques.jpg,stim_fb/negf.jpg,stim_fb/posf.jpg,stim_03/b.jpg,stim_03/a.jpg,1,1,f,2,47,167,3,f,1,0.56653951474,03,03,60.0173122923,PLT_learning_3,B,2014_Jan_31_1408,P01,
stim_fb/ques.jpg,stim_fb/negf.jpg,stim_fb/posf.jpg,stim_03/e.jpg,stim_03/f.jpg,2,3,j,2,48,168,52,j,1,0.949771126533,03,03,60.0173122923,PLT_learning_3,B,2014_Jan_31_1408,P01,
stim_fb/ques.jpg,stim_fb/negf.jpg,stim_fb/posf.jpg,stim_03/d.jpg,stim_03/c.jpg,1,2,f,2,49,169,26,f,1,0.633166358148,03,03,60.0173122923,PLT_learning_3,B,2014_Jan_31_1408,P01,
stim_fb/ques.jpg,stim_fb/negf.jpg,stim_fb/posf.jpg,stim_03/d.jpg,stim_03/c.jpg,1,2,f,2,50,170,23,f,1,0.633181961038,03,03,60.0173122923,PLT_learning_3,B,2014_Jan_31_1408,P01,
stim_fb/ques.jpg,stim_fb/negf.jpg,stim_fb/posf.jpg,stim_03/a.jpg,stim_03/b.jpg,2,1,j,2,51,171,10,j,1,0.866439383163,03,03,60.0173122923,PLT_learning_3,B,2014_Jan_31_1408,P01,
stim_fb/ques.jpg,stim_fb/negf.jpg,stim_fb/posf.jpg,stim_03/f.jpg,stim_03/e.jpg,1,3,f,2,52,172,43,f,1,1.24956436117,03,03,60.0173122923,PLT_learning_3,B,2014_Jan_31_1408,P01,
stim_fb/ques.jpg,stim_fb/negf.jpg,stim_fb/posf.jpg,stim_03/c.jpg,stim_03/d.jpg,2,2,j,2,53,173,36,j,1,1.0497280231,03,03,60.0173122923,PLT_learning_3,B,2014_Jan_31_1408,P01,
stim_fb/ques.jpg,stim_fb/negf.jpg,stim_fb/posf.jpg,stim_03/c.jpg,stim_03/d.jpg,2,2,j,2,54,174,32,j,1,1.01638998805,03,03,60.0173122923,PLT_learning_3,B,2014_Jan_31_1408,P01,
stim_fb/ques.jpg,stim_fb/negf.jpg,stim_fb/posf.jpg,stim_03/b.jpg,stim_03/a.jpg,1,1,f,2,55,175,5,f,1,1.08301835325,03,03,60.0173122923,PLT_learning_3,B,2014_Jan_31_1408,P01,
stim_fb/ques.jpg,stim_fb/negf.jpg,stim_fb/posf.jpg,stim_03/b.jpg,stim_03/a.jpg,1,1,f,2,56,176,7,f,1,1.01636710701,03,03,60.0173122923,PLT_learning_3,B,2014_Jan_31_1408,P01,
stim_fb/ques.jpg,stim_fb/negf.jpg,stim_fb/posf.jpg,stim_03/c.jpg,stim_03/d.jpg,2,2,j,2,57,177,30,j,1,1.16634267412,03,03,60.0173122923,PLT_learning_3,B,2014_Jan_31_1408,P01,
stim_fb/ques.jpg,stim_fb/posf.jpg,stim_fb/negf.jpg,stim_03/e.jpg,stim_03/f.jpg,2,3,j,2,58,178,56,j,1,1.3829356862,03,03,60.0173122923,PLT_learning_3,B,2014_Jan_31_1408,P01,
stim_fb/ques.jpg,stim_fb/posf.jpg,stim_fb/negf.jpg,stim_03/e.jpg,stim_03/f.jpg,2,3,j,2,59,179,59,j,1,1.13303216668,03,03,60.0173122923,PLT_learning_3,B,2014_Jan_31_1408,P01,
stim_fb/ques.jpg,stim_fb/posf.jpg,stim_fb/negf.jpg,stim_03/c.jpg,stim_03/d.jpg,2,2,j,3,0,180,37,j,1,0.933072746821,03,03,60.0173122923,PLT_learning_3,B,2014_Jan_31_1408,P01,
stim_fb/ques.jpg,stim_fb/negf.jpg,stim_fb/posf.jpg,stim_03/a.jpg,stim_03/b.jpg,2,1,j,3,1,181,12,j,1,1.04970774054,03,03,60.0173122923,PLT_learning_3,B,2014_Jan_31_1408,P01,
stim_fb/ques.jpg,stim_fb/posf.jpg,stim_fb/negf.jpg,stim_03/e.jpg,stim_03/f.jpg,2,3,j,3,2,182,58,j,1,1.13304111999,03,03,60.0173122923,PLT_learning_3,B,2014_Jan_31_1408,P01,
stim_fb/ques.jpg,stim_fb/posf.jpg,stim_fb/negf.jpg,stim_03/b.jpg,stim_03/a.jpg,1,1,f,3,3,183,9,f,1,0.616519674288,03,03,60.0173122923,PLT_learning_3,B,2014_Jan_31_1408,P01,
stim_fb/ques.jpg,stim_fb/posf.jpg,stim_fb/negf.jpg,stim_03/d.jpg,stim_03/c.jpg,1,2,f,3,4,184,28,f,1,0.533199509778,03,03,60.0173122923,PLT_learning_3,B,2014_Jan_31_1408,P01,
stim_fb/ques.jpg,stim_fb/posf.jpg,stim_fb/negf.jpg,stim_03/d.jpg,stim_03/c.jpg,1,2,f,3,5,185,27,f,1,0.549836178675,03,03,60.0173122923,PLT_learning_3,B,2014_Jan_31_1408,P01,
stim_fb/ques.jpg,stim_fb/posf.jpg,stim_fb/negf.jpg,stim_03/e.jpg,stim_03/f.jpg,2,3,j,3,6,186,59,j,1,0.799806681153,03,03,60.0173122923,PLT_learning_3,B,2014_Jan_31_1408,P01,
stim_fb/ques.jpg,stim_fb/negf.jpg,stim_fb/posf.jpg,stim_03/c.jpg,stim_03/d.jpg,2,2,j,3,7,187,35,j,1,0.599870674657,03,03,60.0173122923,PLT_learning_3,B,2014_Jan_31_1408,P01,
stim_fb/ques.jpg,stim_fb/negf.jpg,stim_fb/posf.jpg,stim_03/e.jpg,stim_03/f.jpg,2,3,j,3,8,188,55,j,1,0.749786449726,03,03,60.0173122923,PLT_learning_3,B,2014_Jan_31_1408,P01,
stim_fb/ques.jpg,stim_fb/negf.jpg,stim_fb/posf.jpg,stim_03/a.jpg,stim_03/b.jpg,2,1,j,3,9,189,16,j,1,1.04971612244,03,03,60.0173122923,PLT_learning_3,B,2014_Jan_31_1408,P01,
stim_fb/ques.jpg,stim_fb/posf.jpg,stim_fb/negf.jpg,stim_03/c.jpg,stim_03/d.jpg,2,2,j,3,10,190,38,j,1,0.616491100067,03,03,60.0173122923,PLT_learning_3,B,2014_Jan_31_1408,P01,
stim_fb/ques.jpg,stim_fb/negf.jpg,stim_fb/posf.jpg,stim_03/b.jpg,stim_03/a.jpg,1,1,f,3,11,191,1,f,1,0.599910472853,03,03,60.0173122923,PLT_learning_3,B,2014_Jan_31_1408,P01,
stim_fb/ques.jpg,stim_fb/negf.jpg,stim_fb/posf.jpg,stim_03/b.jpg,stim_03/a.jpg,1,1,f,3,12,192,4,f,1,1.03306191081,03,03,60.0173122923,PLT_learning_3,B,2014_Jan_31_1408,P01,
stim_fb/ques.jpg,stim_fb/negf.jpg,stim_fb/posf.jpg,stim_03/a.jpg,stim_03/b.jpg,2,1,j,3,13,193,14,j,1,0.966415810407,03,03,60.0173122923,PLT_learning_3,B,2014_Jan_31_1408,P01,
stim_fb/ques.jpg,stim_fb/posf.jpg,stim_fb/negf.jpg,stim_03/f.jpg,stim_03/e.jpg,1,3,f,3,14,194,48,f,1,1.19968083247,03,03,60.0173122923,PLT_learning_3,B,2014_Jan_31_1408,P01,
stim_fb/ques.jpg,stim_fb/negf.jpg,stim_fb/posf.jpg,stim_03/e.jpg,stim_03/f.jpg,2,3,j,3,15,195,53,j,1,0.666502426298,03,03,60.0173122923,PLT_learning_3,B,2014_Jan_31_1408,P01,
stim_fb/ques.jpg,stim_fb/negf.jpg,stim_fb/posf.jpg,stim_03/f.jpg,stim_03/e.jpg,1,3,f,3,16,196,45,j,0,1.1996515545,03,03,60.0173122923,PLT_learning_3,B,2014_Jan_31_1408,P01,
stim_fb/ques.jpg,stim_fb/negf.jpg,stim_fb/posf.jpg,stim_03/a.jpg,stim_03/b.jpg,2,1,j,3,17,197,13,j,1,0.633161961188,03,03,60.0173122923,PLT_learning_3,B,2014_Jan_31_1408,P01,
stim_fb/ques.jpg,stim_fb/negf.jpg,stim_fb/posf.jpg,stim_03/a.jpg,stim_03/b.jpg,2,1,j,3,18,198,15,j,1,0.733153522154,03,03,60.0173122923,PLT_learning_3,B,2014_Jan_31_1408,P01,
stim_fb/ques.jpg,stim_fb/negf.jpg,stim_fb/posf.jpg,stim_03/f.jpg,stim_03/e.jpg,1,3,f,3,19,199,43,f,1,1.23299821204,03,03,60.0173122923,PLT_learning_3,B,2014_Jan_31_1408,P01,
stim_fb/ques.jpg,stim_fb/posf.jpg,stim_fb/negf.jpg,stim_03/b.jpg,stim_03/a.jpg,1,1,f,3,20,200,8,f,1,0.983055246201,03,03,60.0173122923,PLT_learning_3,B,2014_Jan_31_1408,P01,
stim_fb/ques.jpg,stim_fb/negf.jpg,stim_fb/posf.jpg,stim_03/d.jpg,stim_03/c.jpg,1,2,f,3,21,201,26,j,0,0.64983210051,03,03,60.0173122923,PLT_learning_3,B,2014_Jan_31_1408,P01,
stim_fb/ques.jpg,stim_fb/negf.jpg,stim_fb/posf.jpg,stim_03/c.jpg,stim_03/d.jpg,2,2,j,3,22,202,34,j,1,0.783101110518,03,03,60.0173122923,PLT_learning_3,B,2014_Jan_31_1408,P01,
stim_fb/ques.jpg,stim_fb/negf.jpg,stim_fb/posf.jpg,stim_03/d.jpg,stim_03/c.jpg,1,2,f,3,23,203,24,f,1,0.633186824159,03,03,60.0173122923,PLT_learning_3,B,2014_Jan_31_1408,P01,
stim_fb/ques.jpg,stim_fb/negf.jpg,stim_fb/posf.jpg,stim_03/b.jpg,stim_03/a.jpg,1,1,f,3,24,204,2,f,1,1.31629824137,03,03,60.0173122923,PLT_learning_3,B,2014_Jan_31_1408,P01,
stim_fb/ques.jpg,stim_fb/negf.jpg,stim_fb/posf.jpg,stim_03/d.jpg,stim_03/c.jpg,1,2,f,3,25,205,20,f,1,1.36627011827,03,03,60.0173122923,PLT_learning_3,B,2014_Jan_31_1408,P01,
stim_fb/ques.jpg,stim_fb/negf.jpg,stim_fb/posf.jpg,stim_03/d.jpg,stim_03/c.jpg,1,2,f,3,26,206,22,f,1,1.24965960857,03,03,60.0173122923,PLT_learning_3,B,2014_Jan_31_1408,P01,
stim_fb/ques.jpg,stim_fb/negf.jpg,stim_fb/posf.jpg,stim_03/b.jpg,stim_03/a.jpg,1,1,f,3,27,207,0,f,1,1.39967019797,03,03,60.0173122923,PLT_learning_3,B,2014_Jan_31_1408,P01,
stim_fb/ques.jpg,stim_fb/negf.jpg,stim_fb/posf.jpg,stim_03/a.jpg,stim_03/b.jpg,2,1,j,3,28,208,11,j,1,1.21632945316,03,03,60.0173122923,PLT_learning_3,B,2014_Jan_31_1408,P01,
stim_fb/ques.jpg,stim_fb/negf.jpg,stim_fb/posf.jpg,stim_03/b.jpg,stim_03/a.jpg,1,1,f,3,29,209,6,f,1,1.5328396779,03,03,60.0173122923,PLT_learning_3,B,2014_Jan_31_1408,P01,
stim_fb/ques.jpg,stim_fb/posf.jpg,stim_fb/negf.jpg,stim_03/e.jpg,stim_03/f.jpg,2,3,j,3,30,210,56,j,1,1.24963712754,03,03,60.0173122923,PLT_learning_3,B,2014_Jan_31_1408,P01,
stim_fb/ques.jpg,stim_fb/posf.jpg,stim_fb/negf.jpg,stim_03/a.jpg,stim_03/b.jpg,2,1,j,3,31,211,19,j,1,1.04972183668,03,03,60.0173122923,PLT_learning_3,B,2014_Jan_31_1408,P01,
stim_fb/ques.jpg,stim_fb/negf.jpg,stim_fb/posf.jpg,stim_03/d.jpg,stim_03/c.jpg,1,2,f,3,32,212,23,f,1,1.13302260284,03,03,60.0173122923,PLT_learning_3,B,2014_Jan_31_1408,P01,
stim_fb/ques.jpg,stim_fb/posf.jpg,stim_fb/negf.jpg,stim_03/a.jpg,stim_03/b.jpg,2,1,j,3,33,213,18,j,1,1.21631535101,03,03,60.0173122923,PLT_learning_3,B,2014_Jan_31_1408,P01,
stim_fb/ques.jpg,stim_fb/posf.jpg,stim_fb/negf.jpg,stim_03/e.jpg,stim_03/f.jpg,2,3,j,3,34,214,57,j,1,1.23296241682,03,03,60.0173122923,PLT_learning_3,B,2014_Jan_31_1408,P01,
stim_fb/ques.jpg,stim_fb/negf.jpg,stim_fb/posf.jpg,stim_03/a.jpg,stim_03/b.jpg,2,1,j,3,35,215,17,j,1,0.999717346486,03,03,60.0173122923,PLT_learning_3,B,2014_Jan_31_1408,P01,
stim_fb/ques.jpg,stim_fb/negf.jpg,stim_fb/posf.jpg,stim_03/e.jpg,stim_03/f.jpg,2,3,j,3,36,216,50,j,1,1.36627373328,03,03,60.0173122923,PLT_learning_3,B,2014_Jan_31_1408,P01,
stim_fb/ques.jpg,stim_fb/negf.jpg,stim_fb/posf.jpg,stim_03/b.jpg,stim_03/a.jpg,1,1,f,3,37,217,7,f,1,0.966387287314,03,03,60.0173122923,PLT_learning_3,B,2014_Jan_31_1408,P01,
stim_fb/ques.jpg,stim_fb/negf.jpg,stim_fb/posf.jpg,stim_03/c.jpg,stim_03/d.jpg,2,2,j,3,38,218,31,j,1,1.08302501184,03,03,60.0173122923,PLT_learning_3,B,2014_Jan_31_1408,P01,
stim_fb/ques.jpg,stim_fb/negf.jpg,stim_fb/posf.jpg,stim_03/f.jpg,stim_03/e.jpg,1,3,f,3,39,219,40,f,1,1.1829844738,03,03,60.0173122923,PLT_learning_3,B,2014_Jan_31_1408,P01,
stim_fb/ques.jpg,stim_fb/negf.jpg,stim_fb/posf.jpg,stim_03/d.jpg,stim_03/c.jpg,1,2,f,3,40,220,21,f,1,1.18299944211,03,03,60.0173122923,PLT_learning_3,B,2014_Jan_31_1408,P01,
stim_fb/ques.jpg,stim_fb/posf.jpg,stim_fb/negf.jpg,stim_03/f.jpg,stim_03/e.jpg,1,3,f,3,41,221,49,f,1,1.11637528139,03,03,60.0173122923,PLT_learning_3,B,2014_Jan_31_1408,P01,
stim_fb/ques.jpg,stim_fb/posf.jpg,stim_fb/negf.jpg,stim_03/f.jpg,stim_03/e.jpg,1,3,f,3,42,222,47,f,1,0.966413242006,03,03,60.0173122923,PLT_learning_3,B,2014_Jan_31_1408,P01,
stim_fb/ques.jpg,stim_fb/negf.jpg,stim_fb/posf.jpg,stim_03/e.jpg,stim_03/f.jpg,2,3,j,3,43,223,52,j,1,1.0497452771,03,03,60.0173122923,PLT_learning_3,B,2014_Jan_31_1408,P01,
stim_fb/ques.jpg,stim_fb/negf.jpg,stim_fb/posf.jpg,stim_03/f.jpg,stim_03/e.jpg,1,3,f,3,44,224,44,j,0,1.51622845843,03,03,60.0173122923,PLT_learning_3,B,2014_Jan_31_1408,P01,
stim_fb/ques.jpg,stim_fb/negf.jpg,stim_fb/posf.jpg,stim_03/f.jpg,stim_03/e.jpg,1,3,f,3,45,225,41,f,1,1.23302945391,03,03,60.0173122923,PLT_learning_3,B,2014_Jan_31_1408,P01,
stim_fb/ques.jpg,stim_fb/negf.jpg,stim_fb/posf.jpg,stim_03/a.jpg,stim_03/b.jpg,2,1,j,3,46,226,10,j,1,0.716496167698,03,03,60.0173122923,PLT_learning_3,B,2014_Jan_31_1408,P01,
stim_fb/ques.jpg,stim_fb/negf.jpg,stim_fb/posf.jpg,stim_03/d.jpg,stim_03/c.jpg,1,2,f,3,47,227,25,f,1,1.13303957113,03,03,60.0173122923,PLT_learning_3,B,2014_Jan_31_1408,P01,
stim_fb/ques.jpg,stim_fb/negf.jpg,stim_fb/posf.jpg,stim_03/b.jpg,stim_03/a.jpg,1,1,f,3,48,228,5,f,1,0.666517957008,03,03,60.0173122923,PLT_learning_3,B,2014_Jan_31_1408,P01,
stim_fb/ques.jpg,stim_fb/negf.jpg,stim_fb/posf.jpg,stim_03/c.jpg,stim_03/d.jpg,2,2,j,3,49,229,33,j,1,1.03302073518,03,03,60.0173122923,PLT_learning_3,B,2014_Jan_31_1408,P01,
stim_fb/ques.jpg,stim_fb/negf.jpg,stim_fb/posf.jpg,stim_03/c.jpg,stim_03/d.jpg,2,2,j,3,50,230,36,j,1,1.13300443155,03,03,60.0173122923,PLT_learning_3,B,2014_Jan_31_1408,P01,
stim_fb/ques.jpg,stim_fb/negf.jpg,stim_fb/posf.jpg,stim_03/c.jpg,stim_03/d.jpg,2,2,j,3,51,231,30,j,1,1.08301799535,03,03,60.0173122923,PLT_learning_3,B,2014_Jan_31_1408,P01,
stim_fb/ques.jpg,stim_fb/posf.jpg,stim_fb/negf.jpg,stim_03/c.jpg,stim_03/d.jpg,2,2,j,3,52,232,39,j,1,0.899811622469,03,03,60.0173122923,PLT_learning_3,B,2014_Jan_31_1408,P01,
stim_fb/ques.jpg,stim_fb/negf.jpg,stim_fb/posf.jpg,stim_03/e.jpg,stim_03/f.jpg,2,3,j,3,53,233,51,f,0,0.866347191375,03,03,60.0173122923,PLT_learning_3,B,2014_Jan_31_1408,P01,
stim_fb/ques.jpg,stim_fb/negf.jpg,stim_fb/posf.jpg,stim_03/e.jpg,stim_03/f.jpg,2,3,j,3,54,234,54,j,1,0.716493277494,03,03,60.0173122923,PLT_learning_3,B,2014_Jan_31_1408,P01,
stim_fb/ques.jpg,stim_fb/negf.jpg,stim_fb/posf.jpg,stim_03/f.jpg,stim_03/e.jpg,1,3,f,3,55,235,42,f,1,0.999733096744,03,03,60.0173122923,PLT_learning_3,B,2014_Jan_31_1408,P01,
stim_fb/ques.jpg,stim_fb/posf.jpg,stim_fb/negf.jpg,stim_03/f.jpg,stim_03/e.jpg,1,3,f,3,56,236,46,f,1,1.28296537019,03,03,60.0173122923,PLT_learning_3,B,2014_Jan_31_1408,P01,
stim_fb/ques.jpg,stim_fb/negf.jpg,stim_fb/posf.jpg,stim_03/b.jpg,stim_03/a.jpg,1,1,f,3,57,237,3,f,1,0.66651251344,03,03,60.0173122923,PLT_learning_3,B,2014_Jan_31_1408,P01,
stim_fb/ques.jpg,stim_fb/posf.jpg,stim_fb/negf.jpg,stim_03/d.jpg,stim_03/c.jpg,1,2,f,3,58,238,29,f,1,1.08305980857,03,03,60.0173122923,PLT_learning_3,B,2014_Jan_31_1408,P01,
stim_fb/ques.jpg,stim_fb/negf.jpg,stim_fb/posf.jpg,stim_03/c.jpg,stim_03/d.jpg,2,2,j,3,59,239,32,j,1,0.683149609401,03,03,60.0173122923,PLT_learning_3,B,2014_Jan_31_1408,P01,
stim_fb/ques.jpg,stim_fb/posf.jpg,stim_fb/negf.jpg,stim_03/f.jpg,stim_03/e.jpg,1,3,f,4,0,240,48,f,1,1.11634027714,03,03,60.0173122923,PLT_learning_3,B,2014_Jan_31_1408,P01,
stim_fb/ques.jpg,stim_fb/posf.jpg,stim_fb/negf.jpg,stim_03/c.jpg,stim_03/d.jpg,2,2,j,4,1,241,39,j,1,0.649840530522,03,03,60.0173122923,PLT_learning_3,B,2014_Jan_31_1408,P01,
stim_fb/ques.jpg,stim_fb/negf.jpg,stim_fb/posf.jpg,stim_03/f.jpg,stim_03/e.jpg,1,3,f,4,2,242,41,f,1,0.933087709115,03,03,60.0173122923,PLT_learning_3,B,2014_Jan_31_1408,P01,
stim_fb/ques.jpg,stim_fb/negf.jpg,stim_fb/posf.jpg,stim_03/d.jpg,stim_03/c.jpg,1,2,f,4,3,243,21,f,1,0.666522765994,03,03,60.0173122923,PLT_learning_3,B,2014_Jan_31_1408,P01,
stim_fb/ques.jpg,stim_fb/posf.jpg,stim_fb/negf.jpg,stim_03/e.jpg,stim_03/f.jpg,2,3,j,4,4,244,58,j,1,0.833128538883,03,03,60.0173122923,PLT_learning_3,B,2014_Jan_31_1408,P01,
stim_fb/ques.jpg,stim_fb/negf.jpg,stim_fb/posf.jpg,stim_03/b.jpg,stim_03/a.jpg,1,1,f,4,5,245,1,f,1,0.699800037593,03,03,60.0173122923,PLT_learning_3,B,2014_Jan_31_1408,P01,
stim_fb/ques.jpg,stim_fb/negf.jpg,stim_fb/posf.jpg,stim_03/f.jpg,stim_03/e.jpg,1,3,f,4,6,246,44,j,0,0.683168066405,03,03,60.0173122923,PLT_learning_3,B,2014_Jan_31_1408,P01,
stim_fb/ques.jpg,stim_fb/negf.jpg,stim_fb/posf.jpg,stim_03/d.jpg,stim_03/c.jpg,1,2,f,4,7,247,23,f,1,0.899756058977,03,03,60.0173122923,PLT_learning_3,B,2014_Jan_31_1408,P01,
stim_fb/ques.jpg,stim_fb/negf.jpg,stim_fb/posf.jpg,stim_03/b.jpg,stim_03/a.jpg,1,1,f,4,8,248,6,f,1,0.683164069443,03,03,60.0173122923,PLT_learning_3,B,2014_Jan_31_1408,P01,
stim_fb/ques.jpg,stim_fb/posf.jpg,stim_fb/negf.jpg,stim_03/a.jpg,stim_03/b.jpg,2,1,j,4,9,249,19,j,1,0.699817872046,03,03,60.0173122923,PLT_learning_3,B,2014_Jan_31_1408,P01,
stim_fb/ques.jpg,stim_fb/negf.jpg,stim_fb/posf.jpg,stim_03/a.jpg,stim_03/b.jpg,2,1,j,4,10,250,13,j,1,0.849753382305,03,03,60.0173122923,PLT_learning_3,B,2014_Jan_31_1408,P01,
stim_fb/ques.jpg,stim_fb/negf.jpg,stim_fb/posf.jpg,stim_03/c.jpg,stim_03/d.jpg,2,2,j,4,11,251,32,j,1,0.733153519147,03,03,60.0173122923,PLT_learning_3,B,2014_Jan_31_1408,P01,
stim_fb/ques.jpg,stim_fb/negf.jpg,stim_fb/posf.jpg,stim_03/a.jpg,stim_03/b.jpg,2,1,j,4,12,252,16,j,1,0.716465274697,03,03,60.0173122923,PLT_learning_3,B,2014_Jan_31_1408,P01,
stim_fb/ques.jpg,stim_fb/negf.jpg,stim_fb/posf.jpg,stim_03/f.jpg,stim_03/e.jpg,1,3,f,4,13,253,42,f,1,1.34961754874,03,03,60.0173122923,PLT_learning_3,B,2014_Jan_31_1408,P01,
stim_fb/ques.jpg,stim_fb/posf.jpg,stim_fb/negf.jpg,stim_03/e.jpg,stim_03/f.jpg,2,3,j,4,14,254,57,j,1,0.866446381606,03,03,60.0173122923,PLT_learning_3,B,2014_Jan_31_1408,P01,
stim_fb/ques.jpg,stim_fb/negf.jpg,stim_fb/posf.jpg,stim_03/e.jpg,stim_03/f.jpg,2,3,j,4,15,255,51,j,1,1.1496702912,03,03,60.0173122923,PLT_learning_3,B,2014_Jan_31_1408,P01,
stim_fb/ques.jpg,stim_fb/negf.jpg,stim_fb/posf.jpg,stim_03/c.jpg,stim_03/d.jpg,2,2,j,4,16,256,33,j,1,0.783135383944,03,03,60.0173122923,PLT_learning_3,B,2014_Jan_31_1408,P01,
stim_fb/ques.jpg,stim_fb/negf.jpg,stim_fb/posf.jpg,stim_03/c.jpg,stim_03/d.jpg,2,2,j,4,17,257,35,j,1,0.933092115097,03,03,60.0173122923,PLT_learning_3,B,2014_Jan_31_1408,P01,
stim_fb/ques.jpg,stim_fb/negf.jpg,stim_fb/posf.jpg,stim_03/d.jpg,stim_03/c.jpg,1,2,f,4,18,258,26,f,1,0.716489463989,03,03,60.0173122923,PLT_learning_3,B,2014_Jan_31_1408,P01,
stim_fb/ques.jpg,stim_fb/negf.jpg,stim_fb/posf.jpg,stim_03/d.jpg,stim_03/c.jpg,1,2,f,4,19,259,22,f,1,0.933084253502,03,03,60.0173122923,PLT_learning_3,B,2014_Jan_31_1408,P01,
stim_fb/ques.jpg,stim_fb/negf.jpg,stim_fb/posf.jpg,stim_03/c.jpg,stim_03/d.jpg,2,2,j,4,20,260,31,j,1,1.01639891129,03,03,60.0173122923,PLT_learning_3,B,2014_Jan_31_1408,P01,
stim_fb/ques.jpg,stim_fb/posf.jpg,stim_fb/negf.jpg,stim_03/f.jpg,stim_03/e.jpg,1,3,f,4,21,261,46,f,1,1.14963721175,03,03,60.0173122923,PLT_learning_3,B,2014_Jan_31_1408,P01,
stim_fb/ques.jpg,stim_fb/posf.jpg,stim_fb/negf.jpg,stim_03/b.jpg,stim_03/a.jpg,1,1,f,4,22,262,9,f,1,0.866503418772,03,03,60.0173122923,PLT_learning_3,B,2014_Jan_31_1408,P01,
stim_fb/ques.jpg,stim_fb/posf.jpg,stim_fb/negf.jpg,stim_03/f.jpg,stim_03/e.jpg,1,3,f,4,23,263,49,f,1,0.766466913783,03,03,60.0173122923,PLT_learning_3,B,2014_Jan_31_1408,P01,
stim_fb/ques.jpg,stim_fb/negf.jpg,stim_fb/posf.jpg,stim_03/b.jpg,stim_03/a.jpg,1,1,f,4,24,264,5,f,1,0.616524329892,03,03,60.0173122923,PLT_learning_3,B,2014_Jan_31_1408,P01,
stim_fb/ques.jpg,stim_fb/negf.jpg,stim_fb/posf.jpg,stim_03/e.jpg,stim_03/f.jpg,2,3,j,4,25,265,50,j,1,1.06633274336,03,03,60.0173122923,PLT_learning_3,B,2014_Jan_31_1408,P01,
stim_fb/ques.jpg,stim_fb/negf.jpg,stim_fb/posf.jpg,stim_03/a.jpg,stim_03/b.jpg,2,1,j,4,26,266,11,j,1,0.716489590304,03,03,60.0173122923,PLT_learning_3,B,2014_Jan_31_1408,P01,
stim_fb/ques.jpg,stim_fb/negf.jpg,stim_fb/posf.jpg,stim_03/e.jpg,stim_03/f.jpg,2,3,j,4,27,267,53,j,1,0.983072761859,03,03,60.0173122923,PLT_learning_3,B,2014_Jan_31_1408,P01,
stim_fb/ques.jpg,stim_fb/negf.jpg,stim_fb/posf.jpg,stim_03/f.jpg,stim_03/e.jpg,1,3,f,4,28,268,43,j,0,1.04970801423,03,03,60.0173122923,PLT_learning_3,B,2014_Jan_31_1408,P01,
stim_fb/ques.jpg,stim_fb/negf.jpg,stim_fb/posf.jpg,stim_03/d.jpg,stim_03/c.jpg,1,2,f,4,29,269,25,f,1,0.666501121044,03,03,60.0173122923,PLT_learning_3,B,2014_Jan_31_1408,P01,
stim_fb/ques.jpg,stim_fb/posf.jpg,stim_fb/negf.jpg,stim_03/b.jpg,stim_03/a.jpg,1,1,f,4,30,270,8,f,1,0.716477557311,03,03,60.0173122923,PLT_learning_3,B,2014_Jan_31_1408,P01,
stim_fb/ques.jpg,stim_fb/posf.jpg,stim_fb/negf.jpg,stim_03/f.jpg,stim_03/e.jpg,1,3,f,4,31,271,47,f,1,0.866434363651,03,03,60.0173122923,PLT_learning_3,B,2014_Jan_31_1408,P01,
stim_fb/ques.jpg,stim_fb/negf.jpg,stim_fb/posf.jpg,stim_03/f.jpg,stim_03/e.jpg,1,3,f,4,32,272,45,f,1,0.54987197991,03,03,60.0173122923,PLT_learning_3,B,2014_Jan_31_1408,P01,
stim_fb/ques.jpg,stim_fb/negf.jpg,stim_fb/posf.jpg,stim_03/e.jpg,stim_03/f.jpg,2,3,j,4,33,273,54,j,1,0.866433786212,03,03,60.0173122923,PLT_learning_3,B,2014_Jan_31_1408,P01,
stim_fb/ques.jpg,stim_fb/posf.jpg,stim_fb/negf.jpg,stim_03/d.jpg,stim_03/c.jpg,1,2,f,4,34,274,27,f,1,0.933108878881,03,03,60.0173122923,PLT_learning_3,B,2014_Jan_31_1408,P01,
stim_fb/ques.jpg,stim_fb/posf.jpg,stim_fb/negf.jpg,stim_03/d.jpg,stim_03/c.jpg,1,2,f,4,35,275,28,f,1,1.31627948361,03,03,60.0173122923,PLT_learning_3,B,2014_Jan_31_1408,P01,
stim_fb/ques.jpg,stim_fb/negf.jpg,stim_fb/posf.jpg,stim_03/c.jpg,stim_03/d.jpg,2,2,j,4,36,276,30,j,1,0.599855270261,03,03,60.0173122923,PLT_learning_3,B,2014_Jan_31_1408,P01,
stim_fb/ques.jpg,stim_fb/negf.jpg,stim_fb/posf.jpg,stim_03/e.jpg,stim_03/f.jpg,2,3,j,4,37,277,52,j,1,1.13301986902,03,03,60.0173122923,PLT_learning_3,B,2014_Jan_31_1408,P01,
stim_fb/ques.jpg,stim_fb/posf.jpg,stim_fb/negf.jpg,stim_03/c.jpg,stim_03/d.jpg,2,2,j,4,38,278,38,j,1,0.833117290847,03,03,60.0173122923,PLT_learning_3,B,2014_Jan_31_1408,P01,
stim_fb/ques.jpg,stim_fb/posf.jpg,stim_fb/negf.jpg,stim_03/c.jpg,stim_03/d.jpg,2,2,j,4,39,279,37,j,1,0.616511881865,03,03,60.0173122923,PLT_learning_3,B,2014_Jan_31_1408,P01,
stim_fb/ques.jpg,stim_fb/negf.jpg,stim_fb/posf.jpg,stim_03/f.jpg,stim_03/e.jpg,1,3,f,4,40,280,40,f,1,1.43292151488,03,03,60.0173122923,PLT_learning_3,B,2014_Jan_31_1408,P01,
stim_fb/ques.jpg,stim_fb/negf.jpg,stim_fb/posf.jpg,stim_03/d.jpg,stim_03/c.jpg,1,2,f,4,41,281,20,f,1,0.666490345185,03,03,60.0173122923,PLT_learning_3,B,2014_Jan_31_1408,P01,
stim_fb/ques.jpg,stim_fb/negf.jpg,stim_fb/posf.jpg,stim_03/d.jpg,stim_03/c.jpg,1,2,f,4,42,282,24,f,1,0.566528179488,03,03,60.0173122923,PLT_learning_3,B,2014_Jan_31_1408,P01,
stim_fb/ques.jpg,stim_fb/posf.jpg,stim_fb/negf.jpg,stim_03/e.jpg,stim_03/f.jpg,2,3,j,4,43,283,56,j,1,0.916405774393,03,03,60.0173122923,PLT_learning_3,B,2014_Jan_31_1408,P01,
stim_fb/ques.jpg,stim_fb/negf.jpg,stim_fb/posf.jpg,stim_03/a.jpg,stim_03/b.jpg,2,1,j,4,44,284,17,j,1,0.799786849723,03,03,60.0173122923,PLT_learning_3,B,2014_Jan_31_1408,P01,
stim_fb/ques.jpg,stim_fb/negf.jpg,stim_fb/posf.jpg,stim_03/c.jpg,stim_03/d.jpg,2,2,j,4,45,285,36,j,1,0.616537325283,03,03,60.0173122923,PLT_learning_3,B,2014_Jan_31_1408,P01,
stim_fb/ques.jpg,stim_fb/negf.jpg,stim_fb/posf.jpg,stim_03/e.jpg,stim_03/f.jpg,2,3,j,4,46,286,55,j,1,1.01637987985,03,03,60.0173122923,PLT_learning_3,B,2014_Jan_31_1408,P01,
stim_fb/ques.jpg,stim_fb/negf.jpg,stim_fb/posf.jpg,stim_03/b.jpg,stim_03/a.jpg,1,1,f,4,47,287,4,f,1,1.14969977068,03,03,60.0173122923,PLT_learning_3,B,2014_Jan_31_1408,P01,
stim_fb/ques.jpg,stim_fb/posf.jpg,stim_fb/negf.jpg,stim_03/d.jpg,stim_03/c.jpg,1,2,f,4,48,288,29,f,1,0.749798227081,03,03,60.0173122923,PLT_learning_3,B,2014_Jan_31_1408,P01,
stim_fb/ques.jpg,stim_fb/negf.jpg,stim_fb/posf.jpg,stim_03/b.jpg,stim_03/a.jpg,1,1,f,4,49,289,2,f,1,0.549888942188,03,03,60.0173122923,PLT_learning_3,B,2014_Jan_31_1408,P01,
stim_fb/ques.jpg,stim_fb/negf.jpg,stim_fb/posf.jpg,stim_03/b.jpg,stim_03/a.jpg,1,1,f,4,50,290,3,f,1,0.799835989203,03,03,60.0173122923,PLT_learning_3,B,2014_Jan_31_1408,P01,
stim_fb/ques.jpg,stim_fb/negf.jpg,stim_fb/posf.jpg,stim_03/a.jpg,stim_03/b.jpg,2,1,j,4,51,291,15,j,1,0.599911823219,03,03,60.0173122923,PLT_learning_3,B,2014_Jan_31_1408,P01,
stim_fb/ques.jpg,stim_fb/negf.jpg,stim_fb/posf.jpg,stim_03/b.jpg,stim_03/a.jpg,1,1,f,4,52,292,7,f,1,0.699824067488,03,03,60.0173122923,PLT_learning_3,B,2014_Jan_31_1408,P01,
stim_fb/ques.jpg,stim_fb/negf.jpg,stim_fb/posf.jpg,stim_03/a.jpg,stim_03/b.jpg,2,1,j,4,53,293,14,j,1,0.533176117473,03,03,60.0173122923,PLT_learning_3,B,2014_Jan_31_1408,P01,
stim_fb/ques.jpg,stim_fb/negf.jpg,stim_fb/posf.jpg,stim_03/a.jpg,stim_03/b.jpg,2,1,j,4,54,294,10,j,1,0.583217229946,03,03,60.0173122923,PLT_learning_3,B,2014_Jan_31_1408,P01,
stim_fb/ques.jpg,stim_fb/posf.jpg,stim_fb/negf.jpg,stim_03/a.jpg,stim_03/b.jpg,2,1,j,4,55,295,18,j,1,0.949745126728,03,03,60.0173122923,PLT_learning_3,B,2014_Jan_31_1408,P01,
stim_fb/ques.jpg,stim_fb/negf.jpg,stim_fb/posf.jpg,stim_03/a.jpg,stim_03/b.jpg,2,1,j,4,56,296,12,j,1,0.599868419034,03,03,60.0173122923,PLT_learning_3,B,2014_Jan_31_1408,P01,
stim_fb/ques.jpg,stim_fb/negf.jpg,stim_fb/posf.jpg,stim_03/c.jpg,stim_03/d.jpg,2,2,j,4,57,297,34,j,1,0.749812350283,03,03,60.0173122923,PLT_learning_3,B,2014_Jan_31_1408,P01,
stim_fb/ques.jpg,stim_fb/posf.jpg,stim_fb/negf.jpg,stim_03/e.jpg,stim_03/f.jpg,2,3,j,4,58,298,59,j,1,1.29963775611,03,03,60.0173122923,PLT_learning_3,B,2014_Jan_31_1408,P01,
stim_fb/ques.jpg,stim_fb/negf.jpg,stim_fb/posf.jpg,stim_03/b.jpg,stim_03/a.jpg,1,1,f,4,59,299,0,f,1,0.699780139999,03,03,60.0173122923,PLT_learning_3,B,2014_Jan_31_1408,P01,
stim_fb/ques.jpg,stim_fb/negf.jpg,stim_fb/posf.jpg,stim_03/e.jpg,stim_03/f.jpg,2,3,j,5,0,300,50,j,1,0.983053607116,03,03,60.0173122923,PLT_learning_3,B,2014_Jan_31_1408,P01,
stim_fb/ques.jpg,stim_fb/posf.jpg,stim_fb/negf.jpg,stim_03/e.jpg,stim_03/f.jpg,2,3,j,5,1,301,56,j,1,1.1329990782,03,03,60.0173122923,PLT_learning_3,B,2014_Jan_31_1408,P01,
stim_fb/ques.jpg,stim_fb/negf.jpg,stim_fb/posf.jpg,stim_03/d.jpg,stim_03/c.jpg,1,2,f,5,2,302,25,f,1,0.833107675882,03,03,60.0173122923,PLT_learning_3,B,2014_Jan_31_1408,P01,
stim_fb/ques.jpg,stim_fb/posf.jpg,stim_fb/negf.jpg,stim_03/e.jpg,stim_03/f.jpg,2,3,j,5,3,303,58,j,1,1.16638158811,03,03,60.0173122923,PLT_learning_3,B,2014_Jan_31_1408,P01,
stim_fb/ques.jpg,stim_fb/posf.jpg,stim_fb/negf.jpg,stim_03/d.jpg,stim_03/c.jpg,1,2,f,5,4,304,27,f,1,0.733439874889,03,03,60.0173122923,PLT_learning_3,B,2014_Jan_31_1408,P01,
stim_fb/ques.jpg,stim_fb/negf.jpg,stim_fb/posf.jpg,stim_03/f.jpg,stim_03/e.jpg,1,3,f,5,5,305,43,f,1,0.94974346659,03,03,60.0173122923,PLT_learning_3,B,2014_Jan_31_1408,P01,
stim_fb/ques.jpg,stim_fb/negf.jpg,stim_fb/posf.jpg,stim_03/c.jpg,stim_03/d.jpg,2,2,j,5,6,306,36,j,1,0.682973397192,03,03,60.0173122923,PLT_learning_3,B,2014_Jan_31_1408,P01,
stim_fb/ques.jpg,stim_fb/negf.jpg,stim_fb/posf.jpg,stim_03/a.jpg,stim_03/b.jpg,2,1,j,5,7,307,12,j,1,0.983092169231,03,03,60.0173122923,PLT_learning_3,B,2014_Jan_31_1408,P01,
stim_fb/ques.jpg,stim_fb/negf.jpg,stim_fb/posf.jpg,stim_03/b.jpg,stim_03/a.jpg,1,1,f,5,8,308,7,f,1,1.03303575161,03,03,60.0173122923,PLT_learning_3,B,2014_Jan_31_1408,P01,
stim_fb/ques.jpg,stim_fb/negf.jpg,stim_fb/posf.jpg,stim_03/f.jpg,stim_03/e.jpg,1,3,f,5,9,309,40,j,0,1.11636905587,03,03,60.0173122923,PLT_learning_3,B,2014_Jan_31_1408,P01,
stim_fb/ques.jpg,stim_fb/negf.jpg,stim_fb/posf.jpg,stim_03/a.jpg,stim_03/b.jpg,2,1,j,5,10,310,10,j,1,0.749811965323,03,03,60.0173122923,PLT_learning_3,B,2014_Jan_31_1408,P01,
stim_fb/ques.jpg,stim_fb/negf.jpg,stim_fb/posf.jpg,stim_03/c.jpg,stim_03/d.jpg,2,2,j,5,11,311,30,j,1,0.699834822295,03,03,60.0173122923,PLT_learning_3,B,2014_Jan_31_1408,P01,
stim_fb/ques.jpg,stim_fb/negf.jpg,stim_fb/posf.jpg,stim_03/b.jpg,stim_03/a.jpg,1,1,f,5,12,312,4,f,1,1.26624261772,03,03,60.0173122923,PLT_learning_3,B,2014_Jan_31_1408,P01,
stim_fb/ques.jpg,stim_fb/posf.jpg,stim_fb/negf.jpg,stim_03/c.jpg,stim_03/d.jpg,2,2,j,5,13,313,37,j,1,0.849773583657,03,03,60.0173122923,PLT_learning_3,B,2014_Jan_31_1408,P01,
stim_fb/ques.jpg,stim_fb/posf.jpg,stim_fb/negf.jpg,stim_03/f.jpg,stim_03/e.jpg,1,3,f,5,14,314,49,f,1,1.33279359403,03,03,60.0173122923,PLT_learning_3,B,2014_Jan_31_1408,P01,
stim_fb/ques.jpg,stim_fb/posf.jpg,stim_fb/negf.jpg,stim_03/e.jpg,stim_03/f.jpg,2,3,j,5,15,315,57,j,1,0.949737842573,03,03,60.0173122923,PLT_learning_3,B,2014_Jan_31_1408,P01,
stim_fb/ques.jpg,stim_fb/posf.jpg,stim_fb/negf.jpg,stim_03/f.jpg,stim_03/e.jpg,1,3,f,5,16,316,47,f,1,0.533209708198,03,03,60.0173122923,PLT_learning_3,B,2014_Jan_31_1408,P01,
stim_fb/ques.jpg,stim_fb/negf.jpg,stim_fb/posf.jpg,stim_03/b.jpg,stim_03/a.jpg,1,1,f,5,17,317,1,f,1,0.716426447922,03,03,60.0173122923,PLT_learning_3,B,2014_Jan_31_1408,P01,
stim_fb/ques.jpg,stim_fb/negf.jpg,stim_fb/posf.jpg,stim_03/d.jpg,stim_03/c.jpg,1,2,f,5,18,318,24,f,1,0.96636056571,03,03,60.0173122923,PLT_learning_3,B,2014_Jan_31_1408,P01,
stim_fb/ques.jpg,stim_fb/negf.jpg,stim_fb/posf.jpg,stim_03/b.jpg,stim_03/a.jpg,1,1,f,5,19,319,2,f,1,0.499931916301,03,03,60.0173122923,PLT_learning_3,B,2014_Jan_31_1408,P01,
stim_fb/ques.jpg,stim_fb/negf.jpg,stim_fb/posf.jpg,stim_03/f.jpg,stim_03/e.jpg,1,3,f,5,20,320,44,f,1,1.29958545274,03,03,60.0173122923,PLT_learning_3,B,2014_Jan_31_1408,P01,
stim_fb/ques.jpg,stim_fb/posf.jpg,stim_fb/negf.jpg,stim_03/a.jpg,stim_03/b.jpg,2,1,j,5,21,321,19,j,1,0.733148565801,03,03,60.0173122923,PLT_learning_3,B,2014_Jan_31_1408,P01,
stim_fb/ques.jpg,stim_fb/negf.jpg,stim_fb/posf.jpg,stim_03/c.jpg,stim_03/d.jpg,2,2,j,5,22,322,32,j,1,0.816440565109,03,03,60.0173122923,PLT_learning_3,B,2014_Jan_31_1408,P01,
stim_fb/ques.jpg,stim_fb/negf.jpg,stim_fb/posf.jpg,stim_03/e.jpg,stim_03/f.jpg,2,3,j,5,23,323,54,j,1,0.916426384764,03,03,60.0173122923,PLT_learning_3,B,2014_Jan_31_1408,P01,
stim_fb/ques.jpg,stim_fb/negf.jpg,stim_fb/posf.jpg,stim_03/a.jpg,stim_03/b.jpg,2,1,j,5,24,324,13,j,1,0.949751818408,03,03,60.0173122923,PLT_learning_3,B,2014_Jan_31_1408,P01,
stim_fb/ques.jpg,stim_fb/negf.jpg,stim_fb/posf.jpg,stim_03/e.jpg,stim_03/f.jpg,2,3,j,5,25,325,51,j,1,1.13300988414,03,03,60.0173122923,PLT_learning_3,B,2014_Jan_31_1408,P01,
stim_fb/ques.jpg,stim_fb/negf.jpg,stim_fb/posf.jpg,stim_03/b.jpg,stim_03/a.jpg,1,1,f,5,26,326,0,f,1,0.93308000391,03,03,60.0173122923,PLT_learning_3,B,2014_Jan_31_1408,P01,
stim_fb/ques.jpg,stim_fb/posf.jpg,stim_fb/negf.jpg,stim_03/f.jpg,stim_03/e.jpg,1,3,f,5,27,327,48,j,0,1.03306100255,03,03,60.0173122923,PLT_learning_3,B,2014_Jan_31_1408,P01,
stim_fb/ques.jpg,stim_fb/posf.jpg,stim_fb/negf.jpg,stim_03/c.jpg,stim_03/d.jpg,2,2,j,5,28,328,38,j,1,0.983072391937,03,03,60.0173122923,PLT_learning_3,B,2014_Jan_31_1408,P01,
stim_fb/ques.jpg,stim_fb/negf.jpg,stim_fb/posf.jpg,stim_03/a.jpg,stim_03/b.jpg,2,1,j,5,29,329,16,j,1,1.28297740919,03,03,60.0173122923,PLT_learning_3,B,2014_Jan_31_1408,P01,
stim_fb/ques.jpg,stim_fb/posf.jpg,stim_fb/negf.jpg,stim_03/b.jpg,stim_03/a.jpg,1,1,f,5,30,330,9,f,1,1.43292238705,03,03,60.0173122923,PLT_learning_3,B,2014_Jan_31_1408,P01,
stim_fb/ques.jpg,stim_fb/posf.jpg,stim_fb/negf.jpg,stim_03/f.jpg,stim_03/e.jpg,1,3,f,5,31,331,46,j,0,1.68282413816,03,03,60.0173122923,PLT_learning_3,B,2014_Jan_31_1408,P01,
stim_fb/ques.jpg,stim_fb/negf.jpg,stim_fb/posf.jpg,stim_03/a.jpg,stim_03/b.jpg,2,1,j,5,32,332,17,j,1,1.31627251825,03,03,60.0173122923,PLT_learning_3,B,2014_Jan_31_1408,P01,
stim_fb/ques.jpg,stim_fb/negf.jpg,stim_fb/posf.jpg,stim_03/c.jpg,stim_03/d.jpg,2,2,j,5,33,333,31,j,1,0.949746865061,03,03,60.0173122923,PLT_learning_3,B,2014_Jan_31_1408,P01,
stim_fb/ques.jpg,stim_fb/negf.jpg,stim_fb/posf.jpg,stim_03/d.jpg,stim_03/c.jpg,1,2,f,5,34,334,26,f,1,1.01639127525,03,03,60.0173122923,PLT_learning_3,B,2014_Jan_31_1408,P01,
stim_fb/ques.jpg,stim_fb/negf.jpg,stim_fb/posf.jpg,stim_03/e.jpg,stim_03/f.jpg,2,3,j,5,35,335,55,j,1,1.23289742182,03,03,60.0173122923,PLT_learning_3,B,2014_Jan_31_1408,P01,
stim_fb/ques.jpg,stim_fb/negf.jpg,stim_fb/posf.jpg,stim_03/c.jpg,stim_03/d.jpg,2,2,j,5,36,336,35,j,1,1.34960729017,03,03,60.0173122923,PLT_learning_3,B,2014_Jan_31_1408,P01,
stim_fb/ques.jpg,stim_fb/negf.jpg,stim_fb/posf.jpg,stim_03/d.jpg,stim_03/c.jpg,1,2,f,5,37,337,21,f,1,1.39957926933,03,03,60.0173122923,PLT_learning_3,B,2014_Jan_31_1408,P01,
stim_fb/ques.jpg,stim_fb/negf.jpg,stim_fb/posf.jpg,stim_03/f.jpg,stim_03/e.jpg,1,3,f,5,38,338,41,j,0,1.5162220254,03,03,60.0173122923,PLT_learning_3,B,2014_Jan_31_1408,P01,
stim_fb/ques.jpg,stim_fb/negf.jpg,stim_fb/posf.jpg,stim_03/d.jpg,stim_03/c.jpg,1,2,f,5,39,339,23,f,1,1.36628219938,03,03,60.0173122923,PLT_learning_3,B,2014_Jan_31_1408,P01,
stim_fb/ques.jpg,stim_fb/posf.jpg,stim_fb/negf.jpg,stim_03/b.jpg,stim_03/a.jpg,1,1,f,5,40,340,8,f,1,1.34961449312,03,03,60.0173122923,PLT_learning_3,B,2014_Jan_31_1408,P01,
stim_fb/ques.jpg,stim_fb/negf.jpg,stim_fb/posf.jpg,stim_03/d.jpg,stim_03/c.jpg,1,2,f,5,41,341,22,f,1,1.06637867084,03,03,60.0173122923,PLT_learning_3,B,2014_Jan_31_1408,P01,
stim_fb/ques.jpg,stim_fb/negf.jpg,stim_fb/posf.jpg,stim_03/f.jpg,stim_03/e.jpg,1,3,f,5,42,342,45,None,0,,03,03,60.0173122923,PLT_learning_3,B,2014_Jan_31_1408,P01,
stim_fb/ques.jpg,stim_fb/posf.jpg,stim_fb/negf.jpg,stim_03/a.jpg,stim_03/b.jpg,2,1,j,5,43,343,18,j,1,0.866306081909,03,03,60.0173122923,PLT_learning_3,B,2014_Jan_31_1408,P01,
stim_fb/ques.jpg,stim_fb/negf.jpg,stim_fb/posf.jpg,stim_03/a.jpg,stim_03/b.jpg,2,1,j,5,44,344,15,j,1,0.916385305374,03,03,60.0173122923,PLT_learning_3,B,2014_Jan_31_1408,P01,
stim_fb/ques.jpg,stim_fb/negf.jpg,stim_fb/posf.jpg,stim_03/c.jpg,stim_03/d.jpg,2,2,j,5,45,345,34,j,1,1.13307287915,03,03,60.0173122923,PLT_learning_3,B,2014_Jan_31_1408,P01,
stim_fb/ques.jpg,stim_fb/posf.jpg,stim_fb/negf.jpg,stim_03/e.jpg,stim_03/f.jpg,2,3,j,5,46,346,59,j,1,1.09970445936,03,03,60.0173122923,PLT_learning_3,B,2014_Jan_31_1408,P01,
stim_fb/ques.jpg,stim_fb/negf.jpg,stim_fb/posf.jpg,stim_03/b.jpg,stim_03/a.jpg,1,1,f,5,47,347,5,f,1,1.03301931264,03,03,60.0173122923,PLT_learning_3,B,2014_Jan_31_1408,P01,
stim_fb/ques.jpg,stim_fb/negf.jpg,stim_fb/posf.jpg,stim_03/b.jpg,stim_03/a.jpg,1,1,f,5,48,348,3,f,1,1.21634248164,03,03,60.0173122923,PLT_learning_3,B,2014_Jan_31_1408,P01,
stim_fb/ques.jpg,stim_fb/posf.jpg,stim_fb/negf.jpg,stim_03/d.jpg,stim_03/c.jpg,1,2,f,5,49,349,29,f,1,1.16633975384,03,03,60.0173122923,PLT_learning_3,B,2014_Jan_31_1408,P01,
stim_fb/ques.jpg,stim_fb/negf.jpg,stim_fb/posf.jpg,stim_03/e.jpg,stim_03/f.jpg,2,3,j,5,50,350,53,j,1,1.18307587462,03,03,60.0173122923,PLT_learning_3,B,2014_Jan_31_1408,P01,
stim_fb/ques.jpg,stim_fb/negf.jpg,stim_fb/posf.jpg,stim_03/d.jpg,stim_03/c.jpg,1,2,f,5,51,351,20,f,1,1.16639814137,03,03,60.0173122923,PLT_learning_3,B,2014_Jan_31_1408,P01,
stim_fb/ques.jpg,stim_fb/negf.jpg,stim_fb/posf.jpg,stim_03/e.jpg,stim_03/f.jpg,2,3,j,5,52,352,52,j,1,1.04970384283,03,03,60.0173122923,PLT_learning_3,B,2014_Jan_31_1408,P01,
stim_fb/ques.jpg,stim_fb/negf.jpg,stim_fb/posf.jpg,stim_03/a.jpg,stim_03/b.jpg,2,1,j,5,53,353,14,j,1,1.19965964466,03,03,60.0173122923,PLT_learning_3,B,2014_Jan_31_1408,P01,
stim_fb/ques.jpg,stim_fb/negf.jpg,stim_fb/posf.jpg,stim_03/a.jpg,stim_03/b.jpg,2,1,j,5,54,354,11,j,1,1.56621345704,03,03,60.0173122923,PLT_learning_3,B,2014_Jan_31_1408,P01,
stim_fb/ques.jpg,stim_fb/posf.jpg,stim_fb/negf.jpg,stim_03/c.jpg,stim_03/d.jpg,2,2,j,5,55,355,39,j,1,1.23296043488,03,03,60.0173122923,PLT_learning_3,B,2014_Jan_31_1408,P01,
stim_fb/ques.jpg,stim_fb/negf.jpg,stim_fb/posf.jpg,stim_03/f.jpg,stim_03/e.jpg,1,3,f,5,56,356,42,j,0,1.38295265449,03,03,60.0173122923,PLT_learning_3,B,2014_Jan_31_1408,P01,
stim_fb/ques.jpg,stim_fb/negf.jpg,stim_fb/posf.jpg,stim_03/b.jpg,stim_03/a.jpg,1,1,f,5,57,357,6,f,1,0.883100115037,03,03,60.0173122923,PLT_learning_3,B,2014_Jan_31_1408,P01,
stim_fb/ques.jpg,stim_fb/negf.jpg,stim_fb/posf.jpg,stim_03/c.jpg,stim_03/d.jpg,2,2,j,5,58,358,33,j,1,0.749773024263,03,03,60.0173122923,PLT_learning_3,B,2014_Jan_31_1408,P01,
stim_fb/ques.jpg,stim_fb/posf.jpg,stim_fb/negf.jpg,stim_03/d.jpg,stim_03/c.jpg,1,2,f,5,59,359,28,f,1,0.866450465786,03,03,60.0173122923,PLT_learning_3,B,2014_Jan_31_1408,P01,
