Fb3,Fb2,Fb1,Symbol2,Symbol1,PosCond,Pair,Correct,trials.thisRepN,trials.thisTrialN,trials.thisN,trials.thisIndex,Response.keys,Response.corr,Response.rt,Version,Session Number,frameRate,expName,StimCondition,date,Participant,
stim_fb/ques.jpg,stim_fb/negf.jpg,stim_fb/posf.jpg,stim_02/a.jpg,stim_02/b.jpg,2,1,j,0,0,0,13,f,0,0.783192075277,02,02,60.0249845539,PLT_learning_02,B,2014_Jan_30_1201,P02,
stim_fb/ques.jpg,stim_fb/negf.jpg,stim_fb/posf.jpg,stim_02/d.jpg,stim_02/c.jpg,1,2,f,0,1,1,24,f,1,1.04960155788,02,02,60.0249845539,PLT_learning_02,B,2014_Jan_30_1201,P02,
stim_fb/ques.jpg,stim_fb/negf.jpg,stim_fb/posf.jpg,stim_02/b.jpg,stim_02/a.jpg,1,1,f,0,2,2,6,j,0,0.883041156679,02,02,60.0249845539,PLT_learning_02,B,2014_Jan_30_1201,P02,
stim_fb/ques.jpg,stim_fb/negf.jpg,stim_fb/posf.jpg,stim_02/e.jpg,stim_02/f.jpg,2,3,j,0,3,3,52,f,0,0.999702812374,02,02,60.0249845539,PLT_learning_02,B,2014_Jan_30_1201,P02,
stim_fb/ques.jpg,stim_fb/negf.jpg,stim_fb/posf.jpg,stim_02/a.jpg,stim_02/b.jpg,2,1,j,0,4,4,14,f,0,0.96641199385,02,02,60.0249845539,PLT_learning_02,B,2014_Jan_30_1201,P02,
stim_fb/ques.jpg,stim_fb/negf.jpg,stim_fb/posf.jpg,stim_02/d.jpg,stim_02/c.jpg,1,2,f,0,5,5,20,j,0,0.933066700751,02,02,60.0249845539,PLT_learning_02,B,2014_Jan_30_1201,P02,
stim_fb/ques.jpg,stim_fb/negf.jpg,stim_fb/posf.jpg,stim_02/d.jpg,stim_02/c.jpg,1,2,f,0,6,6,21,f,1,1.08301601711,02,02,60.0249845539,PLT_learning_02,B,2014_Jan_30_1201,P02,
stim_fb/ques.jpg,stim_fb/posf.jpg,stim_fb/negf.jpg,stim_02/f.jpg,stim_02/e.jpg,1,3,f,0,7,7,47,f,1,1.1663334594,02,02,60.0249845539,PLT_learning_02,B,2014_Jan_30_1201,P02,
stim_fb/ques.jpg,stim_fb/posf.jpg,stim_fb/negf.jpg,stim_02/e.jpg,stim_02/f.jpg,2,3,j,0,8,8,59,f,0,0.966393906836,02,02,60.0249845539,PLT_learning_02,B,2014_Jan_30_1201,P02,
stim_fb/ques.jpg,stim_fb/negf.jpg,stim_fb/posf.jpg,stim_02/c.jpg,stim_02/d.jpg,2,2,j,0,9,9,34,f,0,1.0663721537,02,02,60.0249845539,PLT_learning_02,B,2014_Jan_30_1201,P02,
stim_fb/ques.jpg,stim_fb/negf.jpg,stim_fb/posf.jpg,stim_02/c.jpg,stim_02/d.jpg,2,2,j,0,10,10,36,j,1,0.749770725894,02,02,60.0249845539,PLT_learning_02,B,2014_Jan_30_1201,P02,
stim_fb/ques.jpg,stim_fb/negf.jpg,stim_fb/posf.jpg,stim_02/b.jpg,stim_02/a.jpg,1,1,f,0,11,11,2,f,1,0.98304733706,02,02,60.0249845539,PLT_learning_02,B,2014_Jan_30_1201,P02,
stim_fb/ques.jpg,stim_fb/posf.jpg,stim_fb/negf.jpg,stim_02/d.jpg,stim_02/c.jpg,1,2,f,0,12,12,29,f,1,0.766466059406,02,02,60.0249845539,PLT_learning_02,B,2014_Jan_30_1201,P02,
stim_fb/ques.jpg,stim_fb/negf.jpg,stim_fb/posf.jpg,stim_02/f.jpg,stim_02/e.jpg,1,3,f,0,13,13,42,j,0,0.8830911501,02,02,60.0249845539,PLT_learning_02,B,2014_Jan_30_1201,P02,
stim_fb/ques.jpg,stim_fb/negf.jpg,stim_fb/posf.jpg,stim_02/c.jpg,stim_02/d.jpg,2,2,j,0,14,14,33,j,1,0.816457654989,02,02,60.0249845539,PLT_learning_02,B,2014_Jan_30_1201,P02,
stim_fb/ques.jpg,stim_fb/negf.jpg,stim_fb/posf.jpg,stim_02/a.jpg,stim_02/b.jpg,2,1,j,0,15,15,12,j,1,0.783128587271,02,02,60.0249845539,PLT_learning_02,B,2014_Jan_30_1201,P02,
stim_fb/ques.jpg,stim_fb/negf.jpg,stim_fb/posf.jpg,stim_02/b.jpg,stim_02/a.jpg,1,1,f,0,16,16,4,f,1,0.666485980985,02,02,60.0249845539,PLT_learning_02,B,2014_Jan_30_1201,P02,
stim_fb/ques.jpg,stim_fb/posf.jpg,stim_fb/negf.jpg,stim_02/e.jpg,stim_02/f.jpg,2,3,j,0,17,17,56,j,1,1.33290411311,02,02,60.0249845539,PLT_learning_02,B,2014_Jan_30_1201,P02,
stim_fb/ques.jpg,stim_fb/negf.jpg,stim_fb/posf.jpg,stim_02/b.jpg,stim_02/a.jpg,1,1,f,0,18,18,7,f,1,0.649835561253,02,02,60.0249845539,PLT_learning_02,B,2014_Jan_30_1201,P02,
stim_fb/ques.jpg,stim_fb/negf.jpg,stim_fb/posf.jpg,stim_02/f.jpg,stim_02/e.jpg,1,3,f,0,19,19,43,f,1,1.08302234185,02,02,60.0249845539,PLT_learning_02,B,2014_Jan_30_1201,P02,
stim_fb/ques.jpg,stim_fb/negf.jpg,stim_fb/posf.jpg,stim_02/d.jpg,stim_02/c.jpg,1,2,f,0,20,20,26,f,1,0.783126978267,02,02,60.0249845539,PLT_learning_02,B,2014_Jan_30_1201,P02,
stim_fb/ques.jpg,stim_fb/posf.jpg,stim_fb/negf.jpg,stim_02/f.jpg,stim_02/e.jpg,1,3,f,0,21,21,49,f,1,1.06636992816,02,02,60.0249845539,PLT_learning_02,B,2014_Jan_30_1201,P02,
stim_fb/ques.jpg,stim_fb/negf.jpg,stim_fb/posf.jpg,stim_02/a.jpg,stim_02/b.jpg,2,1,j,0,22,22,17,j,1,0.966431644756,02,02,60.0249845539,PLT_learning_02,B,2014_Jan_30_1201,P02,
stim_fb/ques.jpg,stim_fb/posf.jpg,stim_fb/negf.jpg,stim_02/e.jpg,stim_02/f.jpg,2,3,j,0,23,23,58,j,1,0.883088052391,02,02,60.0249845539,PLT_learning_02,B,2014_Jan_30_1201,P02,
stim_fb/ques.jpg,stim_fb/posf.jpg,stim_fb/negf.jpg,stim_02/f.jpg,stim_02/e.jpg,1,3,f,0,24,24,46,f,1,0.849640531874,02,02,60.0249845539,PLT_learning_02,B,2014_Jan_30_1201,P02,
stim_fb/ques.jpg,stim_fb/negf.jpg,stim_fb/posf.jpg,stim_02/e.jpg,stim_02/f.jpg,2,3,j,0,25,25,51,j,1,0.766467539088,02,02,60.0249845539,PLT_learning_02,B,2014_Jan_30_1201,P02,
stim_fb/ques.jpg,stim_fb/posf.jpg,stim_fb/negf.jpg,stim_02/e.jpg,stim_02/f.jpg,2,3,j,0,26,26,57,j,1,0.916400251125,02,02,60.0249845539,PLT_learning_02,B,2014_Jan_30_1201,P02,
stim_fb/ques.jpg,stim_fb/negf.jpg,stim_fb/posf.jpg,stim_02/c.jpg,stim_02/d.jpg,2,2,j,0,27,27,31,j,1,0.899744607392,02,02,60.0249845539,PLT_learning_02,B,2014_Jan_30_1201,P02,
stim_fb/ques.jpg,stim_fb/negf.jpg,stim_fb/posf.jpg,stim_02/b.jpg,stim_02/a.jpg,1,1,f,0,28,28,5,f,1,0.666505941662,02,02,60.0249845539,PLT_learning_02,B,2014_Jan_30_1201,P02,
stim_fb/ques.jpg,stim_fb/posf.jpg,stim_fb/negf.jpg,stim_02/c.jpg,stim_02/d.jpg,2,2,j,0,29,29,39,j,1,1.01633136468,02,02,60.0249845539,PLT_learning_02,B,2014_Jan_30_1201,P02,
stim_fb/ques.jpg,stim_fb/posf.jpg,stim_fb/negf.jpg,stim_02/f.jpg,stim_02/e.jpg,1,3,f,0,30,30,48,f,1,0.83310674842,02,02,60.0249845539,PLT_learning_02,B,2014_Jan_30_1201,P02,
stim_fb/ques.jpg,stim_fb/negf.jpg,stim_fb/posf.jpg,stim_02/b.jpg,stim_02/a.jpg,1,1,f,0,31,31,1,f,1,0.599814146457,02,02,60.0249845539,PLT_learning_02,B,2014_Jan_30_1201,P02,
stim_fb/ques.jpg,stim_fb/negf.jpg,stim_fb/posf.jpg,stim_02/a.jpg,stim_02/b.jpg,2,1,j,0,32,32,11,j,1,0.766453662553,02,02,60.0249845539,PLT_learning_02,B,2014_Jan_30_1201,P02,
stim_fb/ques.jpg,stim_fb/posf.jpg,stim_fb/negf.jpg,stim_02/c.jpg,stim_02/d.jpg,2,2,j,0,33,33,37,j,1,0.699829003432,02,02,60.0249845539,PLT_learning_02,B,2014_Jan_30_1201,P02,
stim_fb/ques.jpg,stim_fb/negf.jpg,stim_fb/posf.jpg,stim_02/f.jpg,stim_02/e.jpg,1,3,f,0,34,34,44,j,0,0.63315003515,02,02,60.0249845539,PLT_learning_02,B,2014_Jan_30_1201,P02,
stim_fb/ques.jpg,stim_fb/negf.jpg,stim_fb/posf.jpg,stim_02/f.jpg,stim_02/e.jpg,1,3,f,0,35,35,41,f,1,0.649839302564,02,02,60.0249845539,PLT_learning_02,B,2014_Jan_30_1201,P02,
stim_fb/ques.jpg,stim_fb/negf.jpg,stim_fb/posf.jpg,stim_02/c.jpg,stim_02/d.jpg,2,2,j,0,36,36,32,j,1,0.73316284102,02,02,60.0249845539,PLT_learning_02,B,2014_Jan_30_1201,P02,
stim_fb/ques.jpg,stim_fb/negf.jpg,stim_fb/posf.jpg,stim_02/c.jpg,stim_02/d.jpg,2,2,j,0,37,37,30,j,1,0.683165149265,02,02,60.0249845539,PLT_learning_02,B,2014_Jan_30_1201,P02,
stim_fb/ques.jpg,stim_fb/negf.jpg,stim_fb/posf.jpg,stim_02/a.jpg,stim_02/b.jpg,2,1,j,0,38,38,10,j,1,0.733135779672,02,02,60.0249845539,PLT_learning_02,B,2014_Jan_30_1201,P02,
stim_fb/ques.jpg,stim_fb/negf.jpg,stim_fb/posf.jpg,stim_02/c.jpg,stim_02/d.jpg,2,2,j,0,39,39,35,j,1,0.633182491927,02,02,60.0249845539,PLT_learning_02,B,2014_Jan_30_1201,P02,
stim_fb/ques.jpg,stim_fb/posf.jpg,stim_fb/negf.jpg,stim_02/c.jpg,stim_02/d.jpg,2,2,j,0,40,40,38,j,1,0.616488568926,02,02,60.0249845539,PLT_learning_02,B,2014_Jan_30_1201,P02,
stim_fb/ques.jpg,stim_fb/negf.jpg,stim_fb/posf.jpg,stim_02/e.jpg,stim_02/f.jpg,2,3,j,0,41,41,54,j,1,0.799776613046,02,02,60.0249845539,PLT_learning_02,B,2014_Jan_30_1201,P02,
stim_fb/ques.jpg,stim_fb/posf.jpg,stim_fb/negf.jpg,stim_02/d.jpg,stim_02/c.jpg,1,2,f,0,42,42,28,f,1,0.733015104341,02,02,60.0249845539,PLT_learning_02,B,2014_Jan_30_1201,P02,
stim_fb/ques.jpg,stim_fb/negf.jpg,stim_fb/posf.jpg,stim_02/e.jpg,stim_02/f.jpg,2,3,j,0,43,43,55,j,1,0.616508460431,02,02,60.0249845539,PLT_learning_02,B,2014_Jan_30_1201,P02,
stim_fb/ques.jpg,stim_fb/negf.jpg,stim_fb/posf.jpg,stim_02/d.jpg,stim_02/c.jpg,1,2,f,0,44,44,22,f,1,0.782975801025,02,02,60.0249845539,PLT_learning_02,B,2014_Jan_30_1201,P02,
stim_fb/ques.jpg,stim_fb/negf.jpg,stim_fb/posf.jpg,stim_02/a.jpg,stim_02/b.jpg,2,1,j,0,45,45,16,j,1,0.533289786957,02,02,60.0249845539,PLT_learning_02,B,2014_Jan_30_1201,P02,
stim_fb/ques.jpg,stim_fb/negf.jpg,stim_fb/posf.jpg,stim_02/e.jpg,stim_02/f.jpg,2,3,j,0,46,46,50,j,1,0.599860088796,02,02,60.0249845539,PLT_learning_02,B,2014_Jan_30_1201,P02,
stim_fb/ques.jpg,stim_fb/negf.jpg,stim_fb/posf.jpg,stim_02/b.jpg,stim_02/a.jpg,1,1,f,0,47,47,0,f,1,0.633254758781,02,02,60.0249845539,PLT_learning_02,B,2014_Jan_30_1201,P02,
stim_fb/ques.jpg,stim_fb/negf.jpg,stim_fb/posf.jpg,stim_02/e.jpg,stim_02/f.jpg,2,3,j,0,48,48,53,j,1,0.733145659259,02,02,60.0249845539,PLT_learning_02,B,2014_Jan_30_1201,P02,
stim_fb/ques.jpg,stim_fb/negf.jpg,stim_fb/posf.jpg,stim_02/b.jpg,stim_02/a.jpg,1,1,f,0,49,49,3,f,1,0.566523048236,02,02,60.0249845539,PLT_learning_02,B,2014_Jan_30_1201,P02,
stim_fb/ques.jpg,stim_fb/negf.jpg,stim_fb/posf.jpg,stim_02/d.jpg,stim_02/c.jpg,1,2,f,0,50,50,25,f,1,0.816442840118,02,02,60.0249845539,PLT_learning_02,B,2014_Jan_30_1201,P02,
stim_fb/ques.jpg,stim_fb/posf.jpg,stim_fb/negf.jpg,stim_02/a.jpg,stim_02/b.jpg,2,1,j,0,51,51,18,j,1,0.633172070992,02,02,60.0249845539,PLT_learning_02,B,2014_Jan_30_1201,P02,
stim_fb/ques.jpg,stim_fb/posf.jpg,stim_fb/negf.jpg,stim_02/b.jpg,stim_02/a.jpg,1,1,f,0,52,52,8,f,1,0.616507919084,02,02,60.0249845539,PLT_learning_02,B,2014_Jan_30_1201,P02,
stim_fb/ques.jpg,stim_fb/negf.jpg,stim_fb/posf.jpg,stim_02/f.jpg,stim_02/e.jpg,1,3,f,0,53,53,40,f,1,0.79978412875,02,02,60.0249845539,PLT_learning_02,B,2014_Jan_30_1201,P02,
stim_fb/ques.jpg,stim_fb/negf.jpg,stim_fb/posf.jpg,stim_02/f.jpg,stim_02/e.jpg,1,3,f,0,54,54,45,f,1,0.866401479683,02,02,60.0249845539,PLT_learning_02,B,2014_Jan_30_1201,P02,
stim_fb/ques.jpg,stim_fb/posf.jpg,stim_fb/negf.jpg,stim_02/b.jpg,stim_02/a.jpg,1,1,f,0,55,55,9,f,1,0.599832997372,02,02,60.0249845539,PLT_learning_02,B,2014_Jan_30_1201,P02,
stim_fb/ques.jpg,stim_fb/posf.jpg,stim_fb/negf.jpg,stim_02/d.jpg,stim_02/c.jpg,1,2,f,0,56,56,27,f,1,0.699859977519,02,02,60.0249845539,PLT_learning_02,B,2014_Jan_30_1201,P02,
stim_fb/ques.jpg,stim_fb/negf.jpg,stim_fb/posf.jpg,stim_02/a.jpg,stim_02/b.jpg,2,1,j,0,57,57,15,j,1,0.616495819972,02,02,60.0249845539,PLT_learning_02,B,2014_Jan_30_1201,P02,
stim_fb/ques.jpg,stim_fb/posf.jpg,stim_fb/negf.jpg,stim_02/a.jpg,stim_02/b.jpg,2,1,j,0,58,58,19,j,1,0.749799979699,02,02,60.0249845539,PLT_learning_02,B,2014_Jan_30_1201,P02,
stim_fb/ques.jpg,stim_fb/negf.jpg,stim_fb/posf.jpg,stim_02/d.jpg,stim_02/c.jpg,1,2,f,0,59,59,23,f,1,0.599810134472,02,02,60.0249845539,PLT_learning_02,B,2014_Jan_30_1201,P02,
stim_fb/ques.jpg,stim_fb/posf.jpg,stim_fb/negf.jpg,stim_02/c.jpg,stim_02/d.jpg,2,2,j,1,0,60,38,j,1,0.899757948594,02,02,60.0249845539,PLT_learning_02,B,2014_Jan_30_1201,P02,
stim_fb/ques.jpg,stim_fb/negf.jpg,stim_fb/posf.jpg,stim_02/d.jpg,stim_02/c.jpg,1,2,f,1,1,61,24,f,1,0.716460076014,02,02,60.0249845539,PLT_learning_02,B,2014_Jan_30_1201,P02,
stim_fb/ques.jpg,stim_fb/negf.jpg,stim_fb/posf.jpg,stim_02/c.jpg,stim_02/d.jpg,2,2,j,1,2,62,32,j,1,0.849789552749,02,02,60.0249845539,PLT_learning_02,B,2014_Jan_30_1201,P02,
stim_fb/ques.jpg,stim_fb/negf.jpg,stim_fb/posf.jpg,stim_02/e.jpg,stim_02/f.jpg,2,3,j,1,3,63,51,f,0,0.866428441785,02,02,60.0249845539,PLT_learning_02,B,2014_Jan_30_1201,P02,
stim_fb/ques.jpg,stim_fb/posf.jpg,stim_fb/negf.jpg,stim_02/f.jpg,stim_02/e.jpg,1,3,f,1,4,64,46,f,1,0.899733326316,02,02,60.0249845539,PLT_learning_02,B,2014_Jan_30_1201,P02,
stim_fb/ques.jpg,stim_fb/negf.jpg,stim_fb/posf.jpg,stim_02/c.jpg,stim_02/d.jpg,2,2,j,1,5,65,33,j,1,0.816440082255,02,02,60.0249845539,PLT_learning_02,B,2014_Jan_30_1201,P02,
stim_fb/ques.jpg,stim_fb/negf.jpg,stim_fb/posf.jpg,stim_02/e.jpg,stim_02/f.jpg,2,3,j,1,6,66,52,j,1,0.733125289564,02,02,60.0249845539,PLT_learning_02,B,2014_Jan_30_1201,P02,
stim_fb/ques.jpg,stim_fb/negf.jpg,stim_fb/posf.jpg,stim_02/f.jpg,stim_02/e.jpg,1,3,f,1,7,67,40,f,1,0.833120871569,02,02,60.0249845539,PLT_learning_02,B,2014_Jan_30_1201,P02,
stim_fb/ques.jpg,stim_fb/negf.jpg,stim_fb/posf.jpg,stim_02/c.jpg,stim_02/d.jpg,2,2,j,1,8,68,35,j,1,0.699788441484,02,02,60.0249845539,PLT_learning_02,B,2014_Jan_30_1201,P02,
stim_fb/ques.jpg,stim_fb/negf.jpg,stim_fb/posf.jpg,stim_02/b.jpg,stim_02/a.jpg,1,1,f,1,9,69,5,f,1,1.03334807803,02,02,60.0249845539,PLT_learning_02,B,2014_Jan_30_1201,P02,
stim_fb/ques.jpg,stim_fb/negf.jpg,stim_fb/posf.jpg,stim_02/d.jpg,stim_02/c.jpg,1,2,f,1,10,70,25,f,1,0.683152105803,02,02,60.0249845539,PLT_learning_02,B,2014_Jan_30_1201,P02,
stim_fb/ques.jpg,stim_fb/posf.jpg,stim_fb/negf.jpg,stim_02/d.jpg,stim_02/c.jpg,1,2,f,1,11,71,29,f,1,0.566484904306,02,02,60.0249845539,PLT_learning_02,B,2014_Jan_30_1201,P02,
stim_fb/ques.jpg,stim_fb/negf.jpg,stim_fb/posf.jpg,stim_02/a.jpg,stim_02/b.jpg,2,1,j,1,12,72,16,j,1,0.616503098086,02,02,60.0249845539,PLT_learning_02,B,2014_Jan_30_1201,P02,
stim_fb/ques.jpg,stim_fb/posf.jpg,stim_fb/negf.jpg,stim_02/e.jpg,stim_02/f.jpg,2,3,j,1,13,73,57,j,1,0.699816239666,02,02,60.0249845539,PLT_learning_02,B,2014_Jan_30_1201,P02,
stim_fb/ques.jpg,stim_fb/negf.jpg,stim_fb/posf.jpg,stim_02/b.jpg,stim_02/a.jpg,1,1,f,1,14,74,0,f,1,0.733129596283,02,02,60.0249845539,PLT_learning_02,B,2014_Jan_30_1201,P02,
stim_fb/ques.jpg,stim_fb/negf.jpg,stim_fb/posf.jpg,stim_02/b.jpg,stim_02/a.jpg,1,1,f,1,15,75,7,f,1,0.583197569952,02,02,60.0249845539,PLT_learning_02,B,2014_Jan_30_1201,P02,
stim_fb/ques.jpg,stim_fb/posf.jpg,stim_fb/negf.jpg,stim_02/e.jpg,stim_02/f.jpg,2,3,j,1,16,76,59,j,1,0.53319238956,02,02,60.0249845539,PLT_learning_02,B,2014_Jan_30_1201,P02,
stim_fb/ques.jpg,stim_fb/negf.jpg,stim_fb/posf.jpg,stim_02/b.jpg,stim_02/a.jpg,1,1,f,1,17,77,4,f,1,0.516516872366,02,02,60.0249845539,PLT_learning_02,B,2014_Jan_30_1201,P02,
stim_fb/ques.jpg,stim_fb/negf.jpg,stim_fb/posf.jpg,stim_02/e.jpg,stim_02/f.jpg,2,3,j,1,18,78,54,j,1,0.683157486194,02,02,60.0249845539,PLT_learning_02,B,2014_Jan_30_1201,P02,
stim_fb/ques.jpg,stim_fb/negf.jpg,stim_fb/posf.jpg,stim_02/d.jpg,stim_02/c.jpg,1,2,f,1,19,79,20,f,1,0.566578007015,02,02,60.0249845539,PLT_learning_02,B,2014_Jan_30_1201,P02,
stim_fb/ques.jpg,stim_fb/negf.jpg,stim_fb/posf.jpg,stim_02/f.jpg,stim_02/e.jpg,1,3,f,1,20,80,44,f,1,0.816419087003,02,02,60.0249845539,PLT_learning_02,B,2014_Jan_30_1201,P02,
stim_fb/ques.jpg,stim_fb/negf.jpg,stim_fb/posf.jpg,stim_02/a.jpg,stim_02/b.jpg,2,1,j,1,21,81,10,j,1,0.583193344436,02,02,60.0249845539,PLT_learning_02,B,2014_Jan_30_1201,P02,
stim_fb/ques.jpg,stim_fb/negf.jpg,stim_fb/posf.jpg,stim_02/f.jpg,stim_02/e.jpg,1,3,f,1,22,82,43,f,1,0.633184124991,02,02,60.0249845539,PLT_learning_02,B,2014_Jan_30_1201,P02,
stim_fb/ques.jpg,stim_fb/posf.jpg,stim_fb/negf.jpg,stim_02/d.jpg,stim_02/c.jpg,1,2,f,1,23,83,27,f,1,0.583157083191,02,02,60.0249845539,PLT_learning_02,B,2014_Jan_30_1201,P02,
stim_fb/ques.jpg,stim_fb/negf.jpg,stim_fb/posf.jpg,stim_02/a.jpg,stim_02/b.jpg,2,1,j,1,24,84,15,j,1,0.63317495517,02,02,60.0249845539,PLT_learning_02,B,2014_Jan_30_1201,P02,
stim_fb/ques.jpg,stim_fb/negf.jpg,stim_fb/posf.jpg,stim_02/b.jpg,stim_02/a.jpg,1,1,f,1,25,85,3,f,1,0.58312935418,02,02,60.0249845539,PLT_learning_02,B,2014_Jan_30_1201,P02,
stim_fb/ques.jpg,stim_fb/negf.jpg,stim_fb/posf.jpg,stim_02/a.jpg,stim_02/b.jpg,2,1,j,1,26,86,11,j,1,0.533208476596,02,02,60.0249845539,PLT_learning_02,B,2014_Jan_30_1201,P02,
stim_fb/ques.jpg,stim_fb/negf.jpg,stim_fb/posf.jpg,stim_02/a.jpg,stim_02/b.jpg,2,1,j,1,27,87,14,j,1,0.6831761326,02,02,60.0249845539,PLT_learning_02,B,2014_Jan_30_1201,P02,
stim_fb/ques.jpg,stim_fb/negf.jpg,stim_fb/posf.jpg,stim_02/e.jpg,stim_02/f.jpg,2,3,j,1,28,88,50,j,1,0.716514728029,02,02,60.0249845539,PLT_learning_02,B,2014_Jan_30_1201,P02,
stim_fb/ques.jpg,stim_fb/posf.jpg,stim_fb/negf.jpg,stim_02/f.jpg,stim_02/e.jpg,1,3,f,1,29,89,49,f,1,0.63318832344,02,02,60.0249845539,PLT_learning_02,B,2014_Jan_30_1201,P02,
stim_fb/ques.jpg,stim_fb/posf.jpg,stim_fb/negf.jpg,stim_02/b.jpg,stim_02/a.jpg,1,1,f,1,30,90,8,f,1,0.566510386725,02,02,60.0249845539,PLT_learning_02,B,2014_Jan_30_1201,P02,
stim_fb/ques.jpg,stim_fb/posf.jpg,stim_fb/negf.jpg,stim_02/e.jpg,stim_02/f.jpg,2,3,j,1,31,91,56,j,1,0.516573783003,02,02,60.0249845539,PLT_learning_02,B,2014_Jan_30_1201,P02,
stim_fb/ques.jpg,stim_fb/negf.jpg,stim_fb/posf.jpg,stim_02/e.jpg,stim_02/f.jpg,2,3,j,1,32,92,55,j,1,0.599853126469,02,02,60.0249845539,PLT_learning_02,B,2014_Jan_30_1201,P02,
stim_fb/ques.jpg,stim_fb/posf.jpg,stim_fb/negf.jpg,stim_02/d.jpg,stim_02/c.jpg,1,2,f,1,33,93,28,f,1,0.533220825329,02,02,60.0249845539,PLT_learning_02,B,2014_Jan_30_1201,P02,
stim_fb/ques.jpg,stim_fb/negf.jpg,stim_fb/posf.jpg,stim_02/d.jpg,stim_02/c.jpg,1,2,f,1,34,94,23,f,1,0.583177254392,02,02,60.0249845539,PLT_learning_02,B,2014_Jan_30_1201,P02,
stim_fb/ques.jpg,stim_fb/negf.jpg,stim_fb/posf.jpg,stim_02/a.jpg,stim_02/b.jpg,2,1,j,1,35,95,13,j,1,0.54985995797,02,02,60.0249845539,PLT_learning_02,B,2014_Jan_30_1201,P02,
stim_fb/ques.jpg,stim_fb/negf.jpg,stim_fb/posf.jpg,stim_02/d.jpg,stim_02/c.jpg,1,2,f,1,36,96,22,f,1,0.53318437762,02,02,60.0249845539,PLT_learning_02,B,2014_Jan_30_1201,P02,
stim_fb/ques.jpg,stim_fb/negf.jpg,stim_fb/posf.jpg,stim_02/b.jpg,stim_02/a.jpg,1,1,f,1,37,97,2,f,1,0.616524228674,02,02,60.0249845539,PLT_learning_02,B,2014_Jan_30_1201,P02,
stim_fb/ques.jpg,stim_fb/posf.jpg,stim_fb/negf.jpg,stim_02/a.jpg,stim_02/b.jpg,2,1,j,1,38,98,19,j,1,0.48321542539,02,02,60.0249845539,PLT_learning_02,B,2014_Jan_30_1201,P02,
stim_fb/ques.jpg,stim_fb/negf.jpg,stim_fb/posf.jpg,stim_02/a.jpg,stim_02/b.jpg,2,1,j,1,39,99,17,j,1,0.566552211817,02,02,60.0249845539,PLT_learning_02,B,2014_Jan_30_1201,P02,
stim_fb/ques.jpg,stim_fb/negf.jpg,stim_fb/posf.jpg,stim_02/c.jpg,stim_02/d.jpg,2,2,j,1,40,100,30,j,1,0.833137208227,02,02,60.0249845539,PLT_learning_02,B,2014_Jan_30_1201,P02,
stim_fb/ques.jpg,stim_fb/negf.jpg,stim_fb/posf.jpg,stim_02/b.jpg,stim_02/a.jpg,1,1,f,1,41,101,6,f,1,0.666483854693,02,02,60.0249845539,PLT_learning_02,B,2014_Jan_30_1201,P02,
stim_fb/ques.jpg,stim_fb/posf.jpg,stim_fb/negf.jpg,stim_02/f.jpg,stim_02/e.jpg,1,3,f,1,42,102,47,j,0,0.549912540836,02,02,60.0249845539,PLT_learning_02,B,2014_Jan_30_1201,P02,
stim_fb/ques.jpg,stim_fb/posf.jpg,stim_fb/negf.jpg,stim_02/b.jpg,stim_02/a.jpg,1,1,f,1,43,103,9,f,1,0.616417508073,02,02,60.0249845539,PLT_learning_02,B,2014_Jan_30_1201,P02,
stim_fb/ques.jpg,stim_fb/negf.jpg,stim_fb/posf.jpg,stim_02/f.jpg,stim_02/e.jpg,1,3,f,1,44,104,45,f,1,0.833143917926,02,02,60.0249845539,PLT_learning_02,B,2014_Jan_30_1201,P02,
stim_fb/ques.jpg,stim_fb/posf.jpg,stim_fb/negf.jpg,stim_02/e.jpg,stim_02/f.jpg,2,3,j,1,45,105,58,j,1,0.849769739439,02,02,60.0249845539,PLT_learning_02,B,2014_Jan_30_1201,P02,
stim_fb/ques.jpg,stim_fb/posf.jpg,stim_fb/negf.jpg,stim_02/c.jpg,stim_02/d.jpg,2,2,j,1,46,106,39,j,1,0.699843758153,02,02,60.0249845539,PLT_learning_02,B,2014_Jan_30_1201,P02,
stim_fb/ques.jpg,stim_fb/negf.jpg,stim_fb/posf.jpg,stim_02/c.jpg,stim_02/d.jpg,2,2,j,1,47,107,34,j,1,0.599887390744,02,02,60.0249845539,PLT_learning_02,B,2014_Jan_30_1201,P02,
stim_fb/ques.jpg,stim_fb/negf.jpg,stim_fb/posf.jpg,stim_02/f.jpg,stim_02/e.jpg,1,3,f,1,48,108,42,f,1,0.783128391785,02,02,60.0249845539,PLT_learning_02,B,2014_Jan_30_1201,P02,
stim_fb/ques.jpg,stim_fb/posf.jpg,stim_fb/negf.jpg,stim_02/f.jpg,stim_02/e.jpg,1,3,f,1,49,109,48,f,1,0.599835060507,02,02,60.0249845539,PLT_learning_02,B,2014_Jan_30_1201,P02,
stim_fb/ques.jpg,stim_fb/negf.jpg,stim_fb/posf.jpg,stim_02/e.jpg,stim_02/f.jpg,2,3,j,1,50,110,53,j,1,0.84976857855,02,02,60.0249845539,PLT_learning_02,B,2014_Jan_30_1201,P02,
stim_fb/ques.jpg,stim_fb/negf.jpg,stim_fb/posf.jpg,stim_02/d.jpg,stim_02/c.jpg,1,2,f,1,51,111,21,f,1,0.666493304211,02,02,60.0249845539,PLT_learning_02,B,2014_Jan_30_1201,P02,
stim_fb/ques.jpg,stim_fb/negf.jpg,stim_fb/posf.jpg,stim_02/d.jpg,stim_02/c.jpg,1,2,f,1,52,112,26,f,1,0.566531872197,02,02,60.0249845539,PLT_learning_02,B,2014_Jan_30_1201,P02,
stim_fb/ques.jpg,stim_fb/negf.jpg,stim_fb/posf.jpg,stim_02/f.jpg,stim_02/e.jpg,1,3,f,1,53,113,41,f,1,0.716478502874,02,02,60.0249845539,PLT_learning_02,B,2014_Jan_30_1201,P02,
stim_fb/ques.jpg,stim_fb/negf.jpg,stim_fb/posf.jpg,stim_02/c.jpg,stim_02/d.jpg,2,2,j,1,54,114,31,j,1,1.19971051454,02,02,60.0249845539,PLT_learning_02,B,2014_Jan_30_1201,P02,
stim_fb/ques.jpg,stim_fb/posf.jpg,stim_fb/negf.jpg,stim_02/a.jpg,stim_02/b.jpg,2,1,j,1,55,115,18,j,1,0.699815364488,02,02,60.0249845539,PLT_learning_02,B,2014_Jan_30_1201,P02,
stim_fb/ques.jpg,stim_fb/posf.jpg,stim_fb/negf.jpg,stim_02/c.jpg,stim_02/d.jpg,2,2,j,1,56,116,37,j,1,0.616519834739,02,02,60.0249845539,PLT_learning_02,B,2014_Jan_30_1201,P02,
stim_fb/ques.jpg,stim_fb/negf.jpg,stim_fb/posf.jpg,stim_02/a.jpg,stim_02/b.jpg,2,1,j,1,57,117,12,j,1,0.716493955331,02,02,60.0249845539,PLT_learning_02,B,2014_Jan_30_1201,P02,
stim_fb/ques.jpg,stim_fb/negf.jpg,stim_fb/posf.jpg,stim_02/b.jpg,stim_02/a.jpg,1,1,f,1,58,118,1,f,1,0.61652209336,02,02,60.0249845539,PLT_learning_02,B,2014_Jan_30_1201,P02,
stim_fb/ques.jpg,stim_fb/negf.jpg,stim_fb/posf.jpg,stim_02/c.jpg,stim_02/d.jpg,2,2,j,1,59,119,36,j,1,0.549845194227,02,02,60.0249845539,PLT_learning_02,B,2014_Jan_30_1201,P02,
stim_fb/ques.jpg,stim_fb/negf.jpg,stim_fb/posf.jpg,stim_02/d.jpg,stim_02/c.jpg,1,2,f,2,0,120,23,f,1,0.666489144859,02,02,60.0249845539,PLT_learning_02,B,2014_Jan_30_1201,P02,
stim_fb/ques.jpg,stim_fb/negf.jpg,stim_fb/posf.jpg,stim_02/a.jpg,stim_02/b.jpg,2,1,j,2,1,121,12,j,1,0.566544611903,02,02,60.0249845539,PLT_learning_02,B,2014_Jan_30_1201,P02,
stim_fb/ques.jpg,stim_fb/negf.jpg,stim_fb/posf.jpg,stim_02/f.jpg,stim_02/e.jpg,1,3,f,2,2,122,44,f,1,0.799785184378,02,02,60.0249845539,PLT_learning_02,B,2014_Jan_30_1201,P02,
stim_fb/ques.jpg,stim_fb/negf.jpg,stim_fb/posf.jpg,stim_02/b.jpg,stim_02/a.jpg,1,1,f,2,3,123,3,f,1,0.599865655651,02,02,60.0249845539,PLT_learning_02,B,2014_Jan_30_1201,P02,
stim_fb/ques.jpg,stim_fb/negf.jpg,stim_fb/posf.jpg,stim_02/c.jpg,stim_02/d.jpg,2,2,j,2,4,124,30,j,1,0.816472172118,02,02,60.0249845539,PLT_learning_02,B,2014_Jan_30_1201,P02,
stim_fb/ques.jpg,stim_fb/negf.jpg,stim_fb/posf.jpg,stim_02/f.jpg,stim_02/e.jpg,1,3,f,2,5,125,45,f,1,0.816464376717,02,02,60.0249845539,PLT_learning_02,B,2014_Jan_30_1201,P02,
stim_fb/ques.jpg,stim_fb/negf.jpg,stim_fb/posf.jpg,stim_02/b.jpg,stim_02/a.jpg,1,1,f,2,6,126,6,f,1,0.533204091683,02,02,60.0249845539,PLT_learning_02,B,2014_Jan_30_1201,P02,
stim_fb/ques.jpg,stim_fb/negf.jpg,stim_fb/posf.jpg,stim_02/d.jpg,stim_02/c.jpg,1,2,f,2,7,127,21,f,1,0.583201834566,02,02,60.0249845539,PLT_learning_02,B,2014_Jan_30_1201,P02,
stim_fb/ques.jpg,stim_fb/posf.jpg,stim_fb/negf.jpg,stim_02/c.jpg,stim_02/d.jpg,2,2,j,2,8,128,37,j,1,0.549934008263,02,02,60.0249845539,PLT_learning_02,B,2014_Jan_30_1201,P02,
stim_fb/ques.jpg,stim_fb/posf.jpg,stim_fb/negf.jpg,stim_02/a.jpg,stim_02/b.jpg,2,1,j,2,9,129,18,j,1,0.533197763935,02,02,60.0249845539,PLT_learning_02,B,2014_Jan_30_1201,P02,
stim_fb/ques.jpg,stim_fb/negf.jpg,stim_fb/posf.jpg,stim_02/b.jpg,stim_02/a.jpg,1,1,f,2,10,130,5,f,1,0.533380282177,02,02,60.0249845539,PLT_learning_02,B,2014_Jan_30_1201,P02,
stim_fb/ques.jpg,stim_fb/posf.jpg,stim_fb/negf.jpg,stim_02/b.jpg,stim_02/a.jpg,1,1,f,2,11,131,8,f,1,0.583205642042,02,02,60.0249845539,PLT_learning_02,B,2014_Jan_30_1201,P02,
stim_fb/ques.jpg,stim_fb/negf.jpg,stim_fb/posf.jpg,stim_02/e.jpg,stim_02/f.jpg,2,3,j,2,12,132,54,j,1,0.633152913313,02,02,60.0249845539,PLT_learning_02,B,2014_Jan_30_1201,P02,
stim_fb/ques.jpg,stim_fb/posf.jpg,stim_fb/negf.jpg,stim_02/c.jpg,stim_02/d.jpg,2,2,j,2,13,133,39,j,1,0.73313856761,02,02,60.0249845539,PLT_learning_02,B,2014_Jan_30_1201,P02,
stim_fb/ques.jpg,stim_fb/posf.jpg,stim_fb/negf.jpg,stim_02/c.jpg,stim_02/d.jpg,2,2,j,2,14,134,38,j,1,0.633169331173,02,02,60.0249845539,PLT_learning_02,B,2014_Jan_30_1201,P02,
stim_fb/ques.jpg,stim_fb/negf.jpg,stim_fb/posf.jpg,stim_02/c.jpg,stim_02/d.jpg,2,2,j,2,15,135,34,j,1,0.599787933219,02,02,60.0249845539,PLT_learning_02,B,2014_Jan_30_1201,P02,
stim_fb/ques.jpg,stim_fb/negf.jpg,stim_fb/posf.jpg,stim_02/d.jpg,stim_02/c.jpg,1,2,f,2,16,136,25,f,1,0.499955008026,02,02,60.0249845539,PLT_learning_02,B,2014_Jan_30_1201,P02,
stim_fb/ques.jpg,stim_fb/posf.jpg,stim_fb/negf.jpg,stim_02/f.jpg,stim_02/e.jpg,1,3,f,2,17,137,46,j,0,0.499893895934,02,02,60.0249845539,PLT_learning_02,B,2014_Jan_30_1201,P02,
stim_fb/ques.jpg,stim_fb/negf.jpg,stim_fb/posf.jpg,stim_02/a.jpg,stim_02/b.jpg,2,1,j,2,18,138,15,j,1,0.766454510663,02,02,60.0249845539,PLT_learning_02,B,2014_Jan_30_1201,P02,
stim_fb/ques.jpg,stim_fb/negf.jpg,stim_fb/posf.jpg,stim_02/c.jpg,stim_02/d.jpg,2,2,j,2,19,139,31,j,1,0.916401760883,02,02,60.0249845539,PLT_learning_02,B,2014_Jan_30_1201,P02,
stim_fb/ques.jpg,stim_fb/negf.jpg,stim_fb/posf.jpg,stim_02/d.jpg,stim_02/c.jpg,1,2,f,2,20,140,20,f,1,0.833087512547,02,02,60.0249845539,PLT_learning_02,B,2014_Jan_30_1201,P02,
stim_fb/ques.jpg,stim_fb/negf.jpg,stim_fb/posf.jpg,stim_02/c.jpg,stim_02/d.jpg,2,2,j,2,21,141,36,j,1,0.749815065244,02,02,60.0249845539,PLT_learning_02,B,2014_Jan_30_1201,P02,
stim_fb/ques.jpg,stim_fb/posf.jpg,stim_fb/negf.jpg,stim_02/e.jpg,stim_02/f.jpg,2,3,j,2,22,142,57,f,0,0.866426538047,02,02,60.0249845539,PLT_learning_02,B,2014_Jan_30_1201,P02,
stim_fb/ques.jpg,stim_fb/negf.jpg,stim_fb/posf.jpg,stim_02/a.jpg,stim_02/b.jpg,2,1,j,2,23,143,17,j,1,0.916410515671,02,02,60.0249845539,PLT_learning_02,B,2014_Jan_30_1201,P02,
stim_fb/ques.jpg,stim_fb/negf.jpg,stim_fb/posf.jpg,stim_02/f.jpg,stim_02/e.jpg,1,3,f,2,24,144,43,f,1,1.23304533257,02,02,60.0249845539,PLT_learning_02,B,2014_Jan_30_1201,P02,
stim_fb/ques.jpg,stim_fb/negf.jpg,stim_fb/posf.jpg,stim_02/f.jpg,stim_02/e.jpg,1,3,f,2,25,145,41,j,0,1.04971099424,02,02,60.0249845539,PLT_learning_02,B,2014_Jan_30_1201,P02,
stim_fb/ques.jpg,stim_fb/negf.jpg,stim_fb/posf.jpg,stim_02/b.jpg,stim_02/a.jpg,1,1,f,2,26,146,0,f,1,0.799786011436,02,02,60.0249845539,PLT_learning_02,B,2014_Jan_30_1201,P02,
stim_fb/ques.jpg,stim_fb/negf.jpg,stim_fb/posf.jpg,stim_02/b.jpg,stim_02/a.jpg,1,1,f,2,27,147,7,f,1,0.699792555723,02,02,60.0249845539,PLT_learning_02,B,2014_Jan_30_1201,P02,
stim_fb/ques.jpg,stim_fb/negf.jpg,stim_fb/posf.jpg,stim_02/e.jpg,stim_02/f.jpg,2,3,j,2,28,148,55,j,1,1.01637321384,02,02,60.0249845539,PLT_learning_02,B,2014_Jan_30_1201,P02,
stim_fb/ques.jpg,stim_fb/negf.jpg,stim_fb/posf.jpg,stim_02/c.jpg,stim_02/d.jpg,2,2,j,2,29,149,32,j,1,0.883105634147,02,02,60.0249845539,PLT_learning_02,B,2014_Jan_30_1201,P02,
stim_fb/ques.jpg,stim_fb/negf.jpg,stim_fb/posf.jpg,stim_02/a.jpg,stim_02/b.jpg,2,1,j,2,30,150,13,j,1,0.799779987444,02,02,60.0249845539,PLT_learning_02,B,2014_Jan_30_1201,P02,
stim_fb/ques.jpg,stim_fb/negf.jpg,stim_fb/posf.jpg,stim_02/b.jpg,stim_02/a.jpg,1,1,f,2,31,151,2,j,0,0.799789124183,02,02,60.0249845539,PLT_learning_02,B,2014_Jan_30_1201,P02,
stim_fb/ques.jpg,stim_fb/negf.jpg,stim_fb/posf.jpg,stim_02/b.jpg,stim_02/a.jpg,1,1,f,2,32,152,1,f,1,0.666455461029,02,02,60.0249845539,PLT_learning_02,B,2014_Jan_30_1201,P02,
stim_fb/ques.jpg,stim_fb/negf.jpg,stim_fb/posf.jpg,stim_02/d.jpg,stim_02/c.jpg,1,2,f,2,33,153,22,f,1,0.783158749337,02,02,60.0249845539,PLT_learning_02,B,2014_Jan_30_1201,P02,
stim_fb/ques.jpg,stim_fb/negf.jpg,stim_fb/posf.jpg,stim_02/e.jpg,stim_02/f.jpg,2,3,j,2,34,154,50,j,1,0.783112737826,02,02,60.0249845539,PLT_learning_02,B,2014_Jan_30_1201,P02,
stim_fb/ques.jpg,stim_fb/posf.jpg,stim_fb/negf.jpg,stim_02/e.jpg,stim_02/f.jpg,2,3,j,2,35,155,56,f,0,0.983022570422,02,02,60.0249845539,PLT_learning_02,B,2014_Jan_30_1201,P02,
stim_fb/ques.jpg,stim_fb/negf.jpg,stim_fb/posf.jpg,stim_02/a.jpg,stim_02/b.jpg,2,1,j,2,36,156,14,j,1,0.733167087589,02,02,60.0249845539,PLT_learning_02,B,2014_Jan_30_1201,P02,
stim_fb/ques.jpg,stim_fb/posf.jpg,stim_fb/negf.jpg,stim_02/d.jpg,stim_02/c.jpg,1,2,f,2,37,157,28,f,1,0.616654588106,02,02,60.0249845539,PLT_learning_02,B,2014_Jan_30_1201,P02,
stim_fb/ques.jpg,stim_fb/negf.jpg,stim_fb/posf.jpg,stim_02/e.jpg,stim_02/f.jpg,2,3,j,2,38,158,53,j,1,0.89974144051,02,02,60.0249845539,PLT_learning_02,B,2014_Jan_30_1201,P02,
stim_fb/ques.jpg,stim_fb/negf.jpg,stim_fb/posf.jpg,stim_02/f.jpg,stim_02/e.jpg,1,3,f,2,39,159,40,f,1,0.799729269218,02,02,60.0249845539,PLT_learning_02,B,2014_Jan_30_1201,P02,
stim_fb/ques.jpg,stim_fb/negf.jpg,stim_fb/posf.jpg,stim_02/a.jpg,stim_02/b.jpg,2,1,j,2,40,160,16,j,1,0.666510125074,02,02,60.0249845539,PLT_learning_02,B,2014_Jan_30_1201,P02,
stim_fb/ques.jpg,stim_fb/posf.jpg,stim_fb/negf.jpg,stim_02/e.jpg,stim_02/f.jpg,2,3,j,2,41,161,59,f,0,0.649848141562,02,02,60.0249845539,PLT_learning_02,B,2014_Jan_30_1201,P02,
stim_fb/ques.jpg,stim_fb/posf.jpg,stim_fb/negf.jpg,stim_02/d.jpg,stim_02/c.jpg,1,2,f,2,42,162,29,f,1,0.883102190577,02,02,60.0249845539,PLT_learning_02,B,2014_Jan_30_1201,P02,
stim_fb/ques.jpg,stim_fb/negf.jpg,stim_fb/posf.jpg,stim_02/a.jpg,stim_02/b.jpg,2,1,j,2,43,163,11,j,1,0.583228953057,02,02,60.0249845539,PLT_learning_02,B,2014_Jan_30_1201,P02,
stim_fb/ques.jpg,stim_fb/posf.jpg,stim_fb/negf.jpg,stim_02/f.jpg,stim_02/e.jpg,1,3,f,2,44,164,47,f,1,0.933095960572,02,02,60.0249845539,PLT_learning_02,B,2014_Jan_30_1201,P02,
stim_fb/ques.jpg,stim_fb/posf.jpg,stim_fb/negf.jpg,stim_02/f.jpg,stim_02/e.jpg,1,3,f,2,45,165,48,j,0,0.899720872321,02,02,60.0249845539,PLT_learning_02,B,2014_Jan_30_1201,P02,
stim_fb/ques.jpg,stim_fb/posf.jpg,stim_fb/negf.jpg,stim_02/f.jpg,stim_02/e.jpg,1,3,f,2,46,166,49,f,1,0.883073658568,02,02,60.0249845539,PLT_learning_02,B,2014_Jan_30_1201,P02,
stim_fb/ques.jpg,stim_fb/negf.jpg,stim_fb/posf.jpg,stim_02/e.jpg,stim_02/f.jpg,2,3,j,2,47,167,52,j,1,1.08304403183,02,02,60.0249845539,PLT_learning_02,B,2014_Jan_30_1201,P02,
stim_fb/ques.jpg,stim_fb/negf.jpg,stim_fb/posf.jpg,stim_02/c.jpg,stim_02/d.jpg,2,2,j,2,48,168,33,j,1,0.94971289196,02,02,60.0249845539,PLT_learning_02,B,2014_Jan_30_1201,P02,
stim_fb/ques.jpg,stim_fb/negf.jpg,stim_fb/posf.jpg,stim_02/f.jpg,stim_02/e.jpg,1,3,f,2,49,169,42,f,1,0.716463360188,02,02,60.0249845539,PLT_learning_02,B,2014_Jan_30_1201,P02,
stim_fb/ques.jpg,stim_fb/posf.jpg,stim_fb/negf.jpg,stim_02/b.jpg,stim_02/a.jpg,1,1,f,2,50,170,9,f,1,0.666513496465,02,02,60.0249845539,PLT_learning_02,B,2014_Jan_30_1201,P02,
stim_fb/ques.jpg,stim_fb/negf.jpg,stim_fb/posf.jpg,stim_02/a.jpg,stim_02/b.jpg,2,1,j,2,51,171,10,j,1,0.516531181979,02,02,60.0249845539,PLT_learning_02,B,2014_Jan_30_1201,P02,
stim_fb/ques.jpg,stim_fb/negf.jpg,stim_fb/posf.jpg,stim_02/c.jpg,stim_02/d.jpg,2,2,j,2,52,172,35,j,1,0.74980871945,02,02,60.0249845539,PLT_learning_02,B,2014_Jan_30_1201,P02,
stim_fb/ques.jpg,stim_fb/negf.jpg,stim_fb/posf.jpg,stim_02/e.jpg,stim_02/f.jpg,2,3,j,2,53,173,51,j,1,0.733150796043,02,02,60.0249845539,PLT_learning_02,B,2014_Jan_30_1201,P02,
stim_fb/ques.jpg,stim_fb/negf.jpg,stim_fb/posf.jpg,stim_02/d.jpg,stim_02/c.jpg,1,2,f,2,54,174,24,f,1,0.499876587858,02,02,60.0249845539,PLT_learning_02,B,2014_Jan_30_1201,P02,
stim_fb/ques.jpg,stim_fb/posf.jpg,stim_fb/negf.jpg,stim_02/e.jpg,stim_02/f.jpg,2,3,j,2,55,175,58,j,1,0.633153941873,02,02,60.0249845539,PLT_learning_02,B,2014_Jan_30_1201,P02,
stim_fb/ques.jpg,stim_fb/posf.jpg,stim_fb/negf.jpg,stim_02/a.jpg,stim_02/b.jpg,2,1,j,2,56,176,19,j,1,0.633212822412,02,02,60.0249845539,PLT_learning_02,B,2014_Jan_30_1201,P02,
stim_fb/ques.jpg,stim_fb/negf.jpg,stim_fb/posf.jpg,stim_02/d.jpg,stim_02/c.jpg,1,2,f,2,57,177,26,f,1,0.516529792521,02,02,60.0249845539,PLT_learning_02,B,2014_Jan_30_1201,P02,
stim_fb/ques.jpg,stim_fb/negf.jpg,stim_fb/posf.jpg,stim_02/b.jpg,stim_02/a.jpg,1,1,f,2,58,178,4,f,1,0.666474811186,02,02,60.0249845539,PLT_learning_02,B,2014_Jan_30_1201,P02,
stim_fb/ques.jpg,stim_fb/posf.jpg,stim_fb/negf.jpg,stim_02/d.jpg,stim_02/c.jpg,1,2,f,2,59,179,27,f,1,0.616537172889,02,02,60.0249845539,PLT_learning_02,B,2014_Jan_30_1201,P02,
stim_fb/ques.jpg,stim_fb/negf.jpg,stim_fb/posf.jpg,stim_02/d.jpg,stim_02/c.jpg,1,2,f,3,0,180,23,f,1,0.616510174697,02,02,60.0249845539,PLT_learning_02,B,2014_Jan_30_1201,P02,
stim_fb/ques.jpg,stim_fb/negf.jpg,stim_fb/posf.jpg,stim_02/d.jpg,stim_02/c.jpg,1,2,f,3,1,181,22,f,1,0.516536045082,02,02,60.0249845539,PLT_learning_02,B,2014_Jan_30_1201,P02,
stim_fb/ques.jpg,stim_fb/negf.jpg,stim_fb/posf.jpg,stim_02/e.jpg,stim_02/f.jpg,2,3,j,3,2,182,52,j,1,0.683160283155,02,02,60.0249845539,PLT_learning_02,B,2014_Jan_30_1201,P02,
stim_fb/ques.jpg,stim_fb/negf.jpg,stim_fb/posf.jpg,stim_02/d.jpg,stim_02/c.jpg,1,2,f,3,3,183,25,f,1,0.499838600317,02,02,60.0249845539,PLT_learning_02,B,2014_Jan_30_1201,P02,
stim_fb/ques.jpg,stim_fb/negf.jpg,stim_fb/posf.jpg,stim_02/b.jpg,stim_02/a.jpg,1,1,f,3,4,184,4,f,1,0.866404577392,02,02,60.0249845539,PLT_learning_02,B,2014_Jan_30_1201,P02,
stim_fb/ques.jpg,stim_fb/negf.jpg,stim_fb/posf.jpg,stim_02/f.jpg,stim_02/e.jpg,1,3,f,3,5,185,43,f,1,0.716490638075,02,02,60.0249845539,PLT_learning_02,B,2014_Jan_30_1201,P02,
stim_fb/ques.jpg,stim_fb/posf.jpg,stim_fb/negf.jpg,stim_02/f.jpg,stim_02/e.jpg,1,3,f,3,6,186,49,f,1,0.633163445525,02,02,60.0249845539,PLT_learning_02,B,2014_Jan_30_1201,P02,
stim_fb/ques.jpg,stim_fb/negf.jpg,stim_fb/posf.jpg,stim_02/c.jpg,stim_02/d.jpg,2,2,j,3,7,187,35,j,1,0.716482734405,02,02,60.0249845539,PLT_learning_02,B,2014_Jan_30_1201,P02,
stim_fb/ques.jpg,stim_fb/negf.jpg,stim_fb/posf.jpg,stim_02/a.jpg,stim_02/b.jpg,2,1,j,3,8,188,10,j,1,0.583176301019,02,02,60.0249845539,PLT_learning_02,B,2014_Jan_30_1201,P02,
stim_fb/ques.jpg,stim_fb/negf.jpg,stim_fb/posf.jpg,stim_02/f.jpg,stim_02/e.jpg,1,3,f,3,9,189,45,f,1,0.483258312124,02,02,60.0249845539,PLT_learning_02,B,2014_Jan_30_1201,P02,
stim_fb/ques.jpg,stim_fb/negf.jpg,stim_fb/posf.jpg,stim_02/b.jpg,stim_02/a.jpg,1,1,f,3,10,190,7,f,1,0.583160508716,02,02,60.0249845539,PLT_learning_02,B,2014_Jan_30_1201,P02,
stim_fb/ques.jpg,stim_fb/negf.jpg,stim_fb/posf.jpg,stim_02/e.jpg,stim_02/f.jpg,2,3,j,3,11,191,53,j,1,0.633037398826,02,02,60.0249845539,PLT_learning_02,B,2014_Jan_30_1201,P02,
stim_fb/ques.jpg,stim_fb/posf.jpg,stim_fb/negf.jpg,stim_02/c.jpg,stim_02/d.jpg,2,2,j,3,12,192,38,j,1,0.683160226013,02,02,60.0249845539,PLT_learning_02,B,2014_Jan_30_1201,P02,
stim_fb/ques.jpg,stim_fb/negf.jpg,stim_fb/posf.jpg,stim_02/b.jpg,stim_02/a.jpg,1,1,f,3,13,193,3,f,1,0.516549250949,02,02,60.0249845539,PLT_learning_02,B,2014_Jan_30_1201,P02,
stim_fb/ques.jpg,stim_fb/negf.jpg,stim_fb/posf.jpg,stim_02/f.jpg,stim_02/e.jpg,1,3,f,3,14,194,41,f,1,0.966385876851,02,02,60.0249845539,PLT_learning_02,B,2014_Jan_30_1201,P02,
stim_fb/ques.jpg,stim_fb/posf.jpg,stim_fb/negf.jpg,stim_02/f.jpg,stim_02/e.jpg,1,3,f,3,15,195,46,f,1,0.583149549441,02,02,60.0249845539,PLT_learning_02,B,2014_Jan_30_1201,P02,
stim_fb/ques.jpg,stim_fb/posf.jpg,stim_fb/negf.jpg,stim_02/d.jpg,stim_02/c.jpg,1,2,f,3,16,196,28,f,1,0.683157212513,02,02,60.0249845539,PLT_learning_02,B,2014_Jan_30_1201,P02,
stim_fb/ques.jpg,stim_fb/negf.jpg,stim_fb/posf.jpg,stim_02/e.jpg,stim_02/f.jpg,2,3,j,3,17,197,55,j,1,0.666510708526,02,02,60.0249845539,PLT_learning_02,B,2014_Jan_30_1201,P02,
stim_fb/ques.jpg,stim_fb/negf.jpg,stim_fb/posf.jpg,stim_02/a.jpg,stim_02/b.jpg,2,1,j,3,18,198,14,j,1,0.733146952478,02,02,60.0249845539,PLT_learning_02,B,2014_Jan_30_1201,P02,
stim_fb/ques.jpg,stim_fb/negf.jpg,stim_fb/posf.jpg,stim_02/a.jpg,stim_02/b.jpg,2,1,j,3,19,199,13,j,1,0.583147570516,02,02,60.0249845539,PLT_learning_02,B,2014_Jan_30_1201,P02,
stim_fb/ques.jpg,stim_fb/negf.jpg,stim_fb/posf.jpg,stim_02/b.jpg,stim_02/a.jpg,1,1,f,3,20,200,5,f,1,0.483229698913,02,02,60.0249845539,PLT_learning_02,B,2014_Jan_30_1201,P02,
stim_fb/ques.jpg,stim_fb/posf.jpg,stim_fb/negf.jpg,stim_02/c.jpg,stim_02/d.jpg,2,2,j,3,21,201,37,j,1,0.549850306952,02,02,60.0249845539,PLT_learning_02,B,2014_Jan_30_1201,P02,
stim_fb/ques.jpg,stim_fb/posf.jpg,stim_fb/negf.jpg,stim_02/b.jpg,stim_02/a.jpg,1,1,f,3,22,202,8,f,1,0.483214881035,02,02,60.0249845539,PLT_learning_02,B,2014_Jan_30_1201,P02,
stim_fb/ques.jpg,stim_fb/negf.jpg,stim_fb/posf.jpg,stim_02/c.jpg,stim_02/d.jpg,2,2,j,3,23,203,36,j,1,0.549882694556,02,02,60.0249845539,PLT_learning_02,B,2014_Jan_30_1201,P02,
stim_fb/ques.jpg,stim_fb/negf.jpg,stim_fb/posf.jpg,stim_02/c.jpg,stim_02/d.jpg,2,2,j,3,24,204,31,j,1,0.548889674177,02,02,60.0249845539,PLT_learning_02,B,2014_Jan_30_1201,P02,
stim_fb/ques.jpg,stim_fb/negf.jpg,stim_fb/posf.jpg,stim_02/c.jpg,stim_02/d.jpg,2,2,j,3,25,205,30,j,1,0.566523911385,02,02,60.0249845539,PLT_learning_02,B,2014_Jan_30_1201,P02,
stim_fb/ques.jpg,stim_fb/negf.jpg,stim_fb/posf.jpg,stim_02/c.jpg,stim_02/d.jpg,2,2,j,3,26,206,34,j,1,0.533208981853,02,02,60.0249845539,PLT_learning_02,B,2014_Jan_30_1201,P02,
stim_fb/ques.jpg,stim_fb/negf.jpg,stim_fb/posf.jpg,stim_02/c.jpg,stim_02/d.jpg,2,2,j,3,27,207,33,j,1,0.51650471912,02,02,60.0249845539,PLT_learning_02,B,2014_Jan_30_1201,P02,
stim_fb/ques.jpg,stim_fb/negf.jpg,stim_fb/posf.jpg,stim_02/c.jpg,stim_02/d.jpg,2,2,j,3,28,208,32,j,1,0.499872428506,02,02,60.0249845539,PLT_learning_02,B,2014_Jan_30_1201,P02,
stim_fb/ques.jpg,stim_fb/negf.jpg,stim_fb/posf.jpg,stim_02/e.jpg,stim_02/f.jpg,2,3,j,3,29,209,54,j,1,1.21631761146,02,02,60.0249845539,PLT_learning_02,B,2014_Jan_30_1201,P02,
stim_fb/ques.jpg,stim_fb/posf.jpg,stim_fb/negf.jpg,stim_02/a.jpg,stim_02/b.jpg,2,1,j,3,30,210,19,j,1,0.849762332004,02,02,60.0249845539,PLT_learning_02,B,2014_Jan_30_1201,P02,
stim_fb/ques.jpg,stim_fb/negf.jpg,stim_fb/posf.jpg,stim_02/d.jpg,stim_02/c.jpg,1,2,f,3,31,211,20,f,1,0.566529117341,02,02,60.0249845539,PLT_learning_02,B,2014_Jan_30_1201,P02,
stim_fb/ques.jpg,stim_fb/negf.jpg,stim_fb/posf.jpg,stim_02/f.jpg,stim_02/e.jpg,1,3,f,3,32,212,40,f,1,0.899730926343,02,02,60.0249845539,PLT_learning_02,B,2014_Jan_30_1201,P02,
stim_fb/ques.jpg,stim_fb/negf.jpg,stim_fb/posf.jpg,stim_02/d.jpg,stim_02/c.jpg,1,2,f,3,33,213,24,f,1,0.799842470949,02,02,60.0249845539,PLT_learning_02,B,2014_Jan_30_1201,P02,
stim_fb/ques.jpg,stim_fb/posf.jpg,stim_fb/negf.jpg,stim_02/f.jpg,stim_02/e.jpg,1,3,f,3,34,214,47,f,1,0.649833504133,02,02,60.0249845539,PLT_learning_02,B,2014_Jan_30_1201,P02,
stim_fb/ques.jpg,stim_fb/posf.jpg,stim_fb/negf.jpg,stim_02/c.jpg,stim_02/d.jpg,2,2,j,3,35,215,39,j,1,0.533219814814,02,02,60.0249845539,PLT_learning_02,B,2014_Jan_30_1201,P02,
stim_fb/ques.jpg,stim_fb/negf.jpg,stim_fb/posf.jpg,stim_02/b.jpg,stim_02/a.jpg,1,1,f,3,36,216,2,f,1,0.583182893426,02,02,60.0249845539,PLT_learning_02,B,2014_Jan_30_1201,P02,
stim_fb/ques.jpg,stim_fb/posf.jpg,stim_fb/negf.jpg,stim_02/e.jpg,stim_02/f.jpg,2,3,j,3,37,217,57,j,1,0.549863377481,02,02,60.0249845539,PLT_learning_02,B,2014_Jan_30_1201,P02,
stim_fb/ques.jpg,stim_fb/negf.jpg,stim_fb/posf.jpg,stim_02/e.jpg,stim_02/f.jpg,2,3,j,3,38,218,50,f,0,0.533249291173,02,02,60.0249845539,PLT_learning_02,B,2014_Jan_30_1201,P02,
stim_fb/ques.jpg,stim_fb/negf.jpg,stim_fb/posf.jpg,stim_02/a.jpg,stim_02/b.jpg,2,1,j,3,39,219,17,j,1,0.599853905407,02,02,60.0249845539,PLT_learning_02,B,2014_Jan_30_1201,P02,
stim_fb/ques.jpg,stim_fb/negf.jpg,stim_fb/posf.jpg,stim_02/e.jpg,stim_02/f.jpg,2,3,j,3,40,220,51,j,1,0.583200520295,02,02,60.0249845539,PLT_learning_02,B,2014_Jan_30_1201,P02,
stim_fb/ques.jpg,stim_fb/posf.jpg,stim_fb/negf.jpg,stim_02/e.jpg,stim_02/f.jpg,2,3,j,3,41,221,58,j,1,0.533151355436,02,02,60.0249845539,PLT_learning_02,B,2014_Jan_30_1201,P02,
stim_fb/ques.jpg,stim_fb/posf.jpg,stim_fb/negf.jpg,stim_02/f.jpg,stim_02/e.jpg,1,3,f,3,42,222,48,f,1,0.533194019616,02,02,60.0249845539,PLT_learning_02,B,2014_Jan_30_1201,P02,
stim_fb/ques.jpg,stim_fb/posf.jpg,stim_fb/negf.jpg,stim_02/e.jpg,stim_02/f.jpg,2,3,j,3,43,223,56,j,1,0.516606435266,02,02,60.0249845539,PLT_learning_02,B,2014_Jan_30_1201,P02,
stim_fb/ques.jpg,stim_fb/negf.jpg,stim_fb/posf.jpg,stim_02/b.jpg,stim_02/a.jpg,1,1,f,3,44,224,0,f,1,0.499882115615,02,02,60.0249845539,PLT_learning_02,B,2014_Jan_30_1201,P02,
stim_fb/ques.jpg,stim_fb/negf.jpg,stim_fb/posf.jpg,stim_02/b.jpg,stim_02/a.jpg,1,1,f,3,45,225,6,f,1,0.649843561163,02,02,60.0249845539,PLT_learning_02,B,2014_Jan_30_1201,P02,
stim_fb/ques.jpg,stim_fb/posf.jpg,stim_fb/negf.jpg,stim_02/d.jpg,stim_02/c.jpg,1,2,f,3,46,226,27,f,1,0.616500436461,02,02,60.0249845539,PLT_learning_02,B,2014_Jan_30_1201,P02,
stim_fb/ques.jpg,stim_fb/posf.jpg,stim_fb/negf.jpg,stim_02/d.jpg,stim_02/c.jpg,1,2,f,3,47,227,29,f,1,0.549854800134,02,02,60.0249845539,PLT_learning_02,B,2014_Jan_30_1201,P02,
stim_fb/ques.jpg,stim_fb/negf.jpg,stim_fb/posf.jpg,stim_02/d.jpg,stim_02/c.jpg,1,2,f,3,48,228,21,f,1,0.5831922046,02,02,60.0249845539,PLT_learning_02,B,2014_Jan_30_1201,P02,
stim_fb/ques.jpg,stim_fb/negf.jpg,stim_fb/posf.jpg,stim_02/b.jpg,stim_02/a.jpg,1,1,f,3,49,229,1,f,1,0.483235954482,02,02,60.0249845539,PLT_learning_02,B,2014_Jan_30_1201,P02,
stim_fb/ques.jpg,stim_fb/negf.jpg,stim_fb/posf.jpg,stim_02/f.jpg,stim_02/e.jpg,1,3,f,3,50,230,44,f,1,0.7331147363,02,02,60.0249845539,PLT_learning_02,B,2014_Jan_30_1201,P02,
stim_fb/ques.jpg,stim_fb/posf.jpg,stim_fb/negf.jpg,stim_02/e.jpg,stim_02/f.jpg,2,3,j,3,51,231,59,j,1,0.566525896324,02,02,60.0249845539,PLT_learning_02,B,2014_Jan_30_1201,P02,
stim_fb/ques.jpg,stim_fb/negf.jpg,stim_fb/posf.jpg,stim_02/f.jpg,stim_02/e.jpg,1,3,f,3,52,232,42,f,1,0.516553680974,02,02,60.0249845539,PLT_learning_02,B,2014_Jan_30_1201,P02,
stim_fb/ques.jpg,stim_fb/negf.jpg,stim_fb/posf.jpg,stim_02/d.jpg,stim_02/c.jpg,1,2,f,3,53,233,26,f,1,0.516539488653,02,02,60.0249845539,PLT_learning_02,B,2014_Jan_30_1201,P02,
stim_fb/ques.jpg,stim_fb/negf.jpg,stim_fb/posf.jpg,stim_02/a.jpg,stim_02/b.jpg,2,1,j,3,54,234,15,j,1,0.633210199885,02,02,60.0249845539,PLT_learning_02,B,2014_Jan_30_1201,P02,
stim_fb/ques.jpg,stim_fb/negf.jpg,stim_fb/posf.jpg,stim_02/a.jpg,stim_02/b.jpg,2,1,j,3,55,235,11,j,1,0.849779757371,02,02,60.0249845539,PLT_learning_02,B,2014_Jan_30_1201,P02,
stim_fb/ques.jpg,stim_fb/posf.jpg,stim_fb/negf.jpg,stim_02/a.jpg,stim_02/b.jpg,2,1,j,3,56,236,18,j,1,0.68314933591,02,02,60.0249845539,PLT_learning_02,B,2014_Jan_30_1201,P02,
stim_fb/ques.jpg,stim_fb/negf.jpg,stim_fb/posf.jpg,stim_02/a.jpg,stim_02/b.jpg,2,1,j,3,57,237,12,j,1,0.533210100638,02,02,60.0249845539,PLT_learning_02,B,2014_Jan_30_1201,P02,
stim_fb/ques.jpg,stim_fb/negf.jpg,stim_fb/posf.jpg,stim_02/a.jpg,stim_02/b.jpg,2,1,j,3,58,238,16,j,1,0.533173021357,02,02,60.0249845539,PLT_learning_02,B,2014_Jan_30_1201,P02,
stim_fb/ques.jpg,stim_fb/posf.jpg,stim_fb/negf.jpg,stim_02/b.jpg,stim_02/a.jpg,1,1,f,3,59,239,9,f,1,0.516531461675,02,02,60.0249845539,PLT_learning_02,B,2014_Jan_30_1201,P02,
stim_fb/ques.jpg,stim_fb/negf.jpg,stim_fb/posf.jpg,stim_02/a.jpg,stim_02/b.jpg,2,1,j,4,0,240,10,j,1,0.633168549227,02,02,60.0249845539,PLT_learning_02,B,2014_Jan_30_1201,P02,
stim_fb/ques.jpg,stim_fb/negf.jpg,stim_fb/posf.jpg,stim_02/b.jpg,stim_02/a.jpg,1,1,f,4,1,241,3,f,1,0.516535395465,02,02,60.0249845539,PLT_learning_02,B,2014_Jan_30_1201,P02,
stim_fb/ques.jpg,stim_fb/negf.jpg,stim_fb/posf.jpg,stim_02/a.jpg,stim_02/b.jpg,2,1,j,4,2,242,13,j,1,0.566530762435,02,02,60.0249845539,PLT_learning_02,B,2014_Jan_30_1201,P02,
stim_fb/ques.jpg,stim_fb/posf.jpg,stim_fb/negf.jpg,stim_02/d.jpg,stim_02/c.jpg,1,2,f,4,3,243,27,f,1,0.616498713172,02,02,60.0249845539,PLT_learning_02,B,2014_Jan_30_1201,P02,
stim_fb/ques.jpg,stim_fb/posf.jpg,stim_fb/negf.jpg,stim_02/e.jpg,stim_02/f.jpg,2,3,j,4,4,244,56,j,1,0.733138176637,02,02,60.0249845539,PLT_learning_02,B,2014_Jan_30_1201,P02,
stim_fb/ques.jpg,stim_fb/negf.jpg,stim_fb/posf.jpg,stim_02/e.jpg,stim_02/f.jpg,2,3,j,4,5,245,52,f,0,0.982984949794,02,02,60.0249845539,PLT_learning_02,B,2014_Jan_30_1201,P02,
stim_fb/ques.jpg,stim_fb/negf.jpg,stim_fb/posf.jpg,stim_02/a.jpg,stim_02/b.jpg,2,1,j,4,6,246,16,j,1,0.499884362207,02,02,60.0249845539,PLT_learning_02,B,2014_Jan_30_1201,P02,
stim_fb/ques.jpg,stim_fb/posf.jpg,stim_fb/negf.jpg,stim_02/e.jpg,stim_02/f.jpg,2,3,j,4,7,247,58,j,1,0.599821093747,02,02,60.0249845539,PLT_learning_02,B,2014_Jan_30_1201,P02,
stim_fb/ques.jpg,stim_fb/negf.jpg,stim_fb/posf.jpg,stim_02/d.jpg,stim_02/c.jpg,1,2,f,4,8,248,24,f,1,0.533161132769,02,02,60.0249845539,PLT_learning_02,B,2014_Jan_30_1201,P02,
stim_fb/ques.jpg,stim_fb/posf.jpg,stim_fb/negf.jpg,stim_02/f.jpg,stim_02/e.jpg,1,3,f,4,9,249,48,f,1,0.733154931335,02,02,60.0249845539,PLT_learning_02,B,2014_Jan_30_1201,P02,
stim_fb/ques.jpg,stim_fb/negf.jpg,stim_fb/posf.jpg,stim_02/e.jpg,stim_02/f.jpg,2,3,j,4,10,250,54,j,1,0.533224115517,02,02,60.0249845539,PLT_learning_02,B,2014_Jan_30_1201,P02,
stim_fb/ques.jpg,stim_fb/posf.jpg,stim_fb/negf.jpg,stim_02/f.jpg,stim_02/e.jpg,1,3,f,4,11,251,46,f,1,0.583206863081,02,02,60.0249845539,PLT_learning_02,B,2014_Jan_30_1201,P02,
stim_fb/ques.jpg,stim_fb/negf.jpg,stim_fb/posf.jpg,stim_02/a.jpg,stim_02/b.jpg,2,1,j,4,12,252,15,j,1,0.633184224238,02,02,60.0249845539,PLT_learning_02,B,2014_Jan_30_1201,P02,
stim_fb/ques.jpg,stim_fb/negf.jpg,stim_fb/posf.jpg,stim_02/b.jpg,stim_02/a.jpg,1,1,f,4,13,253,0,f,1,0.549832319185,02,02,60.0249845539,PLT_learning_02,B,2014_Jan_30_1201,P02,
stim_fb/ques.jpg,stim_fb/negf.jpg,stim_fb/posf.jpg,stim_02/a.jpg,stim_02/b.jpg,2,1,j,4,14,254,12,j,1,0.44990582813,02,02,60.0249845539,PLT_learning_02,B,2014_Jan_30_1201,P02,
stim_fb/ques.jpg,stim_fb/posf.jpg,stim_fb/negf.jpg,stim_02/e.jpg,stim_02/f.jpg,2,3,j,4,15,255,59,j,1,0.71645053928,02,02,60.0249845539,PLT_learning_02,B,2014_Jan_30_1201,P02,
stim_fb/ques.jpg,stim_fb/posf.jpg,stim_fb/negf.jpg,stim_02/c.jpg,stim_02/d.jpg,2,2,j,4,16,256,38,j,1,0.6665118634,02,02,60.0249845539,PLT_learning_02,B,2014_Jan_30_1201,P02,
stim_fb/ques.jpg,stim_fb/posf.jpg,stim_fb/negf.jpg,stim_02/a.jpg,stim_02/b.jpg,2,1,j,4,17,257,19,j,1,0.516528821104,02,02,60.0249845539,PLT_learning_02,B,2014_Jan_30_1201,P02,
stim_fb/ques.jpg,stim_fb/negf.jpg,stim_fb/posf.jpg,stim_02/e.jpg,stim_02/f.jpg,2,3,j,4,18,258,55,j,1,0.649821341864,02,02,60.0249845539,PLT_learning_02,B,2014_Jan_30_1201,P02,
stim_fb/ques.jpg,stim_fb/negf.jpg,stim_fb/posf.jpg,stim_02/b.jpg,stim_02/a.jpg,1,1,f,4,19,259,2,f,1,0.583221410285,02,02,60.0249845539,PLT_learning_02,B,2014_Jan_30_1201,P02,
stim_fb/ques.jpg,stim_fb/posf.jpg,stim_fb/negf.jpg,stim_02/b.jpg,stim_02/a.jpg,1,1,f,4,20,260,8,f,1,0.483179191212,02,02,60.0249845539,PLT_learning_02,B,2014_Jan_30_1201,P02,
stim_fb/ques.jpg,stim_fb/negf.jpg,stim_fb/posf.jpg,stim_02/d.jpg,stim_02/c.jpg,1,2,f,4,21,261,26,f,1,0.616466313538,02,02,60.0249845539,PLT_learning_02,B,2014_Jan_30_1201,P02,
stim_fb/ques.jpg,stim_fb/posf.jpg,stim_fb/negf.jpg,stim_02/f.jpg,stim_02/e.jpg,1,3,f,4,22,262,47,f,1,0.716451898663,02,02,60.0249845539,PLT_learning_02,B,2014_Jan_30_1201,P02,
stim_fb/ques.jpg,stim_fb/posf.jpg,stim_fb/negf.jpg,stim_02/a.jpg,stim_02/b.jpg,2,1,j,4,23,263,18,j,1,0.449892495949,02,02,60.0249845539,PLT_learning_02,B,2014_Jan_30_1201,P02,
stim_fb/ques.jpg,stim_fb/posf.jpg,stim_fb/negf.jpg,stim_02/d.jpg,stim_02/c.jpg,1,2,f,4,24,264,28,f,1,0.733099016176,02,02,60.0249845539,PLT_learning_02,B,2014_Jan_30_1201,P02,
stim_fb/ques.jpg,stim_fb/negf.jpg,stim_fb/posf.jpg,stim_02/c.jpg,stim_02/d.jpg,2,2,j,4,25,265,35,j,1,0.549870348831,02,02,60.0249845539,PLT_learning_02,B,2014_Jan_30_1201,P02,
stim_fb/ques.jpg,stim_fb/negf.jpg,stim_fb/posf.jpg,stim_02/e.jpg,stim_02/f.jpg,2,3,j,4,26,266,53,j,1,0.666493989917,02,02,60.0249845539,PLT_learning_02,B,2014_Jan_30_1201,P02,
stim_fb/ques.jpg,stim_fb/negf.jpg,stim_fb/posf.jpg,stim_02/c.jpg,stim_02/d.jpg,2,2,j,4,27,267,30,j,1,0.599846290455,02,02,60.0249845539,PLT_learning_02,B,2014_Jan_30_1201,P02,
stim_fb/ques.jpg,stim_fb/negf.jpg,stim_fb/posf.jpg,stim_02/d.jpg,stim_02/c.jpg,1,2,f,4,28,268,21,f,1,0.649889999737,02,02,60.0249845539,PLT_learning_02,B,2014_Jan_30_1201,P02,
stim_fb/ques.jpg,stim_fb/negf.jpg,stim_fb/posf.jpg,stim_02/e.jpg,stim_02/f.jpg,2,3,j,4,29,269,50,j,1,0.533184792653,02,02,60.0249845539,PLT_learning_02,B,2014_Jan_30_1201,P02,
stim_fb/ques.jpg,stim_fb/negf.jpg,stim_fb/posf.jpg,stim_02/f.jpg,stim_02/e.jpg,1,3,f,4,30,270,40,f,1,0.783163982361,02,02,60.0249845539,PLT_learning_02,B,2014_Jan_30_1201,P02,
stim_fb/ques.jpg,stim_fb/negf.jpg,stim_fb/posf.jpg,stim_02/f.jpg,stim_02/e.jpg,1,3,f,4,31,271,43,f,1,0.649824403484,02,02,60.0249845539,PLT_learning_02,B,2014_Jan_30_1201,P02,
stim_fb/ques.jpg,stim_fb/negf.jpg,stim_fb/posf.jpg,stim_02/b.jpg,stim_02/a.jpg,1,1,f,4,32,272,6,f,1,0.683165546253,02,02,60.0249845539,PLT_learning_02,B,2014_Jan_30_1201,P02,
stim_fb/ques.jpg,stim_fb/posf.jpg,stim_fb/negf.jpg,stim_02/e.jpg,stim_02/f.jpg,2,3,j,4,33,273,57,j,1,0.583196839133,02,02,60.0249845539,PLT_learning_02,B,2014_Jan_30_1201,P02,
stim_fb/ques.jpg,stim_fb/negf.jpg,stim_fb/posf.jpg,stim_02/c.jpg,stim_02/d.jpg,2,2,j,4,34,274,34,j,1,0.56655627493,02,02,60.0249845539,PLT_learning_02,B,2014_Jan_30_1201,P02,
stim_fb/ques.jpg,stim_fb/negf.jpg,stim_fb/posf.jpg,stim_02/c.jpg,stim_02/d.jpg,2,2,j,4,35,275,31,j,1,0.649900814652,02,02,60.0249845539,PLT_learning_02,B,2014_Jan_30_1201,P02,
stim_fb/ques.jpg,stim_fb/negf.jpg,stim_fb/posf.jpg,stim_02/d.jpg,stim_02/c.jpg,1,2,f,4,36,276,20,f,1,0.499848019759,02,02,60.0249845539,PLT_learning_02,B,2014_Jan_30_1201,P02,
stim_fb/ques.jpg,stim_fb/posf.jpg,stim_fb/negf.jpg,stim_02/d.jpg,stim_02/c.jpg,1,2,f,4,37,277,29,f,1,0.483213957737,02,02,60.0249845539,PLT_learning_02,B,2014_Jan_30_1201,P02,
stim_fb/ques.jpg,stim_fb/negf.jpg,stim_fb/posf.jpg,stim_02/b.jpg,stim_02/a.jpg,1,1,f,4,38,278,1,f,1,0.583198490242,02,02,60.0249845539,PLT_learning_02,B,2014_Jan_30_1201,P02,
stim_fb/ques.jpg,stim_fb/negf.jpg,stim_fb/posf.jpg,stim_02/d.jpg,stim_02/c.jpg,1,2,f,4,39,279,23,f,1,0.566529111326,02,02,60.0249845539,PLT_learning_02,B,2014_Jan_30_1201,P02,
stim_fb/ques.jpg,stim_fb/negf.jpg,stim_fb/posf.jpg,stim_02/b.jpg,stim_02/a.jpg,1,1,f,4,40,280,7,f,1,0.633173689018,02,02,60.0249845539,PLT_learning_02,B,2014_Jan_30_1201,P02,
stim_fb/ques.jpg,stim_fb/negf.jpg,stim_fb/posf.jpg,stim_02/a.jpg,stim_02/b.jpg,2,1,j,4,41,281,14,j,1,0.599882341176,02,02,60.0249845539,PLT_learning_02,B,2014_Jan_30_1201,P02,
stim_fb/ques.jpg,stim_fb/negf.jpg,stim_fb/posf.jpg,stim_02/b.jpg,stim_02/a.jpg,1,1,f,4,42,282,4,f,1,0.433261973737,02,02,60.0249845539,PLT_learning_02,B,2014_Jan_30_1201,P02,
stim_fb/ques.jpg,stim_fb/posf.jpg,stim_fb/negf.jpg,stim_02/c.jpg,stim_02/d.jpg,2,2,j,4,43,283,37,j,1,0.633174314576,02,02,60.0249845539,PLT_learning_02,B,2014_Jan_30_1201,P02,
stim_fb/ques.jpg,stim_fb/negf.jpg,stim_fb/posf.jpg,stim_02/e.jpg,stim_02/f.jpg,2,3,j,4,44,284,51,j,1,0.733141045777,02,02,60.0249845539,PLT_learning_02,B,2014_Jan_30_1201,P02,
stim_fb/ques.jpg,stim_fb/negf.jpg,stim_fb/posf.jpg,stim_02/b.jpg,stim_02/a.jpg,1,1,f,4,45,285,5,f,1,0.633190867773,02,02,60.0249845539,PLT_learning_02,B,2014_Jan_30_1201,P02,
stim_fb/ques.jpg,stim_fb/posf.jpg,stim_fb/negf.jpg,stim_02/b.jpg,stim_02/a.jpg,1,1,f,4,46,286,9,f,1,0.633148047202,02,02,60.0249845539,PLT_learning_02,B,2014_Jan_30_1201,P02,
stim_fb/ques.jpg,stim_fb/negf.jpg,stim_fb/posf.jpg,stim_02/d.jpg,stim_02/c.jpg,1,2,f,4,47,287,22,f,1,0.549885861438,02,02,60.0249845539,PLT_learning_02,B,2014_Jan_30_1201,P02,
stim_fb/ques.jpg,stim_fb/posf.jpg,stim_fb/negf.jpg,stim_02/f.jpg,stim_02/e.jpg,1,3,f,4,48,288,49,j,0,0.483217082514,02,02,60.0249845539,PLT_learning_02,B,2014_Jan_30_1201,P02,
stim_fb/ques.jpg,stim_fb/negf.jpg,stim_fb/posf.jpg,stim_02/c.jpg,stim_02/d.jpg,2,2,j,4,49,289,36,j,1,1.16632978124,02,02,60.0249845539,PLT_learning_02,B,2014_Jan_30_1201,P02,
stim_fb/ques.jpg,stim_fb/negf.jpg,stim_fb/posf.jpg,stim_02/c.jpg,stim_02/d.jpg,2,2,j,4,50,290,33,j,1,1.31625400315,02,02,60.0249845539,PLT_learning_02,B,2014_Jan_30_1201,P02,
stim_fb/ques.jpg,stim_fb/negf.jpg,stim_fb/posf.jpg,stim_02/d.jpg,stim_02/c.jpg,1,2,f,4,51,291,25,f,1,0.749861073747,02,02,60.0249845539,PLT_learning_02,B,2014_Jan_30_1201,P02,
stim_fb/ques.jpg,stim_fb/negf.jpg,stim_fb/posf.jpg,stim_02/c.jpg,stim_02/d.jpg,2,2,j,4,52,292,32,j,1,0.649843257407,02,02,60.0249845539,PLT_learning_02,B,2014_Jan_30_1201,P02,
stim_fb/ques.jpg,stim_fb/negf.jpg,stim_fb/posf.jpg,stim_02/f.jpg,stim_02/e.jpg,1,3,f,4,53,293,44,f,1,0.86644881148,02,02,60.0249845539,PLT_learning_02,B,2014_Jan_30_1201,P02,
stim_fb/ques.jpg,stim_fb/posf.jpg,stim_fb/negf.jpg,stim_02/c.jpg,stim_02/d.jpg,2,2,j,4,54,294,39,j,1,0.666501535697,02,02,60.0249845539,PLT_learning_02,B,2014_Jan_30_1201,P02,
stim_fb/ques.jpg,stim_fb/negf.jpg,stim_fb/posf.jpg,stim_02/f.jpg,stim_02/e.jpg,1,3,f,4,55,295,45,f,1,0.999698622948,02,02,60.0249845539,PLT_learning_02,B,2014_Jan_30_1201,P02,
stim_fb/ques.jpg,stim_fb/negf.jpg,stim_fb/posf.jpg,stim_02/a.jpg,stim_02/b.jpg,2,1,j,4,56,296,17,j,1,0.599871845054,02,02,60.0249845539,PLT_learning_02,B,2014_Jan_30_1201,P02,
stim_fb/ques.jpg,stim_fb/negf.jpg,stim_fb/posf.jpg,stim_02/a.jpg,stim_02/b.jpg,2,1,j,4,57,297,11,j,1,0.883084314086,02,02,60.0249845539,PLT_learning_02,B,2014_Jan_30_1201,P02,
stim_fb/ques.jpg,stim_fb/negf.jpg,stim_fb/posf.jpg,stim_02/f.jpg,stim_02/e.jpg,1,3,f,4,58,298,42,f,1,0.54986557896,02,02,60.0249845539,PLT_learning_02,B,2014_Jan_30_1201,P02,
stim_fb/ques.jpg,stim_fb/negf.jpg,stim_fb/posf.jpg,stim_02/f.jpg,stim_02/e.jpg,1,3,f,4,59,299,41,f,1,0.616536613496,02,02,60.0249845539,PLT_learning_02,B,2014_Jan_30_1201,P02,
stim_fb/ques.jpg,stim_fb/negf.jpg,stim_fb/posf.jpg,stim_02/c.jpg,stim_02/d.jpg,2,2,j,5,0,300,30,j,1,0.66651584531,02,02,60.0249845539,PLT_learning_02,B,2014_Jan_30_1201,P02,
stim_fb/ques.jpg,stim_fb/negf.jpg,stim_fb/posf.jpg,stim_02/c.jpg,stim_02/d.jpg,2,2,j,5,1,301,36,j,1,0.683109799514,02,02,60.0249845539,PLT_learning_02,B,2014_Jan_30_1201,P02,
stim_fb/ques.jpg,stim_fb/negf.jpg,stim_fb/posf.jpg,stim_02/a.jpg,stim_02/b.jpg,2,1,j,5,2,302,15,j,1,0.666496844021,02,02,60.0249845539,PLT_learning_02,B,2014_Jan_30_1201,P02,
stim_fb/ques.jpg,stim_fb/posf.jpg,stim_fb/negf.jpg,stim_02/f.jpg,stim_02/e.jpg,1,3,f,5,3,303,48,f,1,0.816449700192,02,02,60.0249845539,PLT_learning_02,B,2014_Jan_30_1201,P02,
stim_fb/ques.jpg,stim_fb/negf.jpg,stim_fb/posf.jpg,stim_02/d.jpg,stim_02/c.jpg,1,2,f,5,4,304,24,f,1,0.533496611692,02,02,60.0249845539,PLT_learning_02,B,2014_Jan_30_1201,P02,
stim_fb/ques.jpg,stim_fb/posf.jpg,stim_fb/negf.jpg,stim_02/e.jpg,stim_02/f.jpg,2,3,j,5,5,305,56,j,1,0.616521230212,02,02,60.0249845539,PLT_learning_02,B,2014_Jan_30_1201,P02,
stim_fb/ques.jpg,stim_fb/negf.jpg,stim_fb/posf.jpg,stim_02/a.jpg,stim_02/b.jpg,2,1,j,5,6,306,13,j,1,0.666493830521,02,02,60.0249845539,PLT_learning_02,B,2014_Jan_30_1201,P02,
stim_fb/ques.jpg,stim_fb/negf.jpg,stim_fb/posf.jpg,stim_02/f.jpg,stim_02/e.jpg,1,3,f,5,7,307,43,f,1,1.13301292692,02,02,60.0249845539,PLT_learning_02,B,2014_Jan_30_1201,P02,
stim_fb/ques.jpg,stim_fb/negf.jpg,stim_fb/posf.jpg,stim_02/c.jpg,stim_02/d.jpg,2,2,j,5,8,308,31,j,1,0.583191675282,02,02,60.0249845539,PLT_learning_02,B,2014_Jan_30_1201,P02,
stim_fb/ques.jpg,stim_fb/negf.jpg,stim_fb/posf.jpg,stim_02/b.jpg,stim_02/a.jpg,1,1,f,5,9,309,5,f,1,0.483223849355,02,02,60.0249845539,PLT_learning_02,B,2014_Jan_30_1201,P02,
stim_fb/ques.jpg,stim_fb/negf.jpg,stim_fb/posf.jpg,stim_02/c.jpg,stim_02/d.jpg,2,2,j,5,10,310,32,j,1,0.566547694575,02,02,60.0249845539,PLT_learning_02,B,2014_Jan_30_1201,P02,
stim_fb/ques.jpg,stim_fb/negf.jpg,stim_fb/posf.jpg,stim_02/a.jpg,stim_02/b.jpg,2,1,j,5,11,311,12,j,1,0.516556321546,02,02,60.0249845539,PLT_learning_02,B,2014_Jan_30_1201,P02,
stim_fb/ques.jpg,stim_fb/posf.jpg,stim_fb/negf.jpg,stim_02/e.jpg,stim_02/f.jpg,2,3,j,5,12,312,58,j,1,0.51651203633,02,02,60.0249845539,PLT_learning_02,B,2014_Jan_30_1201,P02,
stim_fb/ques.jpg,stim_fb/posf.jpg,stim_fb/negf.jpg,stim_02/a.jpg,stim_02/b.jpg,2,1,j,5,13,313,18,j,1,0.566542416439,02,02,60.0249845539,PLT_learning_02,B,2014_Jan_30_1201,P02,
stim_fb/ques.jpg,stim_fb/negf.jpg,stim_fb/posf.jpg,stim_02/a.jpg,stim_02/b.jpg,2,1,j,5,14,314,11,j,1,0.516530159434,02,02,60.0249845539,PLT_learning_02,B,2014_Jan_30_1201,P02,
stim_fb/ques.jpg,stim_fb/negf.jpg,stim_fb/posf.jpg,stim_02/d.jpg,stim_02/c.jpg,1,2,f,5,15,315,20,f,1,0.633184473859,02,02,60.0249845539,PLT_learning_02,B,2014_Jan_30_1201,P02,
stim_fb/ques.jpg,stim_fb/negf.jpg,stim_fb/posf.jpg,stim_02/b.jpg,stim_02/a.jpg,1,1,f,5,16,316,3,f,1,0.59985392646,02,02,60.0249845539,PLT_learning_02,B,2014_Jan_30_1201,P02,
stim_fb/ques.jpg,stim_fb/posf.jpg,stim_fb/negf.jpg,stim_02/b.jpg,stim_02/a.jpg,1,1,f,5,17,317,9,f,1,0.516539485645,02,02,60.0249845539,PLT_learning_02,B,2014_Jan_30_1201,P02,
stim_fb/ques.jpg,stim_fb/negf.jpg,stim_fb/posf.jpg,stim_02/b.jpg,stim_02/a.jpg,1,1,f,5,18,318,1,f,1,0.516544571302,02,02,60.0249845539,PLT_learning_02,B,2014_Jan_30_1201,P02,
stim_fb/ques.jpg,stim_fb/negf.jpg,stim_fb/posf.jpg,stim_02/a.jpg,stim_02/b.jpg,2,1,j,5,19,319,10,j,1,0.533210747247,02,02,60.0249845539,PLT_learning_02,B,2014_Jan_30_1201,P02,
stim_fb/ques.jpg,stim_fb/negf.jpg,stim_fb/posf.jpg,stim_02/e.jpg,stim_02/f.jpg,2,3,j,5,20,320,50,j,1,0.716478608136,02,02,60.0249845539,PLT_learning_02,B,2014_Jan_30_1201,P02,
stim_fb/ques.jpg,stim_fb/negf.jpg,stim_fb/posf.jpg,stim_02/d.jpg,stim_02/c.jpg,1,2,f,5,21,321,21,f,1,0.599930641384,02,02,60.0249845539,PLT_learning_02,B,2014_Jan_30_1201,P02,
stim_fb/ques.jpg,stim_fb/negf.jpg,stim_fb/posf.jpg,stim_02/e.jpg,stim_02/f.jpg,2,3,j,5,22,322,51,j,1,0.749812560009,02,02,60.0249845539,PLT_learning_02,B,2014_Jan_30_1201,P02,
stim_fb/ques.jpg,stim_fb/negf.jpg,stim_fb/posf.jpg,stim_02/a.jpg,stim_02/b.jpg,2,1,j,5,23,323,14,j,1,0.499894392169,02,02,60.0249845539,PLT_learning_02,B,2014_Jan_30_1201,P02,
stim_fb/ques.jpg,stim_fb/negf.jpg,stim_fb/posf.jpg,stim_02/e.jpg,stim_02/f.jpg,2,3,j,5,24,324,54,j,1,0.699880849464,02,02,60.0249845539,PLT_learning_02,B,2014_Jan_30_1201,P02,
stim_fb/ques.jpg,stim_fb/negf.jpg,stim_fb/posf.jpg,stim_02/f.jpg,stim_02/e.jpg,1,3,f,5,25,325,40,f,1,0.616363824468,02,02,60.0249845539,PLT_learning_02,B,2014_Jan_30_1201,P02,
stim_fb/ques.jpg,stim_fb/negf.jpg,stim_fb/posf.jpg,stim_02/d.jpg,stim_02/c.jpg,1,2,f,5,26,326,23,f,1,0.616525164002,02,02,60.0249845539,PLT_learning_02,B,2014_Jan_30_1201,P02,
stim_fb/ques.jpg,stim_fb/negf.jpg,stim_fb/posf.jpg,stim_02/c.jpg,stim_02/d.jpg,2,2,j,5,27,327,35,j,1,0.599895823731,02,02,60.0249845539,PLT_learning_02,B,2014_Jan_30_1201,P02,
stim_fb/ques.jpg,stim_fb/negf.jpg,stim_fb/posf.jpg,stim_02/e.jpg,stim_02/f.jpg,2,3,j,5,28,328,53,j,1,0.549862021105,02,02,60.0249845539,PLT_learning_02,B,2014_Jan_30_1201,P02,
stim_fb/ques.jpg,stim_fb/negf.jpg,stim_fb/posf.jpg,stim_02/b.jpg,stim_02/a.jpg,1,1,f,5,29,329,7,f,1,0.466573685259,02,02,60.0249845539,PLT_learning_02,B,2014_Jan_30_1201,P02,
stim_fb/ques.jpg,stim_fb/negf.jpg,stim_fb/posf.jpg,stim_02/c.jpg,stim_02/d.jpg,2,2,j,5,30,330,33,j,1,0.516560631271,02,02,60.0249845539,PLT_learning_02,B,2014_Jan_30_1201,P02,
stim_fb/ques.jpg,stim_fb/negf.jpg,stim_fb/posf.jpg,stim_02/f.jpg,stim_02/e.jpg,1,3,f,5,31,331,42,f,1,0.666497815438,02,02,60.0249845539,PLT_learning_02,B,2014_Jan_30_1201,P02,
stim_fb/ques.jpg,stim_fb/negf.jpg,stim_fb/posf.jpg,stim_02/e.jpg,stim_02/f.jpg,2,3,j,5,32,332,52,j,1,0.683197103792,02,02,60.0249845539,PLT_learning_02,B,2014_Jan_30_1201,P02,
stim_fb/ques.jpg,stim_fb/negf.jpg,stim_fb/posf.jpg,stim_02/d.jpg,stim_02/c.jpg,1,2,f,5,33,333,26,f,1,0.54987609012,02,02,60.0249845539,PLT_learning_02,B,2014_Jan_30_1201,P02,
stim_fb/ques.jpg,stim_fb/posf.jpg,stim_fb/negf.jpg,stim_02/f.jpg,stim_02/e.jpg,1,3,f,5,34,334,46,f,1,0.616491414007,02,02,60.0249845539,PLT_learning_02,B,2014_Jan_30_1201,P02,
stim_fb/ques.jpg,stim_fb/negf.jpg,stim_fb/posf.jpg,stim_02/c.jpg,stim_02/d.jpg,2,2,j,5,35,335,34,j,1,0.633160023007,02,02,60.0249845539,PLT_learning_02,B,2014_Jan_30_1201,P02,
stim_fb/ques.jpg,stim_fb/negf.jpg,stim_fb/posf.jpg,stim_02/b.jpg,stim_02/a.jpg,1,1,f,5,36,336,0,f,1,0.79986080157,02,02,60.0249845539,PLT_learning_02,B,2014_Jan_30_1201,P02,
stim_fb/ques.jpg,stim_fb/negf.jpg,stim_fb/posf.jpg,stim_02/d.jpg,stim_02/c.jpg,1,2,f,5,37,337,25,f,1,0.783122638466,02,02,60.0249845539,PLT_learning_02,B,2014_Jan_30_1201,P02,
stim_fb/ques.jpg,stim_fb/posf.jpg,stim_fb/negf.jpg,stim_02/f.jpg,stim_02/e.jpg,1,3,f,5,38,338,49,f,1,0.983069030048,02,02,60.0249845539,PLT_learning_02,B,2014_Jan_30_1201,P02,
stim_fb/ques.jpg,stim_fb/negf.jpg,stim_fb/posf.jpg,stim_02/f.jpg,stim_02/e.jpg,1,3,f,5,39,339,44,f,1,0.733140681872,02,02,60.0249845539,PLT_learning_02,B,2014_Jan_30_1201,P02,
stim_fb/ques.jpg,stim_fb/posf.jpg,stim_fb/negf.jpg,stim_02/f.jpg,stim_02/e.jpg,1,3,f,5,40,340,47,f,1,0.599859000086,02,02,60.0249845539,PLT_learning_02,B,2014_Jan_30_1201,P02,
stim_fb/ques.jpg,stim_fb/posf.jpg,stim_fb/negf.jpg,stim_02/d.jpg,stim_02/c.jpg,1,2,f,5,41,341,29,f,1,0.566587224956,02,02,60.0249845539,PLT_learning_02,B,2014_Jan_30_1201,P02,
stim_fb/ques.jpg,stim_fb/posf.jpg,stim_fb/negf.jpg,stim_02/c.jpg,stim_02/d.jpg,2,2,j,5,42,342,37,j,1,0.599840098044,02,02,60.0249845539,PLT_learning_02,B,2014_Jan_30_1201,P02,
stim_fb/ques.jpg,stim_fb/negf.jpg,stim_fb/posf.jpg,stim_02/a.jpg,stim_02/b.jpg,2,1,j,5,43,343,16,j,1,0.633170669504,02,02,60.0249845539,PLT_learning_02,B,2014_Jan_30_1201,P02,
stim_fb/ques.jpg,stim_fb/posf.jpg,stim_fb/negf.jpg,stim_02/a.jpg,stim_02/b.jpg,2,1,j,5,44,344,19,j,1,0.516557277926,02,02,60.0249845539,PLT_learning_02,B,2014_Jan_30_1201,P02,
stim_fb/ques.jpg,stim_fb/negf.jpg,stim_fb/posf.jpg,stim_02/b.jpg,stim_02/a.jpg,1,1,f,5,45,345,4,f,1,0.599824335816,02,02,60.0249845539,PLT_learning_02,B,2014_Jan_30_1201,P02,
stim_fb/ques.jpg,stim_fb/negf.jpg,stim_fb/posf.jpg,stim_02/a.jpg,stim_02/b.jpg,2,1,j,5,46,346,17,j,1,0.599849782145,02,02,60.0249845539,PLT_learning_02,B,2014_Jan_30_1201,P02,
stim_fb/ques.jpg,stim_fb/negf.jpg,stim_fb/posf.jpg,stim_02/f.jpg,stim_02/e.jpg,1,3,f,5,47,347,41,f,1,0.733149653199,02,02,60.0249845539,PLT_learning_02,B,2014_Jan_30_1201,P02,
stim_fb/ques.jpg,stim_fb/posf.jpg,stim_fb/negf.jpg,stim_02/e.jpg,stim_02/f.jpg,2,3,j,5,48,348,59,j,1,0.816428286899,02,02,60.0249845539,PLT_learning_02,B,2014_Jan_30_1201,P02,
stim_fb/ques.jpg,stim_fb/posf.jpg,stim_fb/negf.jpg,stim_02/e.jpg,stim_02/f.jpg,2,3,j,5,49,349,57,j,1,0.716457657996,02,02,60.0249845539,PLT_learning_02,B,2014_Jan_30_1201,P02,
stim_fb/ques.jpg,stim_fb/posf.jpg,stim_fb/negf.jpg,stim_02/c.jpg,stim_02/d.jpg,2,2,j,5,50,350,38,j,1,0.749796232373,02,02,60.0249845539,PLT_learning_02,B,2014_Jan_30_1201,P02,
stim_fb/ques.jpg,stim_fb/negf.jpg,stim_fb/posf.jpg,stim_02/b.jpg,stim_02/a.jpg,1,1,f,5,51,351,6,f,1,0.583205741289,02,02,60.0249845539,PLT_learning_02,B,2014_Jan_30_1201,P02,
stim_fb/ques.jpg,stim_fb/negf.jpg,stim_fb/posf.jpg,stim_02/f.jpg,stim_02/e.jpg,1,3,f,5,52,352,45,j,0,1.31627658635,02,02,60.0249845539,PLT_learning_02,B,2014_Jan_30_1201,P02,
stim_fb/ques.jpg,stim_fb/posf.jpg,stim_fb/negf.jpg,stim_02/d.jpg,stim_02/c.jpg,1,2,f,5,53,353,28,f,1,0.633152687752,02,02,60.0249845539,PLT_learning_02,B,2014_Jan_30_1201,P02,
stim_fb/ques.jpg,stim_fb/posf.jpg,stim_fb/negf.jpg,stim_02/d.jpg,stim_02/c.jpg,1,2,f,5,54,354,27,f,1,0.566545387834,02,02,60.0249845539,PLT_learning_02,B,2014_Jan_30_1201,P02,
stim_fb/ques.jpg,stim_fb/posf.jpg,stim_fb/negf.jpg,stim_02/b.jpg,stim_02/a.jpg,1,1,f,5,55,355,8,f,1,1.11628935313,02,02,60.0249845539,PLT_learning_02,B,2014_Jan_30_1201,P02,
stim_fb/ques.jpg,stim_fb/negf.jpg,stim_fb/posf.jpg,stim_02/b.jpg,stim_02/a.jpg,1,1,f,5,56,356,2,f,1,0.499882013361,02,02,60.0249845539,PLT_learning_02,B,2014_Jan_30_1201,P02,
stim_fb/ques.jpg,stim_fb/posf.jpg,stim_fb/negf.jpg,stim_02/c.jpg,stim_02/d.jpg,2,2,j,5,57,357,39,j,1,0.716475961549,02,02,60.0249845539,PLT_learning_02,B,2014_Jan_30_1201,P02,
stim_fb/ques.jpg,stim_fb/negf.jpg,stim_fb/posf.jpg,stim_02/e.jpg,stim_02/f.jpg,2,3,j,5,58,358,55,j,1,1.09973225264,02,02,60.0249845539,PLT_learning_02,B,2014_Jan_30_1201,P02,
stim_fb/ques.jpg,stim_fb/negf.jpg,stim_fb/posf.jpg,stim_02/d.jpg,stim_02/c.jpg,1,2,f,5,59,359,22,f,1,0.63315734033,02,02,60.0249845539,PLT_learning_02,B,2014_Jan_30_1201,P02,
