Fb3,Fb2,Fb1,Symbol2,Symbol1,PosCond,Pair,Correct,trials.thisRepN,trials.thisTrialN,trials.thisN,trials.thisIndex,Response.keys,Response.corr,Response.rt,Version,Session Number,frameRate,expName,StimCondition,date,Participant,
stim_fb/ques.jpg,stim_fb/negf.jpg,stim_fb/posf.jpg,stim_02/f.jpg,stim_02/e.jpg,1,3,f,0,0,0,42,f,1,0.949712804743,02,03,60.0202290259,PLT_learning_02,B,2014_Feb_18_1621,P03,
stim_fb/ques.jpg,stim_fb/negf.jpg,stim_fb/posf.jpg,stim_02/d.jpg,stim_02/c.jpg,1,2,f,0,1,1,20,j,0,1.03300989237,02,03,60.0202290259,PLT_learning_02,B,2014_Feb_18_1621,P03,
stim_fb/ques.jpg,stim_fb/negf.jpg,stim_fb/posf.jpg,stim_02/b.jpg,stim_02/a.jpg,1,1,f,0,2,2,3,f,1,0.866439070236,02,03,60.0202290259,PLT_learning_02,B,2014_Feb_18_1621,P03,
stim_fb/ques.jpg,stim_fb/posf.jpg,stim_fb/negf.jpg,stim_02/c.jpg,stim_02/d.jpg,2,2,j,0,3,3,39,j,1,1.29960511423,02,03,60.0202290259,PLT_learning_02,B,2014_Feb_18_1621,P03,
stim_fb/ques.jpg,stim_fb/posf.jpg,stim_fb/negf.jpg,stim_02/b.jpg,stim_02/a.jpg,1,1,f,0,4,4,8,f,1,1.18297205069,02,03,60.0202290259,PLT_learning_02,B,2014_Feb_18_1621,P03,
stim_fb/ques.jpg,stim_fb/posf.jpg,stim_fb/negf.jpg,stim_02/d.jpg,stim_02/c.jpg,1,2,f,0,5,5,29,j,0,1.46622547265,02,03,60.0202290259,PLT_learning_02,B,2014_Feb_18_1621,P03,
stim_fb/ques.jpg,stim_fb/negf.jpg,stim_fb/posf.jpg,stim_02/b.jpg,stim_02/a.jpg,1,1,f,0,6,6,6,j,0,1.36626949621,02,03,60.0202290259,PLT_learning_02,B,2014_Feb_18_1621,P03,
stim_fb/ques.jpg,stim_fb/posf.jpg,stim_fb/negf.jpg,stim_02/d.jpg,stim_02/c.jpg,1,2,f,0,7,7,28,f,1,0.69981952384,02,03,60.0202290259,PLT_learning_02,B,2014_Feb_18_1621,P03,
stim_fb/ques.jpg,stim_fb/negf.jpg,stim_fb/posf.jpg,stim_02/b.jpg,stim_02/a.jpg,1,1,f,0,8,8,5,j,0,1.48286657218,02,03,60.0202290259,PLT_learning_02,B,2014_Feb_18_1621,P03,
stim_fb/ques.jpg,stim_fb/negf.jpg,stim_fb/posf.jpg,stim_02/d.jpg,stim_02/c.jpg,1,2,f,0,9,9,21,f,1,0.69981160814,02,03,60.0202290259,PLT_learning_02,B,2014_Feb_18_1621,P03,
stim_fb/ques.jpg,stim_fb/negf.jpg,stim_fb/posf.jpg,stim_02/c.jpg,stim_02/d.jpg,2,2,j,0,10,10,30,j,1,0.7331253437,02,03,60.0202290259,PLT_learning_02,B,2014_Feb_18_1621,P03,
stim_fb/ques.jpg,stim_fb/posf.jpg,stim_fb/negf.jpg,stim_02/f.jpg,stim_02/e.jpg,1,3,f,0,11,11,47,f,1,0.483222071932,02,03,60.0202290259,PLT_learning_02,B,2014_Feb_18_1621,P03,
stim_fb/ques.jpg,stim_fb/posf.jpg,stim_fb/negf.jpg,stim_02/f.jpg,stim_02/e.jpg,1,3,f,0,12,12,48,j,0,0.683145110394,02,03,60.0202290259,PLT_learning_02,B,2014_Feb_18_1621,P03,
stim_fb/ques.jpg,stim_fb/negf.jpg,stim_fb/posf.jpg,stim_02/e.jpg,stim_02/f.jpg,2,3,j,0,13,13,55,f,0,0.716452244524,02,03,60.0202290259,PLT_learning_02,B,2014_Feb_18_1621,P03,
stim_fb/ques.jpg,stim_fb/posf.jpg,stim_fb/negf.jpg,stim_02/b.jpg,stim_02/a.jpg,1,1,f,0,14,14,9,j,0,0.699959648576,02,03,60.0202290259,PLT_learning_02,B,2014_Feb_18_1621,P03,
stim_fb/ques.jpg,stim_fb/negf.jpg,stim_fb/posf.jpg,stim_02/b.jpg,stim_02/a.jpg,1,1,f,0,15,15,1,j,0,1.1330012669,02,03,60.0202290259,PLT_learning_02,B,2014_Feb_18_1621,P03,
stim_fb/ques.jpg,stim_fb/negf.jpg,stim_fb/posf.jpg,stim_02/c.jpg,stim_02/d.jpg,2,2,j,0,16,16,31,f,0,0.81647938106,02,03,60.0202290259,PLT_learning_02,B,2014_Feb_18_1621,P03,
stim_fb/ques.jpg,stim_fb/negf.jpg,stim_fb/posf.jpg,stim_02/c.jpg,stim_02/d.jpg,2,2,j,0,17,17,33,j,1,1.49954357206,02,03,60.0202290259,PLT_learning_02,B,2014_Feb_18_1621,P03,
stim_fb/ques.jpg,stim_fb/negf.jpg,stim_fb/posf.jpg,stim_02/e.jpg,stim_02/f.jpg,2,3,j,0,18,18,54,f,0,1.68282353207,02,03,60.0202290259,PLT_learning_02,B,2014_Feb_18_1621,P03,
stim_fb/ques.jpg,stim_fb/negf.jpg,stim_fb/posf.jpg,stim_02/e.jpg,stim_02/f.jpg,2,3,j,0,19,19,50,j,1,0.949743860031,02,03,60.0202290259,PLT_learning_02,B,2014_Feb_18_1621,P03,
stim_fb/ques.jpg,stim_fb/negf.jpg,stim_fb/posf.jpg,stim_02/f.jpg,stim_02/e.jpg,1,3,f,0,20,20,44,f,1,0.54987197588,02,03,60.0202290259,PLT_learning_02,B,2014_Feb_18_1621,P03,
stim_fb/ques.jpg,stim_fb/negf.jpg,stim_fb/posf.jpg,stim_02/d.jpg,stim_02/c.jpg,1,2,f,0,21,21,24,j,0,0.69979022793,02,03,60.0202290259,PLT_learning_02,B,2014_Feb_18_1621,P03,
stim_fb/ques.jpg,stim_fb/negf.jpg,stim_fb/posf.jpg,stim_02/a.jpg,stim_02/b.jpg,2,1,j,0,22,22,14,f,0,0.549841122092,02,03,60.0202290259,PLT_learning_02,B,2014_Feb_18_1621,P03,
stim_fb/ques.jpg,stim_fb/posf.jpg,stim_fb/negf.jpg,stim_02/e.jpg,stim_02/f.jpg,2,3,j,0,23,23,56,j,1,0.51653507968,02,03,60.0202290259,PLT_learning_02,B,2014_Feb_18_1621,P03,
stim_fb/ques.jpg,stim_fb/posf.jpg,stim_fb/negf.jpg,stim_02/e.jpg,stim_02/f.jpg,2,3,j,0,24,24,57,f,0,0.416531169949,02,03,60.0202290259,PLT_learning_02,B,2014_Feb_18_1621,P03,
stim_fb/ques.jpg,stim_fb/negf.jpg,stim_fb/posf.jpg,stim_02/a.jpg,stim_02/b.jpg,2,1,j,0,25,25,10,j,1,0.633165379338,02,03,60.0202290259,PLT_learning_02,B,2014_Feb_18_1621,P03,
stim_fb/ques.jpg,stim_fb/negf.jpg,stim_fb/posf.jpg,stim_02/a.jpg,stim_02/b.jpg,2,1,j,0,26,26,17,f,0,0.416595418849,02,03,60.0202290259,PLT_learning_02,B,2014_Feb_18_1621,P03,
stim_fb/ques.jpg,stim_fb/negf.jpg,stim_fb/posf.jpg,stim_02/a.jpg,stim_02/b.jpg,2,1,j,0,27,27,13,j,1,0.799769849213,02,03,60.0202290259,PLT_learning_02,B,2014_Feb_18_1621,P03,
stim_fb/ques.jpg,stim_fb/negf.jpg,stim_fb/posf.jpg,stim_02/c.jpg,stim_02/d.jpg,2,2,j,0,28,28,36,f,0,0.533196578986,02,03,60.0202290259,PLT_learning_02,B,2014_Feb_18_1621,P03,
stim_fb/ques.jpg,stim_fb/negf.jpg,stim_fb/posf.jpg,stim_02/a.jpg,stim_02/b.jpg,2,1,j,0,29,29,15,j,1,0.483259827897,02,03,60.0202290259,PLT_learning_02,B,2014_Feb_18_1621,P03,
stim_fb/ques.jpg,stim_fb/negf.jpg,stim_fb/posf.jpg,stim_02/b.jpg,stim_02/a.jpg,1,1,f,0,30,30,2,j,0,1.61618282801,02,03,60.0202290259,PLT_learning_02,B,2014_Feb_18_1621,P03,
stim_fb/ques.jpg,stim_fb/negf.jpg,stim_fb/posf.jpg,stim_02/c.jpg,stim_02/d.jpg,2,2,j,0,31,31,35,j,1,1.46624302433,02,03,60.0202290259,PLT_learning_02,B,2014_Feb_18_1621,P03,
stim_fb/ques.jpg,stim_fb/posf.jpg,stim_fb/negf.jpg,stim_02/d.jpg,stim_02/c.jpg,1,2,f,0,32,32,27,f,1,1.06636975673,02,03,60.0202290259,PLT_learning_02,B,2014_Feb_18_1621,P03,
stim_fb/ques.jpg,stim_fb/negf.jpg,stim_fb/posf.jpg,stim_02/d.jpg,stim_02/c.jpg,1,2,f,0,33,33,23,j,0,1.3329978504,02,03,60.0202290259,PLT_learning_02,B,2014_Feb_18_1621,P03,
stim_fb/ques.jpg,stim_fb/posf.jpg,stim_fb/negf.jpg,stim_02/c.jpg,stim_02/d.jpg,2,2,j,0,34,34,38,j,1,1.13299559479,02,03,60.0202290259,PLT_learning_02,B,2014_Feb_18_1621,P03,
stim_fb/ques.jpg,stim_fb/negf.jpg,stim_fb/posf.jpg,stim_02/c.jpg,stim_02/d.jpg,2,2,j,0,35,35,32,f,0,1.24960757886,02,03,60.0202290259,PLT_learning_02,B,2014_Feb_18_1621,P03,
stim_fb/ques.jpg,stim_fb/negf.jpg,stim_fb/posf.jpg,stim_02/e.jpg,stim_02/f.jpg,2,3,j,0,36,36,52,None,0,,02,03,60.0202290259,PLT_learning_02,B,2014_Feb_18_1621,P03,
stim_fb/ques.jpg,stim_fb/negf.jpg,stim_fb/posf.jpg,stim_02/f.jpg,stim_02/e.jpg,1,3,f,0,37,37,45,j,0,0.799779437074,02,03,60.0202290259,PLT_learning_02,B,2014_Feb_18_1621,P03,
stim_fb/ques.jpg,stim_fb/posf.jpg,stim_fb/negf.jpg,stim_02/e.jpg,stim_02/f.jpg,2,3,j,0,38,38,58,f,0,0.816447137814,02,03,60.0202290259,PLT_learning_02,B,2014_Feb_18_1621,P03,
stim_fb/ques.jpg,stim_fb/posf.jpg,stim_fb/negf.jpg,stim_02/a.jpg,stim_02/b.jpg,2,1,j,0,39,39,19,j,1,1.19963185378,02,03,60.0202290259,PLT_learning_02,B,2014_Feb_18_1621,P03,
stim_fb/ques.jpg,stim_fb/negf.jpg,stim_fb/posf.jpg,stim_02/a.jpg,stim_02/b.jpg,2,1,j,0,40,40,12,f,0,0.849753709545,02,03,60.0202290259,PLT_learning_02,B,2014_Feb_18_1621,P03,
stim_fb/ques.jpg,stim_fb/negf.jpg,stim_fb/posf.jpg,stim_02/f.jpg,stim_02/e.jpg,1,3,f,0,41,41,40,j,0,0.883047093454,02,03,60.0202290259,PLT_learning_02,B,2014_Feb_18_1621,P03,
stim_fb/ques.jpg,stim_fb/posf.jpg,stim_fb/negf.jpg,stim_02/f.jpg,stim_02/e.jpg,1,3,f,0,42,42,49,f,1,0.68315332985,02,03,60.0202290259,PLT_learning_02,B,2014_Feb_18_1621,P03,
stim_fb/ques.jpg,stim_fb/negf.jpg,stim_fb/posf.jpg,stim_02/e.jpg,stim_02/f.jpg,2,3,j,0,43,43,51,j,1,0.633198876704,02,03,60.0202290259,PLT_learning_02,B,2014_Feb_18_1621,P03,
stim_fb/ques.jpg,stim_fb/negf.jpg,stim_fb/posf.jpg,stim_02/b.jpg,stim_02/a.jpg,1,1,f,0,44,44,4,j,0,0.966267983445,02,03,60.0202290259,PLT_learning_02,B,2014_Feb_18_1621,P03,
stim_fb/ques.jpg,stim_fb/negf.jpg,stim_fb/posf.jpg,stim_02/f.jpg,stim_02/e.jpg,1,3,f,0,45,45,43,f,1,0.433199905264,02,03,60.0202290259,PLT_learning_02,B,2014_Feb_18_1621,P03,
stim_fb/ques.jpg,stim_fb/posf.jpg,stim_fb/negf.jpg,stim_02/f.jpg,stim_02/e.jpg,1,3,f,0,46,46,46,j,0,0.499844591226,02,03,60.0202290259,PLT_learning_02,B,2014_Feb_18_1621,P03,
stim_fb/ques.jpg,stim_fb/negf.jpg,stim_fb/posf.jpg,stim_02/e.jpg,stim_02/f.jpg,2,3,j,0,47,47,53,j,1,0.466507325105,02,03,60.0202290259,PLT_learning_02,B,2014_Feb_18_1621,P03,
stim_fb/ques.jpg,stim_fb/negf.jpg,stim_fb/posf.jpg,stim_02/c.jpg,stim_02/d.jpg,2,2,j,0,48,48,34,j,1,1.09964780247,02,03,60.0202290259,PLT_learning_02,B,2014_Feb_18_1621,P03,
stim_fb/ques.jpg,stim_fb/negf.jpg,stim_fb/posf.jpg,stim_02/d.jpg,stim_02/c.jpg,1,2,f,0,49,49,22,f,1,0.783135751101,02,03,60.0202290259,PLT_learning_02,B,2014_Feb_18_1621,P03,
stim_fb/ques.jpg,stim_fb/posf.jpg,stim_fb/negf.jpg,stim_02/c.jpg,stim_02/d.jpg,2,2,j,0,50,50,37,j,1,0.683144978065,02,03,60.0202290259,PLT_learning_02,B,2014_Feb_18_1621,P03,
stim_fb/ques.jpg,stim_fb/posf.jpg,stim_fb/negf.jpg,stim_02/e.jpg,stim_02/f.jpg,2,3,j,0,51,51,59,j,1,1.54955175393,02,03,60.0202290259,PLT_learning_02,B,2014_Feb_18_1621,P03,
stim_fb/ques.jpg,stim_fb/negf.jpg,stim_fb/posf.jpg,stim_02/b.jpg,stim_02/a.jpg,1,1,f,0,52,52,7,f,1,1.49954330741,02,03,60.0202290259,PLT_learning_02,B,2014_Feb_18_1621,P03,
stim_fb/ques.jpg,stim_fb/negf.jpg,stim_fb/posf.jpg,stim_02/a.jpg,stim_02/b.jpg,2,1,j,0,53,53,16,f,0,0.883068957869,02,03,60.0202290259,PLT_learning_02,B,2014_Feb_18_1621,P03,
stim_fb/ques.jpg,stim_fb/negf.jpg,stim_fb/posf.jpg,stim_02/f.jpg,stim_02/e.jpg,1,3,f,0,54,54,41,j,0,0.266622328319,02,03,60.0202290259,PLT_learning_02,B,2014_Feb_18_1621,P03,
stim_fb/ques.jpg,stim_fb/negf.jpg,stim_fb/posf.jpg,stim_02/b.jpg,stim_02/a.jpg,1,1,f,0,55,55,0,f,1,0.34992722037,02,03,60.0202290259,PLT_learning_02,B,2014_Feb_18_1621,P03,
stim_fb/ques.jpg,stim_fb/negf.jpg,stim_fb/posf.jpg,stim_02/d.jpg,stim_02/c.jpg,1,2,f,0,56,56,25,j,0,1.16631827761,02,03,60.0202290259,PLT_learning_02,B,2014_Feb_18_1621,P03,
stim_fb/ques.jpg,stim_fb/posf.jpg,stim_fb/negf.jpg,stim_02/a.jpg,stim_02/b.jpg,2,1,j,0,57,57,18,f,0,0.883061015102,02,03,60.0202290259,PLT_learning_02,B,2014_Feb_18_1621,P03,
stim_fb/ques.jpg,stim_fb/negf.jpg,stim_fb/posf.jpg,stim_02/d.jpg,stim_02/c.jpg,1,2,f,0,58,58,26,f,1,0.783168662007,02,03,60.0202290259,PLT_learning_02,B,2014_Feb_18_1621,P03,
stim_fb/ques.jpg,stim_fb/negf.jpg,stim_fb/posf.jpg,stim_02/a.jpg,stim_02/b.jpg,2,1,j,0,59,59,11,f,0,0.766448161863,02,03,60.0202290259,PLT_learning_02,B,2014_Feb_18_1621,P03,
stim_fb/ques.jpg,stim_fb/negf.jpg,stim_fb/posf.jpg,stim_02/a.jpg,stim_02/b.jpg,2,1,j,1,0,60,17,f,0,0.816451017469,02,03,60.0202290259,PLT_learning_02,B,2014_Feb_18_1621,P03,
stim_fb/ques.jpg,stim_fb/negf.jpg,stim_fb/posf.jpg,stim_02/b.jpg,stim_02/a.jpg,1,1,f,1,1,61,6,j,0,0.533229971091,02,03,60.0202290259,PLT_learning_02,B,2014_Feb_18_1621,P03,
stim_fb/ques.jpg,stim_fb/negf.jpg,stim_fb/posf.jpg,stim_02/a.jpg,stim_02/b.jpg,2,1,j,1,2,62,12,f,0,0.849762674857,02,03,60.0202290259,PLT_learning_02,B,2014_Feb_18_1621,P03,
stim_fb/ques.jpg,stim_fb/posf.jpg,stim_fb/negf.jpg,stim_02/e.jpg,stim_02/f.jpg,2,3,j,1,3,63,57,j,1,0.499871342804,02,03,60.0202290259,PLT_learning_02,B,2014_Feb_18_1621,P03,
stim_fb/ques.jpg,stim_fb/posf.jpg,stim_fb/negf.jpg,stim_02/e.jpg,stim_02/f.jpg,2,3,j,1,4,64,58,f,0,0.3999096732,02,03,60.0202290259,PLT_learning_02,B,2014_Feb_18_1621,P03,
stim_fb/ques.jpg,stim_fb/negf.jpg,stim_fb/posf.jpg,stim_02/e.jpg,stim_02/f.jpg,2,3,j,1,5,65,50,j,1,0.716480725405,02,03,60.0202290259,PLT_learning_02,B,2014_Feb_18_1621,P03,
stim_fb/ques.jpg,stim_fb/posf.jpg,stim_fb/negf.jpg,stim_02/e.jpg,stim_02/f.jpg,2,3,j,1,6,66,59,f,0,0.566528115848,02,03,60.0202290259,PLT_learning_02,B,2014_Feb_18_1621,P03,
stim_fb/ques.jpg,stim_fb/posf.jpg,stim_fb/negf.jpg,stim_02/a.jpg,stim_02/b.jpg,2,1,j,1,7,67,19,f,0,0.549855723431,02,03,60.0202290259,PLT_learning_02,B,2014_Feb_18_1621,P03,
stim_fb/ques.jpg,stim_fb/posf.jpg,stim_fb/negf.jpg,stim_02/e.jpg,stim_02/f.jpg,2,3,j,1,8,68,56,f,0,1.04973718041,02,03,60.0202290259,PLT_learning_02,B,2014_Feb_18_1621,P03,
stim_fb/ques.jpg,stim_fb/posf.jpg,stim_fb/negf.jpg,stim_02/c.jpg,stim_02/d.jpg,2,2,j,1,9,69,39,f,0,0.666479695342,02,03,60.0202290259,PLT_learning_02,B,2014_Feb_18_1621,P03,
stim_fb/ques.jpg,stim_fb/posf.jpg,stim_fb/negf.jpg,stim_02/d.jpg,stim_02/c.jpg,1,2,f,1,10,70,27,f,1,1.19965428961,02,03,60.0202290259,PLT_learning_02,B,2014_Feb_18_1621,P03,
stim_fb/ques.jpg,stim_fb/negf.jpg,stim_fb/posf.jpg,stim_02/e.jpg,stim_02/f.jpg,2,3,j,1,11,71,54,j,1,1.36624223035,02,03,60.0202290259,PLT_learning_02,B,2014_Feb_18_1621,P03,
stim_fb/ques.jpg,stim_fb/negf.jpg,stim_fb/posf.jpg,stim_02/f.jpg,stim_02/e.jpg,1,3,f,1,12,72,45,f,1,0.533195956436,02,03,60.0202290259,PLT_learning_02,B,2014_Feb_18_1621,P03,
stim_fb/ques.jpg,stim_fb/negf.jpg,stim_fb/posf.jpg,stim_02/b.jpg,stim_02/a.jpg,1,1,f,1,13,73,7,j,0,0.899718640767,02,03,60.0202290259,PLT_learning_02,B,2014_Feb_18_1621,P03,
stim_fb/ques.jpg,stim_fb/negf.jpg,stim_fb/posf.jpg,stim_02/f.jpg,stim_02/e.jpg,1,3,f,1,14,74,41,f,1,0.283273863828,02,03,60.0202290259,PLT_learning_02,B,2014_Feb_18_1621,P03,
stim_fb/ques.jpg,stim_fb/negf.jpg,stim_fb/posf.jpg,stim_02/d.jpg,stim_02/c.jpg,1,2,f,1,15,75,21,f,1,0.266633434961,02,03,60.0202290259,PLT_learning_02,B,2014_Feb_18_1621,P03,
stim_fb/ques.jpg,stim_fb/negf.jpg,stim_fb/posf.jpg,stim_02/c.jpg,stim_02/d.jpg,2,2,j,1,16,76,36,f,0,0.583127233904,02,03,60.0202290259,PLT_learning_02,B,2014_Feb_18_1621,P03,
stim_fb/ques.jpg,stim_fb/negf.jpg,stim_fb/posf.jpg,stim_02/c.jpg,stim_02/d.jpg,2,2,j,1,17,77,32,j,1,0.599818329869,02,03,60.0202290259,PLT_learning_02,B,2014_Feb_18_1621,P03,
stim_fb/ques.jpg,stim_fb/negf.jpg,stim_fb/posf.jpg,stim_02/a.jpg,stim_02/b.jpg,2,1,j,1,18,78,13,j,1,0.866393215114,02,03,60.0202290259,PLT_learning_02,B,2014_Feb_18_1621,P03,
stim_fb/ques.jpg,stim_fb/negf.jpg,stim_fb/posf.jpg,stim_02/b.jpg,stim_02/a.jpg,1,1,f,1,19,79,2,j,0,1.06633066544,02,03,60.0202290259,PLT_learning_02,B,2014_Feb_18_1621,P03,
stim_fb/ques.jpg,stim_fb/negf.jpg,stim_fb/posf.jpg,stim_02/e.jpg,stim_02/f.jpg,2,3,j,1,20,80,51,f,0,0.433234154502,02,03,60.0202290259,PLT_learning_02,B,2014_Feb_18_1621,P03,
stim_fb/ques.jpg,stim_fb/posf.jpg,stim_fb/negf.jpg,stim_02/f.jpg,stim_02/e.jpg,1,3,f,1,21,81,48,j,0,0.283292624519,02,03,60.0202290259,PLT_learning_02,B,2014_Feb_18_1621,P03,
stim_fb/ques.jpg,stim_fb/negf.jpg,stim_fb/posf.jpg,stim_02/e.jpg,stim_02/f.jpg,2,3,j,1,22,82,55,j,1,1.49954117811,02,03,60.0202290259,PLT_learning_02,B,2014_Feb_18_1621,P03,
stim_fb/ques.jpg,stim_fb/negf.jpg,stim_fb/posf.jpg,stim_02/a.jpg,stim_02/b.jpg,2,1,j,1,23,83,14,None,0,,02,03,60.0202290259,PLT_learning_02,B,2014_Feb_18_1621,P03,
stim_fb/ques.jpg,stim_fb/negf.jpg,stim_fb/posf.jpg,stim_02/c.jpg,stim_02/d.jpg,2,2,j,1,24,84,35,j,1,0.74963230941,02,03,60.0202290259,PLT_learning_02,B,2014_Feb_18_1621,P03,
stim_fb/ques.jpg,stim_fb/negf.jpg,stim_fb/posf.jpg,stim_02/b.jpg,stim_02/a.jpg,1,1,f,1,25,85,4,j,0,0.866439145424,02,03,60.0202290259,PLT_learning_02,B,2014_Feb_18_1621,P03,
stim_fb/ques.jpg,stim_fb/negf.jpg,stim_fb/posf.jpg,stim_02/b.jpg,stim_02/a.jpg,1,1,f,1,26,86,3,f,1,0.233305864971,02,03,60.0202290259,PLT_learning_02,B,2014_Feb_18_1621,P03,
stim_fb/ques.jpg,stim_fb/negf.jpg,stim_fb/posf.jpg,stim_02/c.jpg,stim_02/d.jpg,2,2,j,1,27,87,33,j,1,1.14967155107,02,03,60.0202290259,PLT_learning_02,B,2014_Feb_18_1621,P03,
stim_fb/ques.jpg,stim_fb/negf.jpg,stim_fb/posf.jpg,stim_02/b.jpg,stim_02/a.jpg,1,1,f,1,28,88,0,j,0,0.716491468142,02,03,60.0202290259,PLT_learning_02,B,2014_Feb_18_1621,P03,
stim_fb/ques.jpg,stim_fb/negf.jpg,stim_fb/posf.jpg,stim_02/d.jpg,stim_02/c.jpg,1,2,f,1,29,89,23,j,0,0.299944827691,02,03,60.0202290259,PLT_learning_02,B,2014_Feb_18_1621,P03,
stim_fb/ques.jpg,stim_fb/posf.jpg,stim_fb/negf.jpg,stim_02/c.jpg,stim_02/d.jpg,2,2,j,1,30,90,37,f,0,0.399932409785,02,03,60.0202290259,PLT_learning_02,B,2014_Feb_18_1621,P03,
stim_fb/ques.jpg,stim_fb/negf.jpg,stim_fb/posf.jpg,stim_02/a.jpg,stim_02/b.jpg,2,1,j,1,31,91,16,f,0,1.03305327233,02,03,60.0202290259,PLT_learning_02,B,2014_Feb_18_1621,P03,
stim_fb/ques.jpg,stim_fb/negf.jpg,stim_fb/posf.jpg,stim_02/f.jpg,stim_02/e.jpg,1,3,f,1,32,92,43,j,0,0.999722342981,02,03,60.0202290259,PLT_learning_02,B,2014_Feb_18_1621,P03,
stim_fb/ques.jpg,stim_fb/negf.jpg,stim_fb/posf.jpg,stim_02/a.jpg,stim_02/b.jpg,2,1,j,1,33,93,11,f,0,1.19961429006,02,03,60.0202290259,PLT_learning_02,B,2014_Feb_18_1621,P03,
stim_fb/ques.jpg,stim_fb/negf.jpg,stim_fb/posf.jpg,stim_02/c.jpg,stim_02/d.jpg,2,2,j,1,34,94,30,f,0,1.16629801619,02,03,60.0202290259,PLT_learning_02,B,2014_Feb_18_1621,P03,
stim_fb/ques.jpg,stim_fb/posf.jpg,stim_fb/negf.jpg,stim_02/c.jpg,stim_02/d.jpg,2,2,j,1,35,95,38,f,0,1.63283918452,02,03,60.0202290259,PLT_learning_02,B,2014_Feb_18_1621,P03,
stim_fb/ques.jpg,stim_fb/negf.jpg,stim_fb/posf.jpg,stim_02/d.jpg,stim_02/c.jpg,1,2,f,1,36,96,24,j,0,1.23297771228,02,03,60.0202290259,PLT_learning_02,B,2014_Feb_18_1621,P03,
stim_fb/ques.jpg,stim_fb/negf.jpg,stim_fb/posf.jpg,stim_02/d.jpg,stim_02/c.jpg,1,2,f,1,37,97,22,f,1,0.666461839904,02,03,60.0202290259,PLT_learning_02,B,2014_Feb_18_1621,P03,
stim_fb/ques.jpg,stim_fb/posf.jpg,stim_fb/negf.jpg,stim_02/f.jpg,stim_02/e.jpg,1,3,f,1,38,98,49,j,0,0.616530577475,02,03,60.0202290259,PLT_learning_02,B,2014_Feb_18_1621,P03,
stim_fb/ques.jpg,stim_fb/posf.jpg,stim_fb/negf.jpg,stim_02/f.jpg,stim_02/e.jpg,1,3,f,1,39,99,46,j,0,0.649780713751,02,03,60.0202290259,PLT_learning_02,B,2014_Feb_18_1621,P03,
stim_fb/ques.jpg,stim_fb/negf.jpg,stim_fb/posf.jpg,stim_02/a.jpg,stim_02/b.jpg,2,1,j,1,40,100,10,j,1,0.966373774732,02,03,60.0202290259,PLT_learning_02,B,2014_Feb_18_1621,P03,
stim_fb/ques.jpg,stim_fb/negf.jpg,stim_fb/posf.jpg,stim_02/f.jpg,stim_02/e.jpg,1,3,f,1,41,101,42,f,1,0.366586809923,02,03,60.0202290259,PLT_learning_02,B,2014_Feb_18_1621,P03,
stim_fb/ques.jpg,stim_fb/posf.jpg,stim_fb/negf.jpg,stim_02/f.jpg,stim_02/e.jpg,1,3,f,1,42,102,47,j,0,0.599892939553,02,03,60.0202290259,PLT_learning_02,B,2014_Feb_18_1621,P03,
stim_fb/ques.jpg,stim_fb/negf.jpg,stim_fb/posf.jpg,stim_02/b.jpg,stim_02/a.jpg,1,1,f,1,43,103,5,f,1,0.533187255783,02,03,60.0202290259,PLT_learning_02,B,2014_Feb_18_1621,P03,
stim_fb/ques.jpg,stim_fb/posf.jpg,stim_fb/negf.jpg,stim_02/a.jpg,stim_02/b.jpg,2,1,j,1,44,104,18,j,1,0.399907877731,02,03,60.0202290259,PLT_learning_02,B,2014_Feb_18_1621,P03,
stim_fb/ques.jpg,stim_fb/negf.jpg,stim_fb/posf.jpg,stim_02/d.jpg,stim_02/c.jpg,1,2,f,1,45,105,26,f,1,0.233293750822,02,03,60.0202290259,PLT_learning_02,B,2014_Feb_18_1621,P03,
stim_fb/ques.jpg,stim_fb/posf.jpg,stim_fb/negf.jpg,stim_02/b.jpg,stim_02/a.jpg,1,1,f,1,46,106,8,j,0,1.21629676357,02,03,60.0202290259,PLT_learning_02,B,2014_Feb_18_1621,P03,
stim_fb/ques.jpg,stim_fb/negf.jpg,stim_fb/posf.jpg,stim_02/c.jpg,stim_02/d.jpg,2,2,j,1,47,107,34,j,1,0.833104411604,02,03,60.0202290259,PLT_learning_02,B,2014_Feb_18_1621,P03,
stim_fb/ques.jpg,stim_fb/negf.jpg,stim_fb/posf.jpg,stim_02/b.jpg,stim_02/a.jpg,1,1,f,1,48,108,1,j,0,0.749797423337,02,03,60.0202290259,PLT_learning_02,B,2014_Feb_18_1621,P03,
stim_fb/ques.jpg,stim_fb/negf.jpg,stim_fb/posf.jpg,stim_02/e.jpg,stim_02/f.jpg,2,3,j,1,49,109,53,f,0,0.499885790761,02,03,60.0202290259,PLT_learning_02,B,2014_Feb_18_1621,P03,
stim_fb/ques.jpg,stim_fb/negf.jpg,stim_fb/posf.jpg,stim_02/d.jpg,stim_02/c.jpg,1,2,f,1,50,110,25,j,0,0.433219056928,02,03,60.0202290259,PLT_learning_02,B,2014_Feb_18_1621,P03,
stim_fb/ques.jpg,stim_fb/posf.jpg,stim_fb/negf.jpg,stim_02/d.jpg,stim_02/c.jpg,1,2,f,1,51,111,29,f,1,0.249983303947,02,03,60.0202290259,PLT_learning_02,B,2014_Feb_18_1621,P03,
stim_fb/ques.jpg,stim_fb/posf.jpg,stim_fb/negf.jpg,stim_02/b.jpg,stim_02/a.jpg,1,1,f,1,52,112,9,j,0,0.0833313699477,02,03,60.0202290259,PLT_learning_02,B,2014_Feb_18_1621,P03,
stim_fb/ques.jpg,stim_fb/negf.jpg,stim_fb/posf.jpg,stim_02/a.jpg,stim_02/b.jpg,2,1,j,1,53,113,15,f,0,0.799781590433,02,03,60.0202290259,PLT_learning_02,B,2014_Feb_18_1621,P03,
stim_fb/ques.jpg,stim_fb/posf.jpg,stim_fb/negf.jpg,stim_02/d.jpg,stim_02/c.jpg,1,2,f,1,54,114,28,j,0,0.633160853074,02,03,60.0202290259,PLT_learning_02,B,2014_Feb_18_1621,P03,
stim_fb/ques.jpg,stim_fb/negf.jpg,stim_fb/posf.jpg,stim_02/c.jpg,stim_02/d.jpg,2,2,j,1,55,115,31,f,0,1.24967655252,02,03,60.0202290259,PLT_learning_02,B,2014_Feb_18_1621,P03,
stim_fb/ques.jpg,stim_fb/negf.jpg,stim_fb/posf.jpg,stim_02/f.jpg,stim_02/e.jpg,1,3,f,1,56,116,44,j,0,1.26623549058,02,03,60.0202290259,PLT_learning_02,B,2014_Feb_18_1621,P03,
stim_fb/ques.jpg,stim_fb/negf.jpg,stim_fb/posf.jpg,stim_02/d.jpg,stim_02/c.jpg,1,2,f,1,57,117,20,j,0,1.03303466502,02,03,60.0202290259,PLT_learning_02,B,2014_Feb_18_1621,P03,
stim_fb/ques.jpg,stim_fb/negf.jpg,stim_fb/posf.jpg,stim_02/f.jpg,stim_02/e.jpg,1,3,f,1,58,118,40,f,1,0.549877389353,02,03,60.0202290259,PLT_learning_02,B,2014_Feb_18_1621,P03,
stim_fb/ques.jpg,stim_fb/negf.jpg,stim_fb/posf.jpg,stim_02/e.jpg,stim_02/f.jpg,2,3,j,1,59,119,52,None,0,,02,03,60.0202290259,PLT_learning_02,B,2014_Feb_18_1621,P03,
stim_fb/ques.jpg,stim_fb/posf.jpg,stim_fb/negf.jpg,stim_02/c.jpg,stim_02/d.jpg,2,2,j,2,0,120,37,j,1,1.19966540528,02,03,60.0202290259,PLT_learning_02,B,2014_Feb_18_1621,P03,
stim_fb/ques.jpg,stim_fb/negf.jpg,stim_fb/posf.jpg,stim_02/a.jpg,stim_02/b.jpg,2,1,j,2,1,121,16,j,1,0.883079853987,02,03,60.0202290259,PLT_learning_02,B,2014_Feb_18_1621,P03,
stim_fb/ques.jpg,stim_fb/negf.jpg,stim_fb/posf.jpg,stim_02/c.jpg,stim_02/d.jpg,2,2,j,2,2,122,31,j,1,0.749820250147,02,03,60.0202290259,PLT_learning_02,B,2014_Feb_18_1621,P03,
stim_fb/ques.jpg,stim_fb/negf.jpg,stim_fb/posf.jpg,stim_02/c.jpg,stim_02/d.jpg,2,2,j,2,3,123,34,j,1,0.699811178069,02,03,60.0202290259,PLT_learning_02,B,2014_Feb_18_1621,P03,
stim_fb/ques.jpg,stim_fb/posf.jpg,stim_fb/negf.jpg,stim_02/a.jpg,stim_02/b.jpg,2,1,j,2,4,124,18,j,1,0.433252449033,02,03,60.0202290259,PLT_learning_02,B,2014_Feb_18_1621,P03,
stim_fb/ques.jpg,stim_fb/negf.jpg,stim_fb/posf.jpg,stim_02/d.jpg,stim_02/c.jpg,1,2,f,2,5,125,25,f,1,0.333318114457,02,03,60.0202290259,PLT_learning_02,B,2014_Feb_18_1621,P03,
stim_fb/ques.jpg,stim_fb/posf.jpg,stim_fb/negf.jpg,stim_02/c.jpg,stim_02/d.jpg,2,2,j,2,6,126,38,f,0,1.18301531938,02,03,60.0202290259,PLT_learning_02,B,2014_Feb_18_1621,P03,
stim_fb/ques.jpg,stim_fb/negf.jpg,stim_fb/posf.jpg,stim_02/e.jpg,stim_02/f.jpg,2,3,j,2,7,127,50,j,1,0.69981951181,02,03,60.0202290259,PLT_learning_02,B,2014_Feb_18_1621,P03,
stim_fb/ques.jpg,stim_fb/negf.jpg,stim_fb/posf.jpg,stim_02/a.jpg,stim_02/b.jpg,2,1,j,2,8,128,13,j,1,0.483189819663,02,03,60.0202290259,PLT_learning_02,B,2014_Feb_18_1621,P03,
stim_fb/ques.jpg,stim_fb/posf.jpg,stim_fb/negf.jpg,stim_02/d.jpg,stim_02/c.jpg,1,2,f,2,9,129,28,j,0,0.583207666079,02,03,60.0202290259,PLT_learning_02,B,2014_Feb_18_1621,P03,
stim_fb/ques.jpg,stim_fb/negf.jpg,stim_fb/posf.jpg,stim_02/c.jpg,stim_02/d.jpg,2,2,j,2,10,130,35,j,1,0.666677263039,02,03,60.0202290259,PLT_learning_02,B,2014_Feb_18_1621,P03,
stim_fb/ques.jpg,stim_fb/negf.jpg,stim_fb/posf.jpg,stim_02/d.jpg,stim_02/c.jpg,1,2,f,2,11,131,20,j,0,0.383238327388,02,03,60.0202290259,PLT_learning_02,B,2014_Feb_18_1621,P03,
stim_fb/ques.jpg,stim_fb/negf.jpg,stim_fb/posf.jpg,stim_02/b.jpg,stim_02/a.jpg,1,1,f,2,12,132,1,f,1,0.349924372282,02,03,60.0202290259,PLT_learning_02,B,2014_Feb_18_1621,P03,
stim_fb/ques.jpg,stim_fb/posf.jpg,stim_fb/negf.jpg,stim_02/e.jpg,stim_02/f.jpg,2,3,j,2,13,133,58,j,1,0.633169379293,02,03,60.0202290259,PLT_learning_02,B,2014_Feb_18_1621,P03,
stim_fb/ques.jpg,stim_fb/negf.jpg,stim_fb/posf.jpg,stim_02/c.jpg,stim_02/d.jpg,2,2,j,2,14,134,32,f,0,0.58319109183,02,03,60.0202290259,PLT_learning_02,B,2014_Feb_18_1621,P03,
stim_fb/ques.jpg,stim_fb/negf.jpg,stim_fb/posf.jpg,stim_02/f.jpg,stim_02/e.jpg,1,3,f,2,15,135,41,j,0,0.416587746755,02,03,60.0202290259,PLT_learning_02,B,2014_Feb_18_1621,P03,
stim_fb/ques.jpg,stim_fb/negf.jpg,stim_fb/posf.jpg,stim_02/a.jpg,stim_02/b.jpg,2,1,j,2,16,136,12,f,0,0.516536583422,02,03,60.0202290259,PLT_learning_02,B,2014_Feb_18_1621,P03,
stim_fb/ques.jpg,stim_fb/negf.jpg,stim_fb/posf.jpg,stim_02/b.jpg,stim_02/a.jpg,1,1,f,2,17,137,0,j,0,0.416580817509,02,03,60.0202290259,PLT_learning_02,B,2014_Feb_18_1621,P03,
stim_fb/ques.jpg,stim_fb/posf.jpg,stim_fb/negf.jpg,stim_02/e.jpg,stim_02/f.jpg,2,3,j,2,18,138,59,j,1,0.849824063639,02,03,60.0202290259,PLT_learning_02,B,2014_Feb_18_1621,P03,
stim_fb/ques.jpg,stim_fb/negf.jpg,stim_fb/posf.jpg,stim_02/a.jpg,stim_02/b.jpg,2,1,j,2,19,139,15,f,0,0.533170922133,02,03,60.0202290259,PLT_learning_02,B,2014_Feb_18_1621,P03,
stim_fb/ques.jpg,stim_fb/posf.jpg,stim_fb/negf.jpg,stim_02/f.jpg,stim_02/e.jpg,1,3,f,2,20,140,48,j,0,0.949770840179,02,03,60.0202290259,PLT_learning_02,B,2014_Feb_18_1621,P03,
stim_fb/ques.jpg,stim_fb/negf.jpg,stim_fb/posf.jpg,stim_02/d.jpg,stim_02/c.jpg,1,2,f,2,21,141,23,j,0,0.549861765468,02,03,60.0202290259,PLT_learning_02,B,2014_Feb_18_1621,P03,
stim_fb/ques.jpg,stim_fb/negf.jpg,stim_fb/posf.jpg,stim_02/a.jpg,stim_02/b.jpg,2,1,j,2,22,142,14,f,0,0.384237230408,02,03,60.0202290259,PLT_learning_02,B,2014_Feb_18_1621,P03,
stim_fb/ques.jpg,stim_fb/negf.jpg,stim_fb/posf.jpg,stim_02/e.jpg,stim_02/f.jpg,2,3,j,2,23,143,51,j,1,0.43327133303,02,03,60.0202290259,PLT_learning_02,B,2014_Feb_18_1621,P03,
stim_fb/ques.jpg,stim_fb/negf.jpg,stim_fb/posf.jpg,stim_02/a.jpg,stim_02/b.jpg,2,1,j,2,24,144,10,f,0,0.999685338888,02,03,60.0202290259,PLT_learning_02,B,2014_Feb_18_1621,P03,
stim_fb/ques.jpg,stim_fb/negf.jpg,stim_fb/posf.jpg,stim_02/e.jpg,stim_02/f.jpg,2,3,j,2,25,145,55,j,1,1.26629350195,02,03,60.0202290259,PLT_learning_02,B,2014_Feb_18_1621,P03,
stim_fb/ques.jpg,stim_fb/posf.jpg,stim_fb/negf.jpg,stim_02/f.jpg,stim_02/e.jpg,1,3,f,2,26,146,49,j,0,0.24993957211,02,03,60.0202290259,PLT_learning_02,B,2014_Feb_18_1621,P03,
stim_fb/ques.jpg,stim_fb/negf.jpg,stim_fb/posf.jpg,stim_02/d.jpg,stim_02/c.jpg,1,2,f,2,27,147,26,f,1,0.249974257434,02,03,60.0202290259,PLT_learning_02,B,2014_Feb_18_1621,P03,
stim_fb/ques.jpg,stim_fb/posf.jpg,stim_fb/negf.jpg,stim_02/a.jpg,stim_02/b.jpg,2,1,j,2,28,148,19,f,0,0.0167197783485,02,03,60.0202290259,PLT_learning_02,B,2014_Feb_18_1621,P03,
stim_fb/ques.jpg,stim_fb/negf.jpg,stim_fb/posf.jpg,stim_02/e.jpg,stim_02/f.jpg,2,3,j,2,29,149,52,j,1,0.499874774345,02,03,60.0202290259,PLT_learning_02,B,2014_Feb_18_1621,P03,
stim_fb/ques.jpg,stim_fb/negf.jpg,stim_fb/posf.jpg,stim_02/f.jpg,stim_02/e.jpg,1,3,f,2,30,150,42,j,0,0.383261656447,02,03,60.0202290259,PLT_learning_02,B,2014_Feb_18_1621,P03,
stim_fb/ques.jpg,stim_fb/posf.jpg,stim_fb/negf.jpg,stim_02/c.jpg,stim_02/d.jpg,2,2,j,2,31,151,39,f,0,1.19962265388,02,03,60.0202290259,PLT_learning_02,B,2014_Feb_18_1621,P03,
stim_fb/ques.jpg,stim_fb/negf.jpg,stim_fb/posf.jpg,stim_02/c.jpg,stim_02/d.jpg,2,2,j,2,32,152,33,j,1,1.14967882016,02,03,60.0202290259,PLT_learning_02,B,2014_Feb_18_1621,P03,
stim_fb/ques.jpg,stim_fb/negf.jpg,stim_fb/posf.jpg,stim_02/e.jpg,stim_02/f.jpg,2,3,j,2,33,153,54,j,1,1.31626650827,02,03,60.0202290259,PLT_learning_02,B,2014_Feb_18_1621,P03,
stim_fb/ques.jpg,stim_fb/negf.jpg,stim_fb/posf.jpg,stim_02/b.jpg,stim_02/a.jpg,1,1,f,2,34,154,4,f,1,0.366598136111,02,03,60.0202290259,PLT_learning_02,B,2014_Feb_18_1621,P03,
stim_fb/ques.jpg,stim_fb/negf.jpg,stim_fb/posf.jpg,stim_02/b.jpg,stim_02/a.jpg,1,1,f,2,35,155,7,f,1,0.533205802942,02,03,60.0202290259,PLT_learning_02,B,2014_Feb_18_1621,P03,
stim_fb/ques.jpg,stim_fb/posf.jpg,stim_fb/negf.jpg,stim_02/d.jpg,stim_02/c.jpg,1,2,f,2,36,156,29,j,0,0.616524339951,02,03,60.0202290259,PLT_learning_02,B,2014_Feb_18_1621,P03,
stim_fb/ques.jpg,stim_fb/negf.jpg,stim_fb/posf.jpg,stim_02/b.jpg,stim_02/a.jpg,1,1,f,2,37,157,5,f,1,0.433241276226,02,03,60.0202290259,PLT_learning_02,B,2014_Feb_18_1621,P03,
stim_fb/ques.jpg,stim_fb/negf.jpg,stim_fb/posf.jpg,stim_02/d.jpg,stim_02/c.jpg,1,2,f,2,38,158,22,j,0,0.666478693849,02,03,60.0202290259,PLT_learning_02,B,2014_Feb_18_1621,P03,
stim_fb/ques.jpg,stim_fb/negf.jpg,stim_fb/posf.jpg,stim_02/b.jpg,stim_02/a.jpg,1,1,f,2,39,159,2,f,1,1.01642401627,02,03,60.0202290259,PLT_learning_02,B,2014_Feb_18_1621,P03,
stim_fb/ques.jpg,stim_fb/negf.jpg,stim_fb/posf.jpg,stim_02/b.jpg,stim_02/a.jpg,1,1,f,2,40,160,3,f,1,0.566516392672,02,03,60.0202290259,PLT_learning_02,B,2014_Feb_18_1621,P03,
stim_fb/ques.jpg,stim_fb/negf.jpg,stim_fb/posf.jpg,stim_02/d.jpg,stim_02/c.jpg,1,2,f,2,41,161,24,j,0,0.483170761232,02,03,60.0202290259,PLT_learning_02,B,2014_Feb_18_1621,P03,
stim_fb/ques.jpg,stim_fb/negf.jpg,stim_fb/posf.jpg,stim_02/e.jpg,stim_02/f.jpg,2,3,j,2,42,162,53,j,1,1.16632967297,02,03,60.0202290259,PLT_learning_02,B,2014_Feb_18_1621,P03,
stim_fb/ques.jpg,stim_fb/negf.jpg,stim_fb/posf.jpg,stim_02/a.jpg,stim_02/b.jpg,2,1,j,2,43,163,11,j,1,0.449883425375,02,03,60.0202290259,PLT_learning_02,B,2014_Feb_18_1621,P03,
stim_fb/ques.jpg,stim_fb/negf.jpg,stim_fb/posf.jpg,stim_02/a.jpg,stim_02/b.jpg,2,1,j,2,44,164,17,f,0,0.399888485468,02,03,60.0202290259,PLT_learning_02,B,2014_Feb_18_1621,P03,
stim_fb/ques.jpg,stim_fb/negf.jpg,stim_fb/posf.jpg,stim_02/c.jpg,stim_02/d.jpg,2,2,j,2,45,165,36,f,0,0.316607975098,02,03,60.0202290259,PLT_learning_02,B,2014_Feb_18_1621,P03,
stim_fb/ques.jpg,stim_fb/posf.jpg,stim_fb/negf.jpg,stim_02/b.jpg,stim_02/a.jpg,1,1,f,2,46,166,9,j,0,0.716464316568,02,03,60.0202290259,PLT_learning_02,B,2014_Feb_18_1621,P03,
stim_fb/ques.jpg,stim_fb/negf.jpg,stim_fb/posf.jpg,stim_02/f.jpg,stim_02/e.jpg,1,3,f,2,47,167,44,j,0,1.06632893614,02,03,60.0202290259,PLT_learning_02,B,2014_Feb_18_1621,P03,
stim_fb/ques.jpg,stim_fb/negf.jpg,stim_fb/posf.jpg,stim_02/f.jpg,stim_02/e.jpg,1,3,f,2,48,168,45,j,0,1.53290374018,02,03,60.0202290259,PLT_learning_02,B,2014_Feb_18_1621,P03,
stim_fb/ques.jpg,stim_fb/negf.jpg,stim_fb/posf.jpg,stim_02/f.jpg,stim_02/e.jpg,1,3,f,2,49,169,43,j,0,0.466597182739,02,03,60.0202290259,PLT_learning_02,B,2014_Feb_18_1621,P03,
stim_fb/ques.jpg,stim_fb/posf.jpg,stim_fb/negf.jpg,stim_02/e.jpg,stim_02/f.jpg,2,3,j,2,50,170,56,f,0,0.233387485104,02,03,60.0202290259,PLT_learning_02,B,2014_Feb_18_1621,P03,
stim_fb/ques.jpg,stim_fb/negf.jpg,stim_fb/posf.jpg,stim_02/d.jpg,stim_02/c.jpg,1,2,f,2,51,171,21,j,0,1.34958258065,02,03,60.0202290259,PLT_learning_02,B,2014_Feb_18_1621,P03,
stim_fb/ques.jpg,stim_fb/posf.jpg,stim_fb/negf.jpg,stim_02/b.jpg,stim_02/a.jpg,1,1,f,2,52,172,8,f,1,0.66646950899,02,03,60.0202290259,PLT_learning_02,B,2014_Feb_18_1621,P03,
stim_fb/ques.jpg,stim_fb/posf.jpg,stim_fb/negf.jpg,stim_02/d.jpg,stim_02/c.jpg,1,2,f,2,53,173,27,j,0,0.499890190712,02,03,60.0202290259,PLT_learning_02,B,2014_Feb_18_1621,P03,
stim_fb/ques.jpg,stim_fb/posf.jpg,stim_fb/negf.jpg,stim_02/f.jpg,stim_02/e.jpg,1,3,f,2,54,174,47,j,0,0.349920411423,02,03,60.0202290259,PLT_learning_02,B,2014_Feb_18_1621,P03,
stim_fb/ques.jpg,stim_fb/posf.jpg,stim_fb/negf.jpg,stim_02/e.jpg,stim_02/f.jpg,2,3,j,2,55,175,57,j,1,0.316625749334,02,03,60.0202290259,PLT_learning_02,B,2014_Feb_18_1621,P03,
stim_fb/ques.jpg,stim_fb/negf.jpg,stim_fb/posf.jpg,stim_02/f.jpg,stim_02/e.jpg,1,3,f,2,56,176,40,f,1,0.266627462096,02,03,60.0202290259,PLT_learning_02,B,2014_Feb_18_1621,P03,
stim_fb/ques.jpg,stim_fb/negf.jpg,stim_fb/posf.jpg,stim_02/c.jpg,stim_02/d.jpg,2,2,j,2,57,177,30,f,0,0.19997064394,02,03,60.0202290259,PLT_learning_02,B,2014_Feb_18_1621,P03,
stim_fb/ques.jpg,stim_fb/negf.jpg,stim_fb/posf.jpg,stim_02/b.jpg,stim_02/a.jpg,1,1,f,2,58,178,6,j,0,0.783119757296,02,03,60.0202290259,PLT_learning_02,B,2014_Feb_18_1621,P03,
stim_fb/ques.jpg,stim_fb/posf.jpg,stim_fb/negf.jpg,stim_02/f.jpg,stim_02/e.jpg,1,3,f,2,59,179,46,f,1,0.366645488961,02,03,60.0202290259,PLT_learning_02,B,2014_Feb_18_1621,P03,
stim_fb/ques.jpg,stim_fb/posf.jpg,stim_fb/negf.jpg,stim_02/d.jpg,stim_02/c.jpg,1,2,f,3,0,180,28,j,0,1.59951791521,02,03,60.0202290259,PLT_learning_02,B,2014_Feb_18_1621,P03,
stim_fb/ques.jpg,stim_fb/posf.jpg,stim_fb/negf.jpg,stim_02/e.jpg,stim_02/f.jpg,2,3,j,3,1,181,58,j,1,0.39992257531,02,03,60.0202290259,PLT_learning_02,B,2014_Feb_18_1621,P03,
stim_fb/ques.jpg,stim_fb/negf.jpg,stim_fb/posf.jpg,stim_02/a.jpg,stim_02/b.jpg,2,1,j,3,2,182,15,f,0,0.283284390025,02,03,60.0202290259,PLT_learning_02,B,2014_Feb_18_1621,P03,
stim_fb/ques.jpg,stim_fb/negf.jpg,stim_fb/posf.jpg,stim_02/b.jpg,stim_02/a.jpg,1,1,f,3,3,183,7,f,1,0.366602999215,02,03,60.0202290259,PLT_learning_02,B,2014_Feb_18_1621,P03,
stim_fb/ques.jpg,stim_fb/posf.jpg,stim_fb/negf.jpg,stim_02/f.jpg,stim_02/e.jpg,1,3,f,3,4,184,48,f,1,0.266656700865,02,03,60.0202290259,PLT_learning_02,B,2014_Feb_18_1621,P03,
stim_fb/ques.jpg,stim_fb/negf.jpg,stim_fb/posf.jpg,stim_02/c.jpg,stim_02/d.jpg,2,2,j,3,5,185,32,j,1,0.683163074101,02,03,60.0202290259,PLT_learning_02,B,2014_Feb_18_1621,P03,
stim_fb/ques.jpg,stim_fb/negf.jpg,stim_fb/posf.jpg,stim_02/d.jpg,stim_02/c.jpg,1,2,f,3,6,186,24,j,0,0.516530403041,02,03,60.0202290259,PLT_learning_02,B,2014_Feb_18_1621,P03,
stim_fb/ques.jpg,stim_fb/negf.jpg,stim_fb/posf.jpg,stim_02/a.jpg,stim_02/b.jpg,2,1,j,3,7,187,16,f,0,0.299978270921,02,03,60.0202290259,PLT_learning_02,B,2014_Feb_18_1621,P03,
stim_fb/ques.jpg,stim_fb/posf.jpg,stim_fb/negf.jpg,stim_02/a.jpg,stim_02/b.jpg,2,1,j,3,8,188,19,j,1,0.499725588057,02,03,60.0202290259,PLT_learning_02,B,2014_Feb_18_1621,P03,
stim_fb/ques.jpg,stim_fb/negf.jpg,stim_fb/posf.jpg,stim_02/b.jpg,stim_02/a.jpg,1,1,f,3,9,189,1,f,1,0.166629007944,02,03,60.0202290259,PLT_learning_02,B,2014_Feb_18_1621,P03,
stim_fb/ques.jpg,stim_fb/posf.jpg,stim_fb/negf.jpg,stim_02/c.jpg,stim_02/d.jpg,2,2,j,3,10,190,38,j,1,0.733078553249,02,03,60.0202290259,PLT_learning_02,B,2014_Feb_18_1621,P03,
stim_fb/ques.jpg,stim_fb/negf.jpg,stim_fb/posf.jpg,stim_02/a.jpg,stim_02/b.jpg,2,1,j,3,11,191,12,f,0,0.349936026285,02,03,60.0202290259,PLT_learning_02,B,2014_Feb_18_1621,P03,
stim_fb/ques.jpg,stim_fb/negf.jpg,stim_fb/posf.jpg,stim_02/e.jpg,stim_02/f.jpg,2,3,j,3,12,192,51,j,1,0.366592139187,02,03,60.0202290259,PLT_learning_02,B,2014_Feb_18_1621,P03,
stim_fb/ques.jpg,stim_fb/posf.jpg,stim_fb/negf.jpg,stim_02/a.jpg,stim_02/b.jpg,2,1,j,3,13,193,18,j,1,0.433233907887,02,03,60.0202290259,PLT_learning_02,B,2014_Feb_18_1621,P03,
stim_fb/ques.jpg,stim_fb/posf.jpg,stim_fb/negf.jpg,stim_02/f.jpg,stim_02/e.jpg,1,3,f,3,14,194,49,f,1,0.333257206874,02,03,60.0202290259,PLT_learning_02,B,2014_Feb_18_1621,P03,
stim_fb/ques.jpg,stim_fb/negf.jpg,stim_fb/posf.jpg,stim_02/f.jpg,stim_02/e.jpg,1,3,f,3,15,195,41,j,0,0.549799161663,02,03,60.0202290259,PLT_learning_02,B,2014_Feb_18_1621,P03,
stim_fb/ques.jpg,stim_fb/negf.jpg,stim_fb/posf.jpg,stim_02/e.jpg,stim_02/f.jpg,2,3,j,3,16,196,50,f,0,0.249970119134,02,03,60.0202290259,PLT_learning_02,B,2014_Feb_18_1621,P03,
stim_fb/ques.jpg,stim_fb/negf.jpg,stim_fb/posf.jpg,stim_02/b.jpg,stim_02/a.jpg,1,1,f,3,17,197,0,j,0,0.466557023793,02,03,60.0202290259,PLT_learning_02,B,2014_Feb_18_1621,P03,
stim_fb/ques.jpg,stim_fb/negf.jpg,stim_fb/posf.jpg,stim_02/f.jpg,stim_02/e.jpg,1,3,f,3,18,198,45,j,0,0.749824941824,02,03,60.0202290259,PLT_learning_02,B,2014_Feb_18_1621,P03,
stim_fb/ques.jpg,stim_fb/negf.jpg,stim_fb/posf.jpg,stim_02/c.jpg,stim_02/d.jpg,2,2,j,3,19,199,30,j,1,0.78311754078,02,03,60.0202290259,PLT_learning_02,B,2014_Feb_18_1621,P03,
stim_fb/ques.jpg,stim_fb/negf.jpg,stim_fb/posf.jpg,stim_02/c.jpg,stim_02/d.jpg,2,2,j,3,20,200,31,j,1,0.583160114736,02,03,60.0202290259,PLT_learning_02,B,2014_Feb_18_1621,P03,
stim_fb/ques.jpg,stim_fb/negf.jpg,stim_fb/posf.jpg,stim_02/d.jpg,stim_02/c.jpg,1,2,f,3,21,201,20,j,0,0.249953093762,02,03,60.0202290259,PLT_learning_02,B,2014_Feb_18_1621,P03,
stim_fb/ques.jpg,stim_fb/negf.jpg,stim_fb/posf.jpg,stim_02/c.jpg,stim_02/d.jpg,2,2,j,3,22,202,34,None,0,,02,03,60.0202290259,PLT_learning_02,B,2014_Feb_18_1621,P03,
stim_fb/ques.jpg,stim_fb/negf.jpg,stim_fb/posf.jpg,stim_02/a.jpg,stim_02/b.jpg,2,1,j,3,23,203,11,j,1,0.416560119999,02,03,60.0202290259,PLT_learning_02,B,2014_Feb_18_1621,P03,
stim_fb/ques.jpg,stim_fb/negf.jpg,stim_fb/posf.jpg,stim_02/d.jpg,stim_02/c.jpg,1,2,f,3,24,204,25,f,1,1.01638740014,02,03,60.0202290259,PLT_learning_02,B,2014_Feb_18_1621,P03,
stim_fb/ques.jpg,stim_fb/posf.jpg,stim_fb/negf.jpg,stim_02/d.jpg,stim_02/c.jpg,1,2,f,3,25,205,27,f,1,0.833064851148,02,03,60.0202290259,PLT_learning_02,B,2014_Feb_18_1621,P03,
stim_fb/ques.jpg,stim_fb/negf.jpg,stim_fb/posf.jpg,stim_02/b.jpg,stim_02/a.jpg,1,1,f,3,26,206,3,j,0,0.583206399928,02,03,60.0202290259,PLT_learning_02,B,2014_Feb_18_1621,P03,
stim_fb/ques.jpg,stim_fb/negf.jpg,stim_fb/posf.jpg,stim_02/a.jpg,stim_02/b.jpg,2,1,j,3,27,207,13,j,1,0.916419865941,02,03,60.0202290259,PLT_learning_02,B,2014_Feb_18_1621,P03,
stim_fb/ques.jpg,stim_fb/posf.jpg,stim_fb/negf.jpg,stim_02/c.jpg,stim_02/d.jpg,2,2,j,3,28,208,39,j,1,0.36659101138,02,03,60.0202290259,PLT_learning_02,B,2014_Feb_18_1621,P03,
stim_fb/ques.jpg,stim_fb/posf.jpg,stim_fb/negf.jpg,stim_02/b.jpg,stim_02/a.jpg,1,1,f,3,29,209,9,f,1,0.433242978463,02,03,60.0202290259,PLT_learning_02,B,2014_Feb_18_1621,P03,
stim_fb/ques.jpg,stim_fb/posf.jpg,stim_fb/negf.jpg,stim_02/e.jpg,stim_02/f.jpg,2,3,j,3,30,210,59,j,1,0.733136868382,02,03,60.0202290259,PLT_learning_02,B,2014_Feb_18_1621,P03,
stim_fb/ques.jpg,stim_fb/negf.jpg,stim_fb/posf.jpg,stim_02/e.jpg,stim_02/f.jpg,2,3,j,3,31,211,52,j,1,0.899764417695,02,03,60.0202290259,PLT_learning_02,B,2014_Feb_18_1621,P03,
stim_fb/ques.jpg,stim_fb/negf.jpg,stim_fb/posf.jpg,stim_02/b.jpg,stim_02/a.jpg,1,1,f,3,32,212,5,j,0,0.999695001936,02,03,60.0202290259,PLT_learning_02,B,2014_Feb_18_1621,P03,
stim_fb/ques.jpg,stim_fb/negf.jpg,stim_fb/posf.jpg,stim_02/e.jpg,stim_02/f.jpg,2,3,j,3,33,213,53,f,0,0.64982531776,02,03,60.0202290259,PLT_learning_02,B,2014_Feb_18_1621,P03,
stim_fb/ques.jpg,stim_fb/posf.jpg,stim_fb/negf.jpg,stim_02/c.jpg,stim_02/d.jpg,2,2,j,3,34,214,37,j,1,0.366539135272,02,03,60.0202290259,PLT_learning_02,B,2014_Feb_18_1621,P03,
stim_fb/ques.jpg,stim_fb/negf.jpg,stim_fb/posf.jpg,stim_02/e.jpg,stim_02/f.jpg,2,3,j,3,35,215,55,f,0,0.616462021857,02,03,60.0202290259,PLT_learning_02,B,2014_Feb_18_1621,P03,
stim_fb/ques.jpg,stim_fb/negf.jpg,stim_fb/posf.jpg,stim_02/f.jpg,stim_02/e.jpg,1,3,f,3,36,216,42,j,0,0.349918760315,02,03,60.0202290259,PLT_learning_02,B,2014_Feb_18_1621,P03,
stim_fb/ques.jpg,stim_fb/negf.jpg,stim_fb/posf.jpg,stim_02/d.jpg,stim_02/c.jpg,1,2,f,3,37,217,22,f,1,0.349923755747,02,03,60.0202290259,PLT_learning_02,B,2014_Feb_18_1621,P03,
stim_fb/ques.jpg,stim_fb/negf.jpg,stim_fb/posf.jpg,stim_02/d.jpg,stim_02/c.jpg,1,2,f,3,38,218,23,j,0,0.583162454559,02,03,60.0202290259,PLT_learning_02,B,2014_Feb_18_1621,P03,
stim_fb/ques.jpg,stim_fb/posf.jpg,stim_fb/negf.jpg,stim_02/f.jpg,stim_02/e.jpg,1,3,f,3,39,219,47,j,0,0.549871266114,02,03,60.0202290259,PLT_learning_02,B,2014_Feb_18_1621,P03,
stim_fb/ques.jpg,stim_fb/negf.jpg,stim_fb/posf.jpg,stim_02/f.jpg,stim_02/e.jpg,1,3,f,3,40,220,40,j,0,0.516507606305,02,03,60.0202290259,PLT_learning_02,B,2014_Feb_18_1621,P03,
stim_fb/ques.jpg,stim_fb/posf.jpg,stim_fb/negf.jpg,stim_02/d.jpg,stim_02/c.jpg,1,2,f,3,41,221,29,f,1,0.0500266989466,02,03,60.0202290259,PLT_learning_02,B,2014_Feb_18_1621,P03,
stim_fb/ques.jpg,stim_fb/posf.jpg,stim_fb/negf.jpg,stim_02/f.jpg,stim_02/e.jpg,1,3,f,3,42,222,46,j,0,0.599862377492,02,03,60.0202290259,PLT_learning_02,B,2014_Feb_18_1621,P03,
stim_fb/ques.jpg,stim_fb/negf.jpg,stim_fb/posf.jpg,stim_02/d.jpg,stim_02/c.jpg,1,2,f,3,43,223,26,j,0,1.21630045977,02,03,60.0202290259,PLT_learning_02,B,2014_Feb_18_1621,P03,
stim_fb/ques.jpg,stim_fb/negf.jpg,stim_fb/posf.jpg,stim_02/e.jpg,stim_02/f.jpg,2,3,j,3,44,224,54,j,1,0.616504460476,02,03,60.0202290259,PLT_learning_02,B,2014_Feb_18_1621,P03,
stim_fb/ques.jpg,stim_fb/negf.jpg,stim_fb/posf.jpg,stim_02/c.jpg,stim_02/d.jpg,2,2,j,3,45,225,33,j,1,0.516553311053,02,03,60.0202290259,PLT_learning_02,B,2014_Feb_18_1621,P03,
stim_fb/ques.jpg,stim_fb/posf.jpg,stim_fb/negf.jpg,stim_02/b.jpg,stim_02/a.jpg,1,1,f,3,46,226,8,j,0,0.516545172799,02,03,60.0202290259,PLT_learning_02,B,2014_Feb_18_1621,P03,
stim_fb/ques.jpg,stim_fb/negf.jpg,stim_fb/posf.jpg,stim_02/c.jpg,stim_02/d.jpg,2,2,j,3,47,227,36,j,1,0.599882936659,02,03,60.0202290259,PLT_learning_02,B,2014_Feb_18_1621,P03,
stim_fb/ques.jpg,stim_fb/negf.jpg,stim_fb/posf.jpg,stim_02/f.jpg,stim_02/e.jpg,1,3,f,3,48,228,43,j,0,0.483218147164,02,03,60.0202290259,PLT_learning_02,B,2014_Feb_18_1621,P03,
stim_fb/ques.jpg,stim_fb/negf.jpg,stim_fb/posf.jpg,stim_02/b.jpg,stim_02/a.jpg,1,1,f,3,49,229,2,j,0,0.466497445517,02,03,60.0202290259,PLT_learning_02,B,2014_Feb_18_1621,P03,
stim_fb/ques.jpg,stim_fb/negf.jpg,stim_fb/posf.jpg,stim_02/d.jpg,stim_02/c.jpg,1,2,f,3,50,230,21,f,1,0.566498176337,02,03,60.0202290259,PLT_learning_02,B,2014_Feb_18_1621,P03,
stim_fb/ques.jpg,stim_fb/negf.jpg,stim_fb/posf.jpg,stim_02/b.jpg,stim_02/a.jpg,1,1,f,3,51,231,4,j,0,0.383252982861,02,03,60.0202290259,PLT_learning_02,B,2014_Feb_18_1621,P03,
stim_fb/ques.jpg,stim_fb/negf.jpg,stim_fb/posf.jpg,stim_02/a.jpg,stim_02/b.jpg,2,1,j,3,52,232,17,f,0,0.64882879366,02,03,60.0202290259,PLT_learning_02,B,2014_Feb_18_1621,P03,
stim_fb/ques.jpg,stim_fb/posf.jpg,stim_fb/negf.jpg,stim_02/e.jpg,stim_02/f.jpg,2,3,j,3,53,233,56,j,1,0.633138766104,02,03,60.0202290259,PLT_learning_02,B,2014_Feb_18_1621,P03,
stim_fb/ques.jpg,stim_fb/negf.jpg,stim_fb/posf.jpg,stim_02/b.jpg,stim_02/a.jpg,1,1,f,3,54,234,6,j,0,0.599819947895,02,03,60.0202290259,PLT_learning_02,B,2014_Feb_18_1621,P03,
stim_fb/ques.jpg,stim_fb/negf.jpg,stim_fb/posf.jpg,stim_02/a.jpg,stim_02/b.jpg,2,1,j,3,55,235,10,f,0,0.449908742383,02,03,60.0202290259,PLT_learning_02,B,2014_Feb_18_1621,P03,
stim_fb/ques.jpg,stim_fb/negf.jpg,stim_fb/posf.jpg,stim_02/c.jpg,stim_02/d.jpg,2,2,j,3,56,236,35,f,0,0.249989739965,02,03,60.0202290259,PLT_learning_02,B,2014_Feb_18_1621,P03,
stim_fb/ques.jpg,stim_fb/negf.jpg,stim_fb/posf.jpg,stim_02/a.jpg,stim_02/b.jpg,2,1,j,3,57,237,14,j,1,0.616504830396,02,03,60.0202290259,PLT_learning_02,B,2014_Feb_18_1621,P03,
stim_fb/ques.jpg,stim_fb/posf.jpg,stim_fb/negf.jpg,stim_02/e.jpg,stim_02/f.jpg,2,3,j,3,58,238,57,j,1,0.399915594937,02,03,60.0202290259,PLT_learning_02,B,2014_Feb_18_1621,P03,
stim_fb/ques.jpg,stim_fb/negf.jpg,stim_fb/posf.jpg,stim_02/f.jpg,stim_02/e.jpg,1,3,f,3,59,239,44,j,0,0.416553088499,02,03,60.0202290259,PLT_learning_02,B,2014_Feb_18_1621,P03,
stim_fb/ques.jpg,stim_fb/negf.jpg,stim_fb/posf.jpg,stim_02/b.jpg,stim_02/a.jpg,1,1,f,4,0,240,4,j,0,1.03304666188,02,03,60.0202290259,PLT_learning_02,B,2014_Feb_18_1621,P03,
stim_fb/ques.jpg,stim_fb/negf.jpg,stim_fb/posf.jpg,stim_02/d.jpg,stim_02/c.jpg,1,2,f,4,1,241,23,j,0,0.999719284368,02,03,60.0202290259,PLT_learning_02,B,2014_Feb_18_1621,P03,
stim_fb/ques.jpg,stim_fb/posf.jpg,stim_fb/negf.jpg,stim_02/b.jpg,stim_02/a.jpg,1,1,f,4,2,242,8,j,0,1.04972346327,02,03,60.0202290259,PLT_learning_02,B,2014_Feb_18_1621,P03,
stim_fb/ques.jpg,stim_fb/negf.jpg,stim_fb/posf.jpg,stim_02/b.jpg,stim_02/a.jpg,1,1,f,4,3,243,1,j,0,0.499853478344,02,03,60.0202290259,PLT_learning_02,B,2014_Feb_18_1621,P03,
stim_fb/ques.jpg,stim_fb/negf.jpg,stim_fb/posf.jpg,stim_02/b.jpg,stim_02/a.jpg,1,1,f,4,4,244,5,f,1,0.349944838216,02,03,60.0202290259,PLT_learning_02,B,2014_Feb_18_1621,P03,
stim_fb/ques.jpg,stim_fb/posf.jpg,stim_fb/negf.jpg,stim_02/f.jpg,stim_02/e.jpg,1,3,f,4,5,245,46,f,1,0.233315359601,02,03,60.0202290259,PLT_learning_02,B,2014_Feb_18_1621,P03,
stim_fb/ques.jpg,stim_fb/negf.jpg,stim_fb/posf.jpg,stim_02/e.jpg,stim_02/f.jpg,2,3,j,4,6,246,54,j,1,0.949753426841,02,03,60.0202290259,PLT_learning_02,B,2014_Feb_18_1621,P03,
stim_fb/ques.jpg,stim_fb/posf.jpg,stim_fb/negf.jpg,stim_02/e.jpg,stim_02/f.jpg,2,3,j,4,7,247,59,j,1,1.04972389935,02,03,60.0202290259,PLT_learning_02,B,2014_Feb_18_1621,P03,
stim_fb/ques.jpg,stim_fb/negf.jpg,stim_fb/posf.jpg,stim_02/f.jpg,stim_02/e.jpg,1,3,f,4,8,248,42,j,0,0.683140271351,02,03,60.0202290259,PLT_learning_02,B,2014_Feb_18_1621,P03,
stim_fb/ques.jpg,stim_fb/negf.jpg,stim_fb/posf.jpg,stim_02/a.jpg,stim_02/b.jpg,2,1,j,4,9,249,14,f,0,0.366655434713,02,03,60.0202290259,PLT_learning_02,B,2014_Feb_18_1621,P03,
stim_fb/ques.jpg,stim_fb/negf.jpg,stim_fb/posf.jpg,stim_02/a.jpg,stim_02/b.jpg,2,1,j,4,10,250,10,j,1,0.249958798961,02,03,60.0202290259,PLT_learning_02,B,2014_Feb_18_1621,P03,
stim_fb/ques.jpg,stim_fb/negf.jpg,stim_fb/posf.jpg,stim_02/d.jpg,stim_02/c.jpg,1,2,f,4,11,251,22,f,1,0.249942735984,02,03,60.0202290259,PLT_learning_02,B,2014_Feb_18_1621,P03,
stim_fb/ques.jpg,stim_fb/posf.jpg,stim_fb/negf.jpg,stim_02/a.jpg,stim_02/b.jpg,2,1,j,4,12,252,18,f,0,0.14998985425,02,03,60.0202290259,PLT_learning_02,B,2014_Feb_18_1621,P03,
stim_fb/ques.jpg,stim_fb/posf.jpg,stim_fb/negf.jpg,stim_02/b.jpg,stim_02/a.jpg,1,1,f,4,13,253,9,j,0,0.249951571976,02,03,60.0202290259,PLT_learning_02,B,2014_Feb_18_1621,P03,
stim_fb/ques.jpg,stim_fb/posf.jpg,stim_fb/negf.jpg,stim_02/c.jpg,stim_02/d.jpg,2,2,j,4,14,254,37,j,1,0.0333651124238,02,03,60.0202290259,PLT_learning_02,B,2014_Feb_18_1621,P03,
stim_fb/ques.jpg,stim_fb/negf.jpg,stim_fb/posf.jpg,stim_02/b.jpg,stim_02/a.jpg,1,1,f,4,15,255,6,f,1,0.416541455547,02,03,60.0202290259,PLT_learning_02,B,2014_Feb_18_1621,P03,
stim_fb/ques.jpg,stim_fb/negf.jpg,stim_fb/posf.jpg,stim_02/a.jpg,stim_02/b.jpg,2,1,j,4,16,256,15,j,1,0.516518195659,02,03,60.0202290259,PLT_learning_02,B,2014_Feb_18_1621,P03,
stim_fb/ques.jpg,stim_fb/negf.jpg,stim_fb/posf.jpg,stim_02/c.jpg,stim_02/d.jpg,2,2,j,4,17,257,30,f,0,0.483171245437,02,03,60.0202290259,PLT_learning_02,B,2014_Feb_18_1621,P03,
stim_fb/ques.jpg,stim_fb/negf.jpg,stim_fb/posf.jpg,stim_02/d.jpg,stim_02/c.jpg,1,2,f,4,18,258,20,j,0,0.7165285384,02,03,60.0202290259,PLT_learning_02,B,2014_Feb_18_1621,P03,
stim_fb/ques.jpg,stim_fb/posf.jpg,stim_fb/negf.jpg,stim_02/c.jpg,stim_02/d.jpg,2,2,j,4,19,259,39,f,0,0.599846540077,02,03,60.0202290259,PLT_learning_02,B,2014_Feb_18_1621,P03,
stim_fb/ques.jpg,stim_fb/negf.jpg,stim_fb/posf.jpg,stim_02/f.jpg,stim_02/e.jpg,1,3,f,4,20,260,41,f,1,0.233315991173,02,03,60.0202290259,PLT_learning_02,B,2014_Feb_18_1621,P03,
stim_fb/ques.jpg,stim_fb/posf.jpg,stim_fb/negf.jpg,stim_02/f.jpg,stim_02/e.jpg,1,3,f,4,21,261,49,j,0,0.133341007432,02,03,60.0202290259,PLT_learning_02,B,2014_Feb_18_1621,P03,
stim_fb/ques.jpg,stim_fb/negf.jpg,stim_fb/posf.jpg,stim_02/c.jpg,stim_02/d.jpg,2,2,j,4,22,262,35,j,1,0.349922784329,02,03,60.0202290259,PLT_learning_02,B,2014_Feb_18_1621,P03,
stim_fb/ques.jpg,stim_fb/negf.jpg,stim_fb/posf.jpg,stim_02/b.jpg,stim_02/a.jpg,1,1,f,4,23,263,0,j,0,0.966494681638,02,03,60.0202290259,PLT_learning_02,B,2014_Feb_18_1621,P03,
stim_fb/ques.jpg,stim_fb/negf.jpg,stim_fb/posf.jpg,stim_02/f.jpg,stim_02/e.jpg,1,3,f,4,24,264,44,j,0,1.03305119115,02,03,60.0202290259,PLT_learning_02,B,2014_Feb_18_1621,P03,
stim_fb/ques.jpg,stim_fb/negf.jpg,stim_fb/posf.jpg,stim_02/d.jpg,stim_02/c.jpg,1,2,f,4,25,265,25,f,1,0.316579939324,02,03,60.0202290259,PLT_learning_02,B,2014_Feb_18_1621,P03,
stim_fb/ques.jpg,stim_fb/posf.jpg,stim_fb/negf.jpg,stim_02/a.jpg,stim_02/b.jpg,2,1,j,4,26,266,19,f,0,0.233291392954,02,03,60.0202290259,PLT_learning_02,B,2014_Feb_18_1621,P03,
stim_fb/ques.jpg,stim_fb/negf.jpg,stim_fb/posf.jpg,stim_02/c.jpg,stim_02/d.jpg,2,2,j,4,27,267,32,f,0,0.399926370756,02,03,60.0202290259,PLT_learning_02,B,2014_Feb_18_1621,P03,
stim_fb/ques.jpg,stim_fb/negf.jpg,stim_fb/posf.jpg,stim_02/c.jpg,stim_02/d.jpg,2,2,j,4,28,268,33,j,1,0.199965561291,02,03,60.0202290259,PLT_learning_02,B,2014_Feb_18_1621,P03,
stim_fb/ques.jpg,stim_fb/posf.jpg,stim_fb/negf.jpg,stim_02/d.jpg,stim_02/c.jpg,1,2,f,4,29,269,29,j,0,0.433245029568,02,03,60.0202290259,PLT_learning_02,B,2014_Feb_18_1621,P03,
stim_fb/ques.jpg,stim_fb/negf.jpg,stim_fb/posf.jpg,stim_02/b.jpg,stim_02/a.jpg,1,1,f,4,30,270,2,j,0,0.599833683079,02,03,60.0202290259,PLT_learning_02,B,2014_Feb_18_1621,P03,
stim_fb/ques.jpg,stim_fb/negf.jpg,stim_fb/posf.jpg,stim_02/c.jpg,stim_02/d.jpg,2,2,j,4,31,271,34,j,1,0.649837967241,02,03,60.0202290259,PLT_learning_02,B,2014_Feb_18_1621,P03,
stim_fb/ques.jpg,stim_fb/negf.jpg,stim_fb/posf.jpg,stim_02/e.jpg,stim_02/f.jpg,2,3,j,4,32,272,52,j,1,0.499878359267,02,03,60.0202290259,PLT_learning_02,B,2014_Feb_18_1621,P03,
stim_fb/ques.jpg,stim_fb/negf.jpg,stim_fb/posf.jpg,stim_02/a.jpg,stim_02/b.jpg,2,1,j,4,33,273,17,j,1,0.499882747186,02,03,60.0202290259,PLT_learning_02,B,2014_Feb_18_1621,P03,
stim_fb/ques.jpg,stim_fb/negf.jpg,stim_fb/posf.jpg,stim_02/a.jpg,stim_02/b.jpg,2,1,j,4,34,274,12,j,1,0.716493182407,02,03,60.0202290259,PLT_learning_02,B,2014_Feb_18_1621,P03,
stim_fb/ques.jpg,stim_fb/posf.jpg,stim_fb/negf.jpg,stim_02/c.jpg,stim_02/d.jpg,2,2,j,4,35,275,38,j,1,0.616515176144,02,03,60.0202290259,PLT_learning_02,B,2014_Feb_18_1621,P03,
stim_fb/ques.jpg,stim_fb/negf.jpg,stim_fb/posf.jpg,stim_02/e.jpg,stim_02/f.jpg,2,3,j,4,36,276,50,j,1,0.466559868873,02,03,60.0202290259,PLT_learning_02,B,2014_Feb_18_1621,P03,
stim_fb/ques.jpg,stim_fb/posf.jpg,stim_fb/negf.jpg,stim_02/e.jpg,stim_02/f.jpg,2,3,j,4,37,277,56,j,1,0.533213544208,02,03,60.0202290259,PLT_learning_02,B,2014_Feb_18_1621,P03,
stim_fb/ques.jpg,stim_fb/posf.jpg,stim_fb/negf.jpg,stim_02/e.jpg,stim_02/f.jpg,2,3,j,4,38,278,58,None,0,,02,03,60.0202290259,PLT_learning_02,B,2014_Feb_18_1621,P03,
stim_fb/ques.jpg,stim_fb/negf.jpg,stim_fb/posf.jpg,stim_02/f.jpg,stim_02/e.jpg,1,3,f,4,39,279,45,j,0,0.483189073807,02,03,60.0202290259,PLT_learning_02,B,2014_Feb_18_1621,P03,
stim_fb/ques.jpg,stim_fb/posf.jpg,stim_fb/negf.jpg,stim_02/d.jpg,stim_02/c.jpg,1,2,f,4,40,280,28,j,0,0.516545151746,02,03,60.0202290259,PLT_learning_02,B,2014_Feb_18_1621,P03,
stim_fb/ques.jpg,stim_fb/negf.jpg,stim_fb/posf.jpg,stim_02/e.jpg,stim_02/f.jpg,2,3,j,4,41,281,51,j,1,0.499755566667,02,03,60.0202290259,PLT_learning_02,B,2014_Feb_18_1621,P03,
stim_fb/ques.jpg,stim_fb/negf.jpg,stim_fb/posf.jpg,stim_02/a.jpg,stim_02/b.jpg,2,1,j,4,42,282,13,j,1,0.416563046281,02,03,60.0202290259,PLT_learning_02,B,2014_Feb_18_1621,P03,
stim_fb/ques.jpg,stim_fb/posf.jpg,stim_fb/negf.jpg,stim_02/f.jpg,stim_02/e.jpg,1,3,f,4,43,283,47,j,0,0.44989618914,02,03,60.0202290259,PLT_learning_02,B,2014_Feb_18_1621,P03,
stim_fb/ques.jpg,stim_fb/posf.jpg,stim_fb/negf.jpg,stim_02/f.jpg,stim_02/e.jpg,1,3,f,4,44,284,48,j,0,0.266631904152,02,03,60.0202290259,PLT_learning_02,B,2014_Feb_18_1621,P03,
stim_fb/ques.jpg,stim_fb/negf.jpg,stim_fb/posf.jpg,stim_02/e.jpg,stim_02/f.jpg,2,3,j,4,45,285,55,j,1,0.050023790709,02,03,60.0202290259,PLT_learning_02,B,2014_Feb_18_1621,P03,
stim_fb/ques.jpg,stim_fb/negf.jpg,stim_fb/posf.jpg,stim_02/f.jpg,stim_02/e.jpg,1,3,f,4,46,286,40,f,1,0.199907149919,02,03,60.0202290259,PLT_learning_02,B,2014_Feb_18_1621,P03,
stim_fb/ques.jpg,stim_fb/negf.jpg,stim_fb/posf.jpg,stim_02/d.jpg,stim_02/c.jpg,1,2,f,4,47,287,21,f,1,0.349934351117,02,03,60.0202290259,PLT_learning_02,B,2014_Feb_18_1621,P03,
stim_fb/ques.jpg,stim_fb/negf.jpg,stim_fb/posf.jpg,stim_02/b.jpg,stim_02/a.jpg,1,1,f,4,48,288,3,j,0,0.233027705703,02,03,60.0202290259,PLT_learning_02,B,2014_Feb_18_1621,P03,
stim_fb/ques.jpg,stim_fb/negf.jpg,stim_fb/posf.jpg,stim_02/e.jpg,stim_02/f.jpg,2,3,j,4,49,289,53,f,0,0.0333702702601,02,03,60.0202290259,PLT_learning_02,B,2014_Feb_18_1621,P03,
stim_fb/ques.jpg,stim_fb/negf.jpg,stim_fb/posf.jpg,stim_02/f.jpg,stim_02/e.jpg,1,3,f,4,50,290,43,j,0,0.733186458799,02,03,60.0202290259,PLT_learning_02,B,2014_Feb_18_1621,P03,
stim_fb/ques.jpg,stim_fb/negf.jpg,stim_fb/posf.jpg,stim_02/c.jpg,stim_02/d.jpg,2,2,j,4,51,291,31,f,0,0.333228374117,02,03,60.0202290259,PLT_learning_02,B,2014_Feb_18_1621,P03,
stim_fb/ques.jpg,stim_fb/negf.jpg,stim_fb/posf.jpg,stim_02/a.jpg,stim_02/b.jpg,2,1,j,4,52,292,11,j,1,0.449898670316,02,03,60.0202290259,PLT_learning_02,B,2014_Feb_18_1621,P03,
stim_fb/ques.jpg,stim_fb/negf.jpg,stim_fb/posf.jpg,stim_02/b.jpg,stim_02/a.jpg,1,1,f,4,53,293,7,f,1,0.266609684852,02,03,60.0202290259,PLT_learning_02,B,2014_Feb_18_1621,P03,
stim_fb/ques.jpg,stim_fb/negf.jpg,stim_fb/posf.jpg,stim_02/c.jpg,stim_02/d.jpg,2,2,j,4,54,294,36,j,1,0.299951961444,02,03,60.0202290259,PLT_learning_02,B,2014_Feb_18_1621,P03,
stim_fb/ques.jpg,stim_fb/negf.jpg,stim_fb/posf.jpg,stim_02/d.jpg,stim_02/c.jpg,1,2,f,4,55,295,24,j,0,0.416523398609,02,03,60.0202290259,PLT_learning_02,B,2014_Feb_18_1621,P03,
stim_fb/ques.jpg,stim_fb/posf.jpg,stim_fb/negf.jpg,stim_02/d.jpg,stim_02/c.jpg,1,2,f,4,56,296,27,f,1,0.0833245098747,02,03,60.0202290259,PLT_learning_02,B,2014_Feb_18_1621,P03,
stim_fb/ques.jpg,stim_fb/negf.jpg,stim_fb/posf.jpg,stim_02/a.jpg,stim_02/b.jpg,2,1,j,4,57,297,16,j,1,0.33326033165,02,03,60.0202290259,PLT_learning_02,B,2014_Feb_18_1621,P03,
stim_fb/ques.jpg,stim_fb/negf.jpg,stim_fb/posf.jpg,stim_02/d.jpg,stim_02/c.jpg,1,2,f,4,58,298,26,j,0,0.183263466953,02,03,60.0202290259,PLT_learning_02,B,2014_Feb_18_1621,P03,
stim_fb/ques.jpg,stim_fb/posf.jpg,stim_fb/negf.jpg,stim_02/e.jpg,stim_02/f.jpg,2,3,j,4,59,299,57,j,1,0.366590358755,02,03,60.0202290259,PLT_learning_02,B,2014_Feb_18_1621,P03,
stim_fb/ques.jpg,stim_fb/posf.jpg,stim_fb/negf.jpg,stim_02/e.jpg,stim_02/f.jpg,2,3,j,5,0,300,57,j,1,0.483205657079,02,03,60.0202290259,PLT_learning_02,B,2014_Feb_18_1621,P03,
stim_fb/ques.jpg,stim_fb/posf.jpg,stim_fb/negf.jpg,stim_02/d.jpg,stim_02/c.jpg,1,2,f,5,1,301,28,f,1,0.249954741864,02,03,60.0202290259,PLT_learning_02,B,2014_Feb_18_1621,P03,
stim_fb/ques.jpg,stim_fb/negf.jpg,stim_fb/posf.jpg,stim_02/c.jpg,stim_02/d.jpg,2,2,j,5,2,302,34,j,1,0.366581880655,02,03,60.0202290259,PLT_learning_02,B,2014_Feb_18_1621,P03,
stim_fb/ques.jpg,stim_fb/negf.jpg,stim_fb/posf.jpg,stim_02/d.jpg,stim_02/c.jpg,1,2,f,5,3,303,26,j,0,0.383228465845,02,03,60.0202290259,PLT_learning_02,B,2014_Feb_18_1621,P03,
stim_fb/ques.jpg,stim_fb/posf.jpg,stim_fb/negf.jpg,stim_02/f.jpg,stim_02/e.jpg,1,3,f,5,4,304,48,f,1,0.216642049902,02,03,60.0202290259,PLT_learning_02,B,2014_Feb_18_1621,P03,
stim_fb/ques.jpg,stim_fb/negf.jpg,stim_fb/posf.jpg,stim_02/b.jpg,stim_02/a.jpg,1,1,f,5,5,305,7,j,0,0.716399216551,02,03,60.0202290259,PLT_learning_02,B,2014_Feb_18_1621,P03,
stim_fb/ques.jpg,stim_fb/negf.jpg,stim_fb/posf.jpg,stim_02/d.jpg,stim_02/c.jpg,1,2,f,5,6,306,23,j,0,0.733154762916,02,03,60.0202290259,PLT_learning_02,B,2014_Feb_18_1621,P03,
stim_fb/ques.jpg,stim_fb/negf.jpg,stim_fb/posf.jpg,stim_02/e.jpg,stim_02/f.jpg,2,3,j,5,7,307,50,j,1,1.29962308696,02,03,60.0202290259,PLT_learning_02,B,2014_Feb_18_1621,P03,
stim_fb/ques.jpg,stim_fb/posf.jpg,stim_fb/negf.jpg,stim_02/a.jpg,stim_02/b.jpg,2,1,j,5,8,308,19,j,1,1.48288370282,02,03,60.0202290259,PLT_learning_02,B,2014_Feb_18_1621,P03,
stim_fb/ques.jpg,stim_fb/negf.jpg,stim_fb/posf.jpg,stim_02/f.jpg,stim_02/e.jpg,1,3,f,5,9,309,43,f,1,0.733144366041,02,03,60.0202290259,PLT_learning_02,B,2014_Feb_18_1621,P03,
stim_fb/ques.jpg,stim_fb/posf.jpg,stim_fb/negf.jpg,stim_02/c.jpg,stim_02/d.jpg,2,2,j,5,10,310,39,j,1,1.08302853727,02,03,60.0202290259,PLT_learning_02,B,2014_Feb_18_1621,P03,
stim_fb/ques.jpg,stim_fb/negf.jpg,stim_fb/posf.jpg,stim_02/a.jpg,stim_02/b.jpg,2,1,j,5,11,311,17,f,0,0.483209106665,02,03,60.0202290259,PLT_learning_02,B,2014_Feb_18_1621,P03,
stim_fb/ques.jpg,stim_fb/posf.jpg,stim_fb/negf.jpg,stim_02/f.jpg,stim_02/e.jpg,1,3,f,5,12,312,49,j,0,0.733142230726,02,03,60.0202290259,PLT_learning_02,B,2014_Feb_18_1621,P03,
stim_fb/ques.jpg,stim_fb/negf.jpg,stim_fb/posf.jpg,stim_02/f.jpg,stim_02/e.jpg,1,3,f,5,13,313,40,j,0,1.06635976887,02,03,60.0202290259,PLT_learning_02,B,2014_Feb_18_1621,P03,
stim_fb/ques.jpg,stim_fb/negf.jpg,stim_fb/posf.jpg,stim_02/a.jpg,stim_02/b.jpg,2,1,j,5,14,314,14,f,0,0.699803148085,02,03,60.0202290259,PLT_learning_02,B,2014_Feb_18_1621,P03,
stim_fb/ques.jpg,stim_fb/negf.jpg,stim_fb/posf.jpg,stim_02/c.jpg,stim_02/d.jpg,2,2,j,5,15,315,33,j,1,0.249976549137,02,03,60.0202290259,PLT_learning_02,B,2014_Feb_18_1621,P03,
stim_fb/ques.jpg,stim_fb/negf.jpg,stim_fb/posf.jpg,stim_02/f.jpg,stim_02/e.jpg,1,3,f,5,16,316,44,j,0,0.566506176247,02,03,60.0202290259,PLT_learning_02,B,2014_Feb_18_1621,P03,
stim_fb/ques.jpg,stim_fb/negf.jpg,stim_fb/posf.jpg,stim_02/a.jpg,stim_02/b.jpg,2,1,j,5,17,317,10,j,1,0.733161917723,02,03,60.0202290259,PLT_learning_02,B,2014_Feb_18_1621,P03,
stim_fb/ques.jpg,stim_fb/negf.jpg,stim_fb/posf.jpg,stim_02/d.jpg,stim_02/c.jpg,1,2,f,5,18,318,22,j,0,0.516567073304,02,03,60.0202290259,PLT_learning_02,B,2014_Feb_18_1621,P03,
stim_fb/ques.jpg,stim_fb/negf.jpg,stim_fb/posf.jpg,stim_02/e.jpg,stim_02/f.jpg,2,3,j,5,19,319,52,f,0,0.433242136367,02,03,60.0202290259,PLT_learning_02,B,2014_Feb_18_1621,P03,
stim_fb/ques.jpg,stim_fb/negf.jpg,stim_fb/posf.jpg,stim_02/e.jpg,stim_02/f.jpg,2,3,j,5,20,320,51,j,1,0.483320230223,02,03,60.0202290259,PLT_learning_02,B,2014_Feb_18_1621,P03,
stim_fb/ques.jpg,stim_fb/posf.jpg,stim_fb/negf.jpg,stim_02/b.jpg,stim_02/a.jpg,1,1,f,5,21,321,8,j,0,0.166643843867,02,03,60.0202290259,PLT_learning_02,B,2014_Feb_18_1621,P03,
stim_fb/ques.jpg,stim_fb/negf.jpg,stim_fb/posf.jpg,stim_02/a.jpg,stim_02/b.jpg,2,1,j,5,22,322,15,j,1,1.46618590617,02,03,60.0202290259,PLT_learning_02,B,2014_Feb_18_1621,P03,
stim_fb/ques.jpg,stim_fb/negf.jpg,stim_fb/posf.jpg,stim_02/c.jpg,stim_02/d.jpg,2,2,j,5,23,323,36,j,1,0.416575007049,02,03,60.0202290259,PLT_learning_02,B,2014_Feb_18_1621,P03,
stim_fb/ques.jpg,stim_fb/posf.jpg,stim_fb/negf.jpg,stim_02/f.jpg,stim_02/e.jpg,1,3,f,5,24,324,47,j,0,0.383257220407,02,03,60.0202290259,PLT_learning_02,B,2014_Feb_18_1621,P03,
stim_fb/ques.jpg,stim_fb/posf.jpg,stim_fb/negf.jpg,stim_02/d.jpg,stim_02/c.jpg,1,2,f,5,25,325,27,f,1,0.23329882445,02,03,60.0202290259,PLT_learning_02,B,2014_Feb_18_1621,P03,
stim_fb/ques.jpg,stim_fb/negf.jpg,stim_fb/posf.jpg,stim_02/b.jpg,stim_02/a.jpg,1,1,f,5,26,326,0,j,0,0.466535739823,02,03,60.0202290259,PLT_learning_02,B,2014_Feb_18_1621,P03,
stim_fb/ques.jpg,stim_fb/negf.jpg,stim_fb/posf.jpg,stim_02/a.jpg,stim_02/b.jpg,2,1,j,5,27,327,16,f,0,0.683107183001,02,03,60.0202290259,PLT_learning_02,B,2014_Feb_18_1621,P03,
stim_fb/ques.jpg,stim_fb/posf.jpg,stim_fb/negf.jpg,stim_02/b.jpg,stim_02/a.jpg,1,1,f,5,28,328,9,j,0,1.28293895933,02,03,60.0202290259,PLT_learning_02,B,2014_Feb_18_1621,P03,
stim_fb/ques.jpg,stim_fb/negf.jpg,stim_fb/posf.jpg,stim_02/b.jpg,stim_02/a.jpg,1,1,f,5,29,329,2,j,0,1.46620356613,02,03,60.0202290259,PLT_learning_02,B,2014_Feb_18_1621,P03,
stim_fb/ques.jpg,stim_fb/negf.jpg,stim_fb/posf.jpg,stim_02/a.jpg,stim_02/b.jpg,2,1,j,5,30,330,13,f,0,0.8830897035,02,03,60.0202290259,PLT_learning_02,B,2014_Feb_18_1621,P03,
stim_fb/ques.jpg,stim_fb/posf.jpg,stim_fb/negf.jpg,stim_02/c.jpg,stim_02/d.jpg,2,2,j,5,31,331,38,j,1,0.949678083331,02,03,60.0202290259,PLT_learning_02,B,2014_Feb_18_1621,P03,
stim_fb/ques.jpg,stim_fb/negf.jpg,stim_fb/posf.jpg,stim_02/f.jpg,stim_02/e.jpg,1,3,f,5,32,332,42,f,1,0.483301634944,02,03,60.0202290259,PLT_learning_02,B,2014_Feb_18_1621,P03,
stim_fb/ques.jpg,stim_fb/posf.jpg,stim_fb/negf.jpg,stim_02/e.jpg,stim_02/f.jpg,2,3,j,5,33,333,59,f,0,0.483182767111,02,03,60.0202290259,PLT_learning_02,B,2014_Feb_18_1621,P03,
stim_fb/ques.jpg,stim_fb/posf.jpg,stim_fb/negf.jpg,stim_02/a.jpg,stim_02/b.jpg,2,1,j,5,34,334,18,j,1,0.38328054646,02,03,60.0202290259,PLT_learning_02,B,2014_Feb_18_1621,P03,
stim_fb/ques.jpg,stim_fb/negf.jpg,stim_fb/posf.jpg,stim_02/c.jpg,stim_02/d.jpg,2,2,j,5,35,335,35,f,0,0.0333200572923,02,03,60.0202290259,PLT_learning_02,B,2014_Feb_18_1621,P03,
stim_fb/ques.jpg,stim_fb/negf.jpg,stim_fb/posf.jpg,stim_02/b.jpg,stim_02/a.jpg,1,1,f,5,36,336,4,j,0,0.566569201099,02,03,60.0202290259,PLT_learning_02,B,2014_Feb_18_1621,P03,
stim_fb/ques.jpg,stim_fb/negf.jpg,stim_fb/posf.jpg,stim_02/e.jpg,stim_02/f.jpg,2,3,j,5,37,337,53,f,0,0.783116265606,02,03,60.0202290259,PLT_learning_02,B,2014_Feb_18_1621,P03,
stim_fb/ques.jpg,stim_fb/negf.jpg,stim_fb/posf.jpg,stim_02/c.jpg,stim_02/d.jpg,2,2,j,5,38,338,32,j,1,0.53322070503,02,03,60.0202290259,PLT_learning_02,B,2014_Feb_18_1621,P03,
stim_fb/ques.jpg,stim_fb/negf.jpg,stim_fb/posf.jpg,stim_02/b.jpg,stim_02/a.jpg,1,1,f,5,39,339,1,j,0,0.649841443894,02,03,60.0202290259,PLT_learning_02,B,2014_Feb_18_1621,P03,
stim_fb/ques.jpg,stim_fb/posf.jpg,stim_fb/negf.jpg,stim_02/c.jpg,stim_02/d.jpg,2,2,j,5,40,340,37,j,1,0.749809862295,02,03,60.0202290259,PLT_learning_02,B,2014_Feb_18_1621,P03,
stim_fb/ques.jpg,stim_fb/negf.jpg,stim_fb/posf.jpg,stim_02/c.jpg,stim_02/d.jpg,2,2,j,5,41,341,30,f,0,0.433251249045,02,03,60.0202290259,PLT_learning_02,B,2014_Feb_18_1621,P03,
stim_fb/ques.jpg,stim_fb/negf.jpg,stim_fb/posf.jpg,stim_02/f.jpg,stim_02/e.jpg,1,3,f,5,42,342,41,j,0,0.649833849994,02,03,60.0202290259,PLT_learning_02,B,2014_Feb_18_1621,P03,
stim_fb/ques.jpg,stim_fb/posf.jpg,stim_fb/negf.jpg,stim_02/e.jpg,stim_02/f.jpg,2,3,j,5,43,343,56,j,1,1.14963380413,02,03,60.0202290259,PLT_learning_02,B,2014_Feb_18_1621,P03,
stim_fb/ques.jpg,stim_fb/negf.jpg,stim_fb/posf.jpg,stim_02/a.jpg,stim_02/b.jpg,2,1,j,5,44,344,11,f,0,0.81646577219,02,03,60.0202290259,PLT_learning_02,B,2014_Feb_18_1621,P03,
stim_fb/ques.jpg,stim_fb/negf.jpg,stim_fb/posf.jpg,stim_02/d.jpg,stim_02/c.jpg,1,2,f,5,45,345,24,j,0,0.583176033353,02,03,60.0202290259,PLT_learning_02,B,2014_Feb_18_1621,P03,
stim_fb/ques.jpg,stim_fb/posf.jpg,stim_fb/negf.jpg,stim_02/e.jpg,stim_02/f.jpg,2,3,j,5,46,346,58,j,1,1.33193911648,02,03,60.0202290259,PLT_learning_02,B,2014_Feb_18_1621,P03,
stim_fb/ques.jpg,stim_fb/negf.jpg,stim_fb/posf.jpg,stim_02/b.jpg,stim_02/a.jpg,1,1,f,5,47,347,3,f,1,0.416516039293,02,03,60.0202290259,PLT_learning_02,B,2014_Feb_18_1621,P03,
stim_fb/ques.jpg,stim_fb/negf.jpg,stim_fb/posf.jpg,stim_02/d.jpg,stim_02/c.jpg,1,2,f,5,48,348,20,j,0,0.799769085311,02,03,60.0202290259,PLT_learning_02,B,2014_Feb_18_1621,P03,
stim_fb/ques.jpg,stim_fb/negf.jpg,stim_fb/posf.jpg,stim_02/b.jpg,stim_02/a.jpg,1,1,f,5,49,349,5,j,0,0.316618844148,02,03,60.0202290259,PLT_learning_02,B,2014_Feb_18_1621,P03,
stim_fb/ques.jpg,stim_fb/negf.jpg,stim_fb/posf.jpg,stim_02/f.jpg,stim_02/e.jpg,1,3,f,5,50,350,45,f,1,0.433232232719,02,03,60.0202290259,PLT_learning_02,B,2014_Feb_18_1621,P03,
stim_fb/ques.jpg,stim_fb/negf.jpg,stim_fb/posf.jpg,stim_02/d.jpg,stim_02/c.jpg,1,2,f,5,51,351,25,f,1,0.299950544919,02,03,60.0202290259,PLT_learning_02,B,2014_Feb_18_1621,P03,
stim_fb/ques.jpg,stim_fb/negf.jpg,stim_fb/posf.jpg,stim_02/d.jpg,stim_02/c.jpg,1,2,f,5,52,352,21,j,0,0.516564655286,02,03,60.0202290259,PLT_learning_02,B,2014_Feb_18_1621,P03,
stim_fb/ques.jpg,stim_fb/negf.jpg,stim_fb/posf.jpg,stim_02/b.jpg,stim_02/a.jpg,1,1,f,5,53,353,6,f,1,0.699794672992,02,03,60.0202290259,PLT_learning_02,B,2014_Feb_18_1621,P03,
stim_fb/ques.jpg,stim_fb/negf.jpg,stim_fb/posf.jpg,stim_02/e.jpg,stim_02/f.jpg,2,3,j,5,54,354,55,j,1,1.13301494494,02,03,60.0202290259,PLT_learning_02,B,2014_Feb_18_1621,P03,
stim_fb/ques.jpg,stim_fb/negf.jpg,stim_fb/posf.jpg,stim_02/c.jpg,stim_02/d.jpg,2,2,j,5,55,355,31,j,1,1.49956477483,02,03,60.0202290259,PLT_learning_02,B,2014_Feb_18_1621,P03,
stim_fb/ques.jpg,stim_fb/posf.jpg,stim_fb/negf.jpg,stim_02/f.jpg,stim_02/e.jpg,1,3,f,5,56,356,46,f,1,0.816487916301,02,03,60.0202290259,PLT_learning_02,B,2014_Feb_18_1621,P03,
stim_fb/ques.jpg,stim_fb/negf.jpg,stim_fb/posf.jpg,stim_02/a.jpg,stim_02/b.jpg,2,1,j,5,57,357,12,j,1,0.699787464051,02,03,60.0202290259,PLT_learning_02,B,2014_Feb_18_1621,P03,
stim_fb/ques.jpg,stim_fb/posf.jpg,stim_fb/negf.jpg,stim_02/d.jpg,stim_02/c.jpg,1,2,f,5,58,358,29,j,0,0.349933274437,02,03,60.0202290259,PLT_learning_02,B,2014_Feb_18_1621,P03,
stim_fb/ques.jpg,stim_fb/negf.jpg,stim_fb/posf.jpg,stim_02/e.jpg,stim_02/f.jpg,2,3,j,5,59,359,54,f,0,0.666493286167,02,03,60.0202290259,PLT_learning_02,B,2014_Feb_18_1621,P03,
