Fb3,Fb2,Fb1,Symbol2,Symbol1,PosCond,Pair,Correct,trials.thisRepN,trials.thisTrialN,trials.thisN,trials.thisIndex,Response.keys,Response.corr,Response.rt,Version,Session Number,frameRate,expName,StimCondition,date,Participant,
stim_fb/ques.jpg,stim_fb/negf.jpg,stim_fb/posf.jpg,stim_03/b.jpg,stim_03/a.jpg,1,1,f,0,0,0,4,j,0,0.699815577326,03,02,60.0159971663,PLT_learning_3,B,2014_Feb_07_1542,P04,
stim_fb/ques.jpg,stim_fb/negf.jpg,stim_fb/posf.jpg,stim_03/a.jpg,stim_03/b.jpg,2,1,j,0,1,1,10,j,1,0.866494441395,03,02,60.0159971663,PLT_learning_3,B,2014_Feb_07_1542,P04,
stim_fb/ques.jpg,stim_fb/negf.jpg,stim_fb/posf.jpg,stim_03/b.jpg,stim_03/a.jpg,1,1,f,0,2,2,2,f,1,0.849750495109,03,02,60.0159971663,PLT_learning_3,B,2014_Feb_07_1542,P04,
stim_fb/ques.jpg,stim_fb/negf.jpg,stim_fb/posf.jpg,stim_03/a.jpg,stim_03/b.jpg,2,1,j,0,3,3,13,j,1,0.683168842339,03,02,60.0159971663,PLT_learning_3,B,2014_Feb_07_1542,P04,
stim_fb/ques.jpg,stim_fb/negf.jpg,stim_fb/posf.jpg,stim_03/c.jpg,stim_03/d.jpg,2,2,j,0,4,4,34,f,0,0.833182658777,03,02,60.0159971663,PLT_learning_3,B,2014_Feb_07_1542,P04,
stim_fb/ques.jpg,stim_fb/posf.jpg,stim_fb/negf.jpg,stim_03/f.jpg,stim_03/e.jpg,1,3,f,0,5,5,48,j,0,1.31624099969,03,02,60.0159971663,PLT_learning_3,B,2014_Feb_07_1542,P04,
stim_fb/ques.jpg,stim_fb/negf.jpg,stim_fb/posf.jpg,stim_03/c.jpg,stim_03/d.jpg,2,2,j,0,6,6,35,j,1,1.26626471681,03,02,60.0159971663,PLT_learning_3,B,2014_Feb_07_1542,P04,
stim_fb/ques.jpg,stim_fb/negf.jpg,stim_fb/posf.jpg,stim_03/e.jpg,stim_03/f.jpg,2,3,j,0,7,7,52,f,0,1.1829887655,03,02,60.0159971663,PLT_learning_3,B,2014_Feb_07_1542,P04,
stim_fb/ques.jpg,stim_fb/posf.jpg,stim_fb/negf.jpg,stim_03/c.jpg,stim_03/d.jpg,2,2,j,0,8,8,39,j,1,1.13300560146,03,02,60.0159971663,PLT_learning_3,B,2014_Feb_07_1542,P04,
stim_fb/ques.jpg,stim_fb/negf.jpg,stim_fb/posf.jpg,stim_03/b.jpg,stim_03/a.jpg,1,1,f,0,9,9,0,j,0,0.76646474237,03,02,60.0159971663,PLT_learning_3,B,2014_Feb_07_1542,P04,
stim_fb/ques.jpg,stim_fb/negf.jpg,stim_fb/posf.jpg,stim_03/f.jpg,stim_03/e.jpg,1,3,f,0,10,10,41,j,0,1.11636295667,03,02,60.0159971663,PLT_learning_3,B,2014_Feb_07_1542,P04,
stim_fb/ques.jpg,stim_fb/posf.jpg,stim_fb/negf.jpg,stim_03/e.jpg,stim_03/f.jpg,2,3,j,0,11,11,56,f,0,1.21629906241,03,02,60.0159971663,PLT_learning_3,B,2014_Feb_07_1542,P04,
stim_fb/ques.jpg,stim_fb/negf.jpg,stim_fb/posf.jpg,stim_03/f.jpg,stim_03/e.jpg,1,3,f,0,12,12,43,j,0,1.19966576793,03,02,60.0159971663,PLT_learning_3,B,2014_Feb_07_1542,P04,
stim_fb/ques.jpg,stim_fb/posf.jpg,stim_fb/negf.jpg,stim_03/f.jpg,stim_03/e.jpg,1,3,f,0,13,13,46,f,1,0.833067561898,03,02,60.0159971663,PLT_learning_3,B,2014_Feb_07_1542,P04,
stim_fb/ques.jpg,stim_fb/negf.jpg,stim_fb/posf.jpg,stim_03/b.jpg,stim_03/a.jpg,1,1,f,0,14,14,1,j,0,0.866436904986,03,02,60.0159971663,PLT_learning_3,B,2014_Feb_07_1542,P04,
stim_fb/ques.jpg,stim_fb/negf.jpg,stim_fb/posf.jpg,stim_03/d.jpg,stim_03/c.jpg,1,2,f,0,15,15,23,f,1,1.16634849663,03,02,60.0159971663,PLT_learning_3,B,2014_Feb_07_1542,P04,
stim_fb/ques.jpg,stim_fb/posf.jpg,stim_fb/negf.jpg,stim_03/c.jpg,stim_03/d.jpg,2,2,j,0,16,16,38,j,1,0.74980296088,03,02,60.0159971663,PLT_learning_3,B,2014_Feb_07_1542,P04,
stim_fb/ques.jpg,stim_fb/posf.jpg,stim_fb/negf.jpg,stim_03/d.jpg,stim_03/c.jpg,1,2,f,0,17,17,29,f,1,0.983053628168,03,02,60.0159971663,PLT_learning_3,B,2014_Feb_07_1542,P04,
stim_fb/ques.jpg,stim_fb/negf.jpg,stim_fb/posf.jpg,stim_03/a.jpg,stim_03/b.jpg,2,1,j,0,18,18,11,j,1,1.13304118315,03,02,60.0159971663,PLT_learning_3,B,2014_Feb_07_1542,P04,
stim_fb/ques.jpg,stim_fb/negf.jpg,stim_fb/posf.jpg,stim_03/f.jpg,stim_03/e.jpg,1,3,f,0,19,19,42,f,1,1.11636478523,03,02,60.0159971663,PLT_learning_3,B,2014_Feb_07_1542,P04,
stim_fb/ques.jpg,stim_fb/negf.jpg,stim_fb/posf.jpg,stim_03/d.jpg,stim_03/c.jpg,1,2,f,0,20,20,21,f,1,0.999720555485,03,02,60.0159971663,PLT_learning_3,B,2014_Feb_07_1542,P04,
stim_fb/ques.jpg,stim_fb/negf.jpg,stim_fb/posf.jpg,stim_03/a.jpg,stim_03/b.jpg,2,1,j,0,21,21,16,j,1,1.06637006639,03,02,60.0159971663,PLT_learning_3,B,2014_Feb_07_1542,P04,
stim_fb/ques.jpg,stim_fb/posf.jpg,stim_fb/negf.jpg,stim_03/f.jpg,stim_03/e.jpg,1,3,f,0,22,22,47,f,1,1.1996751844,03,02,60.0159971663,PLT_learning_3,B,2014_Feb_07_1542,P04,
stim_fb/ques.jpg,stim_fb/negf.jpg,stim_fb/posf.jpg,stim_03/e.jpg,stim_03/f.jpg,2,3,j,0,23,23,53,j,1,1.31630180525,03,02,60.0159971663,PLT_learning_3,B,2014_Feb_07_1542,P04,
stim_fb/ques.jpg,stim_fb/posf.jpg,stim_fb/negf.jpg,stim_03/b.jpg,stim_03/a.jpg,1,1,f,0,24,24,8,f,1,1.31629105646,03,02,60.0159971663,PLT_learning_3,B,2014_Feb_07_1542,P04,
stim_fb/ques.jpg,stim_fb/negf.jpg,stim_fb/posf.jpg,stim_03/f.jpg,stim_03/e.jpg,1,3,f,0,25,25,44,j,0,1.36625869279,03,02,60.0159971663,PLT_learning_3,B,2014_Feb_07_1542,P04,
stim_fb/ques.jpg,stim_fb/posf.jpg,stim_fb/negf.jpg,stim_03/b.jpg,stim_03/a.jpg,1,1,f,0,26,26,9,f,1,1.34960926008,03,02,60.0159971663,PLT_learning_3,B,2014_Feb_07_1542,P04,
stim_fb/ques.jpg,stim_fb/negf.jpg,stim_fb/posf.jpg,stim_03/c.jpg,stim_03/d.jpg,2,2,j,0,27,27,30,j,1,0.966437262878,03,02,60.0159971663,PLT_learning_3,B,2014_Feb_07_1542,P04,
stim_fb/ques.jpg,stim_fb/negf.jpg,stim_fb/posf.jpg,stim_03/c.jpg,stim_03/d.jpg,2,2,j,0,28,28,32,j,1,1.06636589199,03,02,60.0159971663,PLT_learning_3,B,2014_Feb_07_1542,P04,
stim_fb/ques.jpg,stim_fb/posf.jpg,stim_fb/negf.jpg,stim_03/e.jpg,stim_03/f.jpg,2,3,j,0,29,29,59,None,0,,03,02,60.0159971663,PLT_learning_3,B,2014_Feb_07_1542,P04,
stim_fb/ques.jpg,stim_fb/negf.jpg,stim_fb/posf.jpg,stim_03/b.jpg,stim_03/a.jpg,1,1,f,0,30,30,3,f,1,1.08303180578,03,02,60.0159971663,PLT_learning_3,B,2014_Feb_07_1542,P04,
stim_fb/ques.jpg,stim_fb/posf.jpg,stim_fb/negf.jpg,stim_03/d.jpg,stim_03/c.jpg,1,2,f,0,31,31,27,f,1,1.09966389426,03,02,60.0159971663,PLT_learning_3,B,2014_Feb_07_1542,P04,
stim_fb/ques.jpg,stim_fb/posf.jpg,stim_fb/negf.jpg,stim_03/e.jpg,stim_03/f.jpg,2,3,j,0,32,32,58,j,1,1.36627902347,03,02,60.0159971663,PLT_learning_3,B,2014_Feb_07_1542,P04,
stim_fb/ques.jpg,stim_fb/negf.jpg,stim_fb/posf.jpg,stim_03/d.jpg,stim_03/c.jpg,1,2,f,0,33,33,26,j,0,1.54950606386,03,02,60.0159971663,PLT_learning_3,B,2014_Feb_07_1542,P04,
stim_fb/ques.jpg,stim_fb/negf.jpg,stim_fb/posf.jpg,stim_03/d.jpg,stim_03/c.jpg,1,2,f,0,34,34,25,f,1,0.833113781099,03,02,60.0159971663,PLT_learning_3,B,2014_Feb_07_1542,P04,
stim_fb/ques.jpg,stim_fb/negf.jpg,stim_fb/posf.jpg,stim_03/d.jpg,stim_03/c.jpg,1,2,f,0,35,35,24,f,1,0.899761135631,03,02,60.0159971663,PLT_learning_3,B,2014_Feb_07_1542,P04,
stim_fb/ques.jpg,stim_fb/negf.jpg,stim_fb/posf.jpg,stim_03/e.jpg,stim_03/f.jpg,2,3,j,0,36,36,55,j,1,1.06635512515,03,02,60.0159971663,PLT_learning_3,B,2014_Feb_07_1542,P04,
stim_fb/ques.jpg,stim_fb/negf.jpg,stim_fb/posf.jpg,stim_03/f.jpg,stim_03/e.jpg,1,3,f,0,37,37,45,f,1,1.54956601529,03,02,60.0159971663,PLT_learning_3,B,2014_Feb_07_1542,P04,
stim_fb/ques.jpg,stim_fb/negf.jpg,stim_fb/posf.jpg,stim_03/a.jpg,stim_03/b.jpg,2,1,j,0,38,38,15,j,1,1.11634459891,03,02,60.0159971663,PLT_learning_3,B,2014_Feb_07_1542,P04,
stim_fb/ques.jpg,stim_fb/negf.jpg,stim_fb/posf.jpg,stim_03/c.jpg,stim_03/d.jpg,2,2,j,0,39,39,36,f,0,1.29966949722,03,02,60.0159971663,PLT_learning_3,B,2014_Feb_07_1542,P04,
stim_fb/ques.jpg,stim_fb/posf.jpg,stim_fb/negf.jpg,stim_03/e.jpg,stim_03/f.jpg,2,3,j,0,40,40,57,j,1,1.19966831227,03,02,60.0159971663,PLT_learning_3,B,2014_Feb_07_1542,P04,
stim_fb/ques.jpg,stim_fb/negf.jpg,stim_fb/posf.jpg,stim_03/b.jpg,stim_03/a.jpg,1,1,f,0,41,41,7,j,0,1.01637403929,03,02,60.0159971663,PLT_learning_3,B,2014_Feb_07_1542,P04,
stim_fb/ques.jpg,stim_fb/negf.jpg,stim_fb/posf.jpg,stim_03/a.jpg,stim_03/b.jpg,2,1,j,0,42,42,17,f,0,0.966395840633,03,02,60.0159971663,PLT_learning_3,B,2014_Feb_07_1542,P04,
stim_fb/ques.jpg,stim_fb/negf.jpg,stim_fb/posf.jpg,stim_03/a.jpg,stim_03/b.jpg,2,1,j,0,43,43,14,j,1,0.933065492741,03,02,60.0159971663,PLT_learning_3,B,2014_Feb_07_1542,P04,
stim_fb/ques.jpg,stim_fb/negf.jpg,stim_fb/posf.jpg,stim_03/b.jpg,stim_03/a.jpg,1,1,f,0,44,44,5,f,1,1.0830413245,03,02,60.0159971663,PLT_learning_3,B,2014_Feb_07_1542,P04,
stim_fb/ques.jpg,stim_fb/negf.jpg,stim_fb/posf.jpg,stim_03/b.jpg,stim_03/a.jpg,1,1,f,0,45,45,6,f,1,0.899745610935,03,02,60.0159971663,PLT_learning_3,B,2014_Feb_07_1542,P04,
stim_fb/ques.jpg,stim_fb/negf.jpg,stim_fb/posf.jpg,stim_03/e.jpg,stim_03/f.jpg,2,3,j,0,46,46,54,j,1,1.04970385787,03,02,60.0159971663,PLT_learning_3,B,2014_Feb_07_1542,P04,
stim_fb/ques.jpg,stim_fb/posf.jpg,stim_fb/negf.jpg,stim_03/d.jpg,stim_03/c.jpg,1,2,f,0,47,47,28,f,1,0.916430514056,03,02,60.0159971663,PLT_learning_3,B,2014_Feb_07_1542,P04,
stim_fb/ques.jpg,stim_fb/posf.jpg,stim_fb/negf.jpg,stim_03/a.jpg,stim_03/b.jpg,2,1,j,0,48,48,18,j,1,0.999731989985,03,02,60.0159971663,PLT_learning_3,B,2014_Feb_07_1542,P04,
stim_fb/ques.jpg,stim_fb/posf.jpg,stim_fb/negf.jpg,stim_03/f.jpg,stim_03/e.jpg,1,3,f,0,49,49,49,f,1,1.14965762663,03,02,60.0159971663,PLT_learning_3,B,2014_Feb_07_1542,P04,
stim_fb/ques.jpg,stim_fb/posf.jpg,stim_fb/negf.jpg,stim_03/c.jpg,stim_03/d.jpg,2,2,j,0,50,50,37,j,1,1.43289061586,03,02,60.0159971663,PLT_learning_3,B,2014_Feb_07_1542,P04,
stim_fb/ques.jpg,stim_fb/negf.jpg,stim_fb/posf.jpg,stim_03/e.jpg,stim_03/f.jpg,2,3,j,0,51,51,50,j,1,1.36623058774,03,02,60.0159971663,PLT_learning_3,B,2014_Feb_07_1542,P04,
stim_fb/ques.jpg,stim_fb/posf.jpg,stim_fb/negf.jpg,stim_03/a.jpg,stim_03/b.jpg,2,1,j,0,52,52,19,j,1,1.0497238126,03,02,60.0159971663,PLT_learning_3,B,2014_Feb_07_1542,P04,
stim_fb/ques.jpg,stim_fb/negf.jpg,stim_fb/posf.jpg,stim_03/e.jpg,stim_03/f.jpg,2,3,j,0,53,53,51,j,1,1.23297900918,03,02,60.0159971663,PLT_learning_3,B,2014_Feb_07_1542,P04,
stim_fb/ques.jpg,stim_fb/negf.jpg,stim_fb/posf.jpg,stim_03/c.jpg,stim_03/d.jpg,2,2,j,0,54,54,31,j,1,0.949615305148,03,02,60.0159971663,PLT_learning_3,B,2014_Feb_07_1542,P04,
stim_fb/ques.jpg,stim_fb/negf.jpg,stim_fb/posf.jpg,stim_03/d.jpg,stim_03/c.jpg,1,2,f,0,55,55,22,f,1,0.916438535048,03,02,60.0159971663,PLT_learning_3,B,2014_Feb_07_1542,P04,
stim_fb/ques.jpg,stim_fb/negf.jpg,stim_fb/posf.jpg,stim_03/c.jpg,stim_03/d.jpg,2,2,j,0,56,56,33,j,1,0.683141865099,03,02,60.0159971663,PLT_learning_3,B,2014_Feb_07_1542,P04,
stim_fb/ques.jpg,stim_fb/negf.jpg,stim_fb/posf.jpg,stim_03/a.jpg,stim_03/b.jpg,2,1,j,0,57,57,12,j,1,0.816461169465,03,02,60.0159971663,PLT_learning_3,B,2014_Feb_07_1542,P04,
stim_fb/ques.jpg,stim_fb/negf.jpg,stim_fb/posf.jpg,stim_03/f.jpg,stim_03/e.jpg,1,3,f,0,58,58,40,j,0,1.0330037308,03,02,60.0159971663,PLT_learning_3,B,2014_Feb_07_1542,P04,
stim_fb/ques.jpg,stim_fb/negf.jpg,stim_fb/posf.jpg,stim_03/d.jpg,stim_03/c.jpg,1,2,f,0,59,59,20,f,1,0.799790624131,03,02,60.0159971663,PLT_learning_3,B,2014_Feb_07_1542,P04,
stim_fb/ques.jpg,stim_fb/posf.jpg,stim_fb/negf.jpg,stim_03/a.jpg,stim_03/b.jpg,2,1,j,1,0,60,19,j,1,0.833110382629,03,02,60.0159971663,PLT_learning_3,B,2014_Feb_07_1542,P04,
stim_fb/ques.jpg,stim_fb/posf.jpg,stim_fb/negf.jpg,stim_03/f.jpg,stim_03/e.jpg,1,3,f,1,1,61,48,j,0,1.033065998,03,02,60.0159971663,PLT_learning_3,B,2014_Feb_07_1542,P04,
stim_fb/ques.jpg,stim_fb/negf.jpg,stim_fb/posf.jpg,stim_03/d.jpg,stim_03/c.jpg,1,2,f,1,2,62,20,f,1,0.849772506974,03,02,60.0159971663,PLT_learning_3,B,2014_Feb_07_1542,P04,
stim_fb/ques.jpg,stim_fb/posf.jpg,stim_fb/negf.jpg,stim_03/f.jpg,stim_03/e.jpg,1,3,f,1,3,63,47,j,0,0.983064151397,03,02,60.0159971663,PLT_learning_3,B,2014_Feb_07_1542,P04,
stim_fb/ques.jpg,stim_fb/negf.jpg,stim_fb/posf.jpg,stim_03/f.jpg,stim_03/e.jpg,1,3,f,1,4,64,40,None,0,,03,02,60.0159971663,PLT_learning_3,B,2014_Feb_07_1542,P04,
stim_fb/ques.jpg,stim_fb/negf.jpg,stim_fb/posf.jpg,stim_03/d.jpg,stim_03/c.jpg,1,2,f,1,5,65,21,f,1,0.766457614604,03,02,60.0159971663,PLT_learning_3,B,2014_Feb_07_1542,P04,
stim_fb/ques.jpg,stim_fb/negf.jpg,stim_fb/posf.jpg,stim_03/d.jpg,stim_03/c.jpg,1,2,f,1,6,66,23,f,1,0.733133970421,03,02,60.0159971663,PLT_learning_3,B,2014_Feb_07_1542,P04,
stim_fb/ques.jpg,stim_fb/negf.jpg,stim_fb/posf.jpg,stim_03/c.jpg,stim_03/d.jpg,2,2,j,1,7,67,31,j,1,0.599907829264,03,02,60.0159971663,PLT_learning_3,B,2014_Feb_07_1542,P04,
stim_fb/ques.jpg,stim_fb/negf.jpg,stim_fb/posf.jpg,stim_03/e.jpg,stim_03/f.jpg,2,3,j,1,8,68,54,f,0,1.04969463087,03,02,60.0159971663,PLT_learning_3,B,2014_Feb_07_1542,P04,
stim_fb/ques.jpg,stim_fb/negf.jpg,stim_fb/posf.jpg,stim_03/b.jpg,stim_03/a.jpg,1,1,f,1,9,69,5,f,1,0.983041935023,03,02,60.0159971663,PLT_learning_3,B,2014_Feb_07_1542,P04,
stim_fb/ques.jpg,stim_fb/negf.jpg,stim_fb/posf.jpg,stim_03/d.jpg,stim_03/c.jpg,1,2,f,1,10,70,26,f,1,0.916391630138,03,02,60.0159971663,PLT_learning_3,B,2014_Feb_07_1542,P04,
stim_fb/ques.jpg,stim_fb/negf.jpg,stim_fb/posf.jpg,stim_03/b.jpg,stim_03/a.jpg,1,1,f,1,11,71,6,f,1,0.816433004263,03,02,60.0159971663,PLT_learning_3,B,2014_Feb_07_1542,P04,
stim_fb/ques.jpg,stim_fb/negf.jpg,stim_fb/posf.jpg,stim_03/b.jpg,stim_03/a.jpg,1,1,f,1,12,72,7,f,1,0.849772687423,03,02,60.0159971663,PLT_learning_3,B,2014_Feb_07_1542,P04,
stim_fb/ques.jpg,stim_fb/posf.jpg,stim_fb/negf.jpg,stim_03/c.jpg,stim_03/d.jpg,2,2,j,1,13,73,39,j,1,0.866430489996,03,02,60.0159971663,PLT_learning_3,B,2014_Feb_07_1542,P04,
stim_fb/ques.jpg,stim_fb/negf.jpg,stim_fb/posf.jpg,stim_03/f.jpg,stim_03/e.jpg,1,3,f,1,14,74,43,j,0,1.38292890129,03,02,60.0159971663,PLT_learning_3,B,2014_Feb_07_1542,P04,
stim_fb/ques.jpg,stim_fb/posf.jpg,stim_fb/negf.jpg,stim_03/e.jpg,stim_03/f.jpg,2,3,j,1,15,75,59,j,1,1.0664033293,03,02,60.0159971663,PLT_learning_3,B,2014_Feb_07_1542,P04,
stim_fb/ques.jpg,stim_fb/posf.jpg,stim_fb/negf.jpg,stim_03/d.jpg,stim_03/c.jpg,1,2,f,1,16,76,29,f,1,0.733155864993,03,02,60.0159971663,PLT_learning_3,B,2014_Feb_07_1542,P04,
stim_fb/ques.jpg,stim_fb/negf.jpg,stim_fb/posf.jpg,stim_03/a.jpg,stim_03/b.jpg,2,1,j,1,17,77,10,f,0,0.649817911143,03,02,60.0159971663,PLT_learning_3,B,2014_Feb_07_1542,P04,
stim_fb/ques.jpg,stim_fb/negf.jpg,stim_fb/posf.jpg,stim_03/a.jpg,stim_03/b.jpg,2,1,j,1,18,78,15,j,1,0.883089727145,03,02,60.0159971663,PLT_learning_3,B,2014_Feb_07_1542,P04,
stim_fb/ques.jpg,stim_fb/negf.jpg,stim_fb/posf.jpg,stim_03/c.jpg,stim_03/d.jpg,2,2,j,1,19,79,34,j,1,0.683176935512,03,02,60.0159971663,PLT_learning_3,B,2014_Feb_07_1542,P04,
stim_fb/ques.jpg,stim_fb/posf.jpg,stim_fb/negf.jpg,stim_03/f.jpg,stim_03/e.jpg,1,3,f,1,20,80,49,j,0,1.04974315381,03,02,60.0159971663,PLT_learning_3,B,2014_Feb_07_1542,P04,
stim_fb/ques.jpg,stim_fb/posf.jpg,stim_fb/negf.jpg,stim_03/e.jpg,stim_03/f.jpg,2,3,j,1,21,81,58,j,1,1.13301684047,03,02,60.0159971663,PLT_learning_3,B,2014_Feb_07_1542,P04,
stim_fb/ques.jpg,stim_fb/negf.jpg,stim_fb/posf.jpg,stim_03/f.jpg,stim_03/e.jpg,1,3,f,1,22,82,42,j,0,0.749811243524,03,02,60.0159971663,PLT_learning_3,B,2014_Feb_07_1542,P04,
stim_fb/ques.jpg,stim_fb/negf.jpg,stim_fb/posf.jpg,stim_03/b.jpg,stim_03/a.jpg,1,1,f,1,23,83,2,f,1,0.866447608665,03,02,60.0159971663,PLT_learning_3,B,2014_Feb_07_1542,P04,
stim_fb/ques.jpg,stim_fb/negf.jpg,stim_fb/posf.jpg,stim_03/f.jpg,stim_03/e.jpg,1,3,f,1,24,84,45,j,0,1.01641779235,03,02,60.0159971663,PLT_learning_3,B,2014_Feb_07_1542,P04,
stim_fb/ques.jpg,stim_fb/negf.jpg,stim_fb/posf.jpg,stim_03/f.jpg,stim_03/e.jpg,1,3,f,1,25,85,41,j,0,1.59957583477,03,02,60.0159971663,PLT_learning_3,B,2014_Feb_07_1542,P04,
stim_fb/ques.jpg,stim_fb/posf.jpg,stim_fb/negf.jpg,stim_03/e.jpg,stim_03/f.jpg,2,3,j,1,26,86,57,f,0,1.18302628401,03,02,60.0159971663,PLT_learning_3,B,2014_Feb_07_1542,P04,
stim_fb/ques.jpg,stim_fb/negf.jpg,stim_fb/posf.jpg,stim_03/c.jpg,stim_03/d.jpg,2,2,j,1,27,87,35,j,1,0.766444053804,03,02,60.0159971663,PLT_learning_3,B,2014_Feb_07_1542,P04,
stim_fb/ques.jpg,stim_fb/posf.jpg,stim_fb/negf.jpg,stim_03/d.jpg,stim_03/c.jpg,1,2,f,1,28,88,28,f,1,0.716489788799,03,02,60.0159971663,PLT_learning_3,B,2014_Feb_07_1542,P04,
stim_fb/ques.jpg,stim_fb/negf.jpg,stim_fb/posf.jpg,stim_03/e.jpg,stim_03/f.jpg,2,3,j,1,29,89,52,f,0,1.11641382546,03,02,60.0159971663,PLT_learning_3,B,2014_Feb_07_1542,P04,
stim_fb/ques.jpg,stim_fb/negf.jpg,stim_fb/posf.jpg,stim_03/e.jpg,stim_03/f.jpg,2,3,j,1,30,90,53,f,0,0.66649700679,03,02,60.0159971663,PLT_learning_3,B,2014_Feb_07_1542,P04,
stim_fb/ques.jpg,stim_fb/posf.jpg,stim_fb/negf.jpg,stim_03/b.jpg,stim_03/a.jpg,1,1,f,1,31,91,9,f,1,0.916442880881,03,02,60.0159971663,PLT_learning_3,B,2014_Feb_07_1542,P04,
stim_fb/ques.jpg,stim_fb/negf.jpg,stim_fb/posf.jpg,stim_03/c.jpg,stim_03/d.jpg,2,2,j,1,32,92,30,j,1,0.599833086969,03,02,60.0159971663,PLT_learning_3,B,2014_Feb_07_1542,P04,
stim_fb/ques.jpg,stim_fb/negf.jpg,stim_fb/posf.jpg,stim_03/a.jpg,stim_03/b.jpg,2,1,j,1,33,93,17,j,1,1.08307122804,03,02,60.0159971663,PLT_learning_3,B,2014_Feb_07_1542,P04,
stim_fb/ques.jpg,stim_fb/negf.jpg,stim_fb/posf.jpg,stim_03/c.jpg,stim_03/d.jpg,2,2,j,1,34,94,36,j,1,0.799769120533,03,02,60.0159971663,PLT_learning_3,B,2014_Feb_07_1542,P04,
stim_fb/ques.jpg,stim_fb/negf.jpg,stim_fb/posf.jpg,stim_03/e.jpg,stim_03/f.jpg,2,3,j,1,35,95,51,f,0,0.916408195427,03,02,60.0159971663,PLT_learning_3,B,2014_Feb_07_1542,P04,
stim_fb/ques.jpg,stim_fb/posf.jpg,stim_fb/negf.jpg,stim_03/e.jpg,stim_03/f.jpg,2,3,j,1,36,96,56,j,1,1.46624180871,03,02,60.0159971663,PLT_learning_3,B,2014_Feb_07_1542,P04,
stim_fb/ques.jpg,stim_fb/posf.jpg,stim_fb/negf.jpg,stim_03/a.jpg,stim_03/b.jpg,2,1,j,1,37,97,18,j,1,1.06636518222,03,02,60.0159971663,PLT_learning_3,B,2014_Feb_07_1542,P04,
stim_fb/ques.jpg,stim_fb/negf.jpg,stim_fb/posf.jpg,stim_03/d.jpg,stim_03/c.jpg,1,2,f,1,38,98,25,f,1,0.733164833347,03,02,60.0159971663,PLT_learning_3,B,2014_Feb_07_1542,P04,
stim_fb/ques.jpg,stim_fb/negf.jpg,stim_fb/posf.jpg,stim_03/a.jpg,stim_03/b.jpg,2,1,j,1,39,99,13,j,1,0.816460880745,03,02,60.0159971663,PLT_learning_3,B,2014_Feb_07_1542,P04,
stim_fb/ques.jpg,stim_fb/negf.jpg,stim_fb/posf.jpg,stim_03/b.jpg,stim_03/a.jpg,1,1,f,1,40,100,0,f,1,0.783156171758,03,02,60.0159971663,PLT_learning_3,B,2014_Feb_07_1542,P04,
stim_fb/ques.jpg,stim_fb/negf.jpg,stim_fb/posf.jpg,stim_03/b.jpg,stim_03/a.jpg,1,1,f,1,41,101,4,f,1,1.21633143209,03,02,60.0159971663,PLT_learning_3,B,2014_Feb_07_1542,P04,
stim_fb/ques.jpg,stim_fb/negf.jpg,stim_fb/posf.jpg,stim_03/a.jpg,stim_03/b.jpg,2,1,j,1,42,102,11,j,1,0.816435858377,03,02,60.0159971663,PLT_learning_3,B,2014_Feb_07_1542,P04,
stim_fb/ques.jpg,stim_fb/negf.jpg,stim_fb/posf.jpg,stim_03/a.jpg,stim_03/b.jpg,2,1,j,1,43,103,12,j,1,0.983072861106,03,02,60.0159971663,PLT_learning_3,B,2014_Feb_07_1542,P04,
stim_fb/ques.jpg,stim_fb/negf.jpg,stim_fb/posf.jpg,stim_03/d.jpg,stim_03/c.jpg,1,2,f,1,44,104,22,f,1,0.849787649717,03,02,60.0159971663,PLT_learning_3,B,2014_Feb_07_1542,P04,
stim_fb/ques.jpg,stim_fb/negf.jpg,stim_fb/posf.jpg,stim_03/e.jpg,stim_03/f.jpg,2,3,j,1,45,105,50,f,0,1.13305745671,03,02,60.0159971663,PLT_learning_3,B,2014_Feb_07_1542,P04,
stim_fb/ques.jpg,stim_fb/negf.jpg,stim_fb/posf.jpg,stim_03/c.jpg,stim_03/d.jpg,2,2,j,1,46,106,33,j,1,0.616503927038,03,02,60.0159971663,PLT_learning_3,B,2014_Feb_07_1542,P04,
stim_fb/ques.jpg,stim_fb/negf.jpg,stim_fb/posf.jpg,stim_03/e.jpg,stim_03/f.jpg,2,3,j,1,47,107,55,j,1,0.933052482312,03,02,60.0159971663,PLT_learning_3,B,2014_Feb_07_1542,P04,
stim_fb/ques.jpg,stim_fb/negf.jpg,stim_fb/posf.jpg,stim_03/d.jpg,stim_03/c.jpg,1,2,f,1,48,108,24,f,1,0.816459431132,03,02,60.0159971663,PLT_learning_3,B,2014_Feb_07_1542,P04,
stim_fb/ques.jpg,stim_fb/negf.jpg,stim_fb/posf.jpg,stim_03/a.jpg,stim_03/b.jpg,2,1,j,1,49,109,14,j,1,0.966426210329,03,02,60.0159971663,PLT_learning_3,B,2014_Feb_07_1542,P04,
stim_fb/ques.jpg,stim_fb/negf.jpg,stim_fb/posf.jpg,stim_03/b.jpg,stim_03/a.jpg,1,1,f,1,50,110,3,j,0,0.666499788723,03,02,60.0159971663,PLT_learning_3,B,2014_Feb_07_1542,P04,
stim_fb/ques.jpg,stim_fb/posf.jpg,stim_fb/negf.jpg,stim_03/f.jpg,stim_03/e.jpg,1,3,f,1,51,111,46,f,1,1.33294917181,03,02,60.0159971663,PLT_learning_3,B,2014_Feb_07_1542,P04,
stim_fb/ques.jpg,stim_fb/posf.jpg,stim_fb/negf.jpg,stim_03/b.jpg,stim_03/a.jpg,1,1,f,1,52,112,8,f,1,0.91641193976,03,02,60.0159971663,PLT_learning_3,B,2014_Feb_07_1542,P04,
stim_fb/ques.jpg,stim_fb/negf.jpg,stim_fb/posf.jpg,stim_03/c.jpg,stim_03/d.jpg,2,2,j,1,53,113,32,j,1,0.833123579522,03,02,60.0159971663,PLT_learning_3,B,2014_Feb_07_1542,P04,
stim_fb/ques.jpg,stim_fb/posf.jpg,stim_fb/negf.jpg,stim_03/c.jpg,stim_03/d.jpg,2,2,j,1,54,114,38,j,1,0.683163461929,03,02,60.0159971663,PLT_learning_3,B,2014_Feb_07_1542,P04,
stim_fb/ques.jpg,stim_fb/negf.jpg,stim_fb/posf.jpg,stim_03/f.jpg,stim_03/e.jpg,1,3,f,1,55,115,44,j,0,0.98306366719,03,02,60.0159971663,PLT_learning_3,B,2014_Feb_07_1542,P04,
stim_fb/ques.jpg,stim_fb/negf.jpg,stim_fb/posf.jpg,stim_03/b.jpg,stim_03/a.jpg,1,1,f,1,56,116,1,f,1,0.799778943016,03,02,60.0159971663,PLT_learning_3,B,2014_Feb_07_1542,P04,
stim_fb/ques.jpg,stim_fb/posf.jpg,stim_fb/negf.jpg,stim_03/d.jpg,stim_03/c.jpg,1,2,f,1,57,117,27,f,1,0.766469016022,03,02,60.0159971663,PLT_learning_3,B,2014_Feb_07_1542,P04,
stim_fb/ques.jpg,stim_fb/posf.jpg,stim_fb/negf.jpg,stim_03/c.jpg,stim_03/d.jpg,2,2,j,1,58,118,37,j,1,0.599816608898,03,02,60.0159971663,PLT_learning_3,B,2014_Feb_07_1542,P04,
stim_fb/ques.jpg,stim_fb/negf.jpg,stim_fb/posf.jpg,stim_03/a.jpg,stim_03/b.jpg,2,1,j,1,59,119,16,j,1,1.0997062368,03,02,60.0159971663,PLT_learning_3,B,2014_Feb_07_1542,P04,
stim_fb/ques.jpg,stim_fb/negf.jpg,stim_fb/posf.jpg,stim_03/f.jpg,stim_03/e.jpg,1,3,f,2,0,120,45,f,1,1.19965320562,03,02,60.0159971663,PLT_learning_3,B,2014_Feb_07_1542,P04,
stim_fb/ques.jpg,stim_fb/negf.jpg,stim_fb/posf.jpg,stim_03/d.jpg,stim_03/c.jpg,1,2,f,2,1,121,25,f,1,0.716510805182,03,02,60.0159971663,PLT_learning_3,B,2014_Feb_07_1542,P04,
stim_fb/ques.jpg,stim_fb/posf.jpg,stim_fb/negf.jpg,stim_03/a.jpg,stim_03/b.jpg,2,1,j,2,2,122,19,j,1,0.699793478245,03,02,60.0159971663,PLT_learning_3,B,2014_Feb_07_1542,P04,
stim_fb/ques.jpg,stim_fb/posf.jpg,stim_fb/negf.jpg,stim_03/e.jpg,stim_03/f.jpg,2,3,j,2,3,123,58,j,1,0.799785896347,03,02,60.0159971663,PLT_learning_3,B,2014_Feb_07_1542,P04,
stim_fb/ques.jpg,stim_fb/negf.jpg,stim_fb/posf.jpg,stim_03/d.jpg,stim_03/c.jpg,1,2,f,2,4,124,21,f,1,0.716461939384,03,02,60.0159971663,PLT_learning_3,B,2014_Feb_07_1542,P04,
stim_fb/ques.jpg,stim_fb/negf.jpg,stim_fb/posf.jpg,stim_03/f.jpg,stim_03/e.jpg,1,3,f,2,5,125,41,f,1,0.916428980233,03,02,60.0159971663,PLT_learning_3,B,2014_Feb_07_1542,P04,
stim_fb/ques.jpg,stim_fb/negf.jpg,stim_fb/posf.jpg,stim_03/c.jpg,stim_03/d.jpg,2,2,j,2,6,126,32,j,1,0.633129552409,03,02,60.0159971663,PLT_learning_3,B,2014_Feb_07_1542,P04,
stim_fb/ques.jpg,stim_fb/negf.jpg,stim_fb/posf.jpg,stim_03/a.jpg,stim_03/b.jpg,2,1,j,2,7,127,16,j,1,1.21632692987,03,02,60.0159971663,PLT_learning_3,B,2014_Feb_07_1542,P04,
stim_fb/ques.jpg,stim_fb/negf.jpg,stim_fb/posf.jpg,stim_03/a.jpg,stim_03/b.jpg,2,1,j,2,8,128,17,j,1,0.633189392561,03,02,60.0159971663,PLT_learning_3,B,2014_Feb_07_1542,P04,
stim_fb/ques.jpg,stim_fb/negf.jpg,stim_fb/posf.jpg,stim_03/c.jpg,stim_03/d.jpg,2,2,j,2,9,129,35,j,1,0.76646501906,03,02,60.0159971663,PLT_learning_3,B,2014_Feb_07_1542,P04,
stim_fb/ques.jpg,stim_fb/negf.jpg,stim_fb/posf.jpg,stim_03/e.jpg,stim_03/f.jpg,2,3,j,2,10,130,50,f,0,1.01652985466,03,02,60.0159971663,PLT_learning_3,B,2014_Feb_07_1542,P04,
stim_fb/ques.jpg,stim_fb/negf.jpg,stim_fb/posf.jpg,stim_03/d.jpg,stim_03/c.jpg,1,2,f,2,11,131,22,f,1,0.749829342637,03,02,60.0159971663,PLT_learning_3,B,2014_Feb_07_1542,P04,
stim_fb/ques.jpg,stim_fb/posf.jpg,stim_fb/negf.jpg,stim_03/e.jpg,stim_03/f.jpg,2,3,j,2,12,132,57,j,1,0.949688164751,03,02,60.0159971663,PLT_learning_3,B,2014_Feb_07_1542,P04,
stim_fb/ques.jpg,stim_fb/negf.jpg,stim_fb/posf.jpg,stim_03/b.jpg,stim_03/a.jpg,1,1,f,2,13,133,5,f,1,0.733151889083,03,02,60.0159971663,PLT_learning_3,B,2014_Feb_07_1542,P04,
stim_fb/ques.jpg,stim_fb/negf.jpg,stim_fb/posf.jpg,stim_03/a.jpg,stim_03/b.jpg,2,1,j,2,14,134,15,j,1,0.76646656792,03,02,60.0159971663,PLT_learning_3,B,2014_Feb_07_1542,P04,
stim_fb/ques.jpg,stim_fb/posf.jpg,stim_fb/negf.jpg,stim_03/e.jpg,stim_03/f.jpg,2,3,j,2,15,135,56,f,0,1.09968534673,03,02,60.0159971663,PLT_learning_3,B,2014_Feb_07_1542,P04,
stim_fb/ques.jpg,stim_fb/negf.jpg,stim_fb/posf.jpg,stim_03/a.jpg,stim_03/b.jpg,2,1,j,2,16,136,14,j,1,0.649819778799,03,02,60.0159971663,PLT_learning_3,B,2014_Feb_07_1542,P04,
stim_fb/ques.jpg,stim_fb/negf.jpg,stim_fb/posf.jpg,stim_03/a.jpg,stim_03/b.jpg,2,1,j,2,17,137,11,j,1,0.766490143683,03,02,60.0159971663,PLT_learning_3,B,2014_Feb_07_1542,P04,
stim_fb/ques.jpg,stim_fb/negf.jpg,stim_fb/posf.jpg,stim_03/b.jpg,stim_03/a.jpg,1,1,f,2,18,138,6,f,1,0.983045053797,03,02,60.0159971663,PLT_learning_3,B,2014_Feb_07_1542,P04,
stim_fb/ques.jpg,stim_fb/posf.jpg,stim_fb/negf.jpg,stim_03/d.jpg,stim_03/c.jpg,1,2,f,2,19,139,28,f,1,1.04969177375,03,02,60.0159971663,PLT_learning_3,B,2014_Feb_07_1542,P04,
stim_fb/ques.jpg,stim_fb/negf.jpg,stim_fb/posf.jpg,stim_03/f.jpg,stim_03/e.jpg,1,3,f,2,20,140,40,j,0,0.916395133871,03,02,60.0159971663,PLT_learning_3,B,2014_Feb_07_1542,P04,
stim_fb/ques.jpg,stim_fb/posf.jpg,stim_fb/negf.jpg,stim_03/f.jpg,stim_03/e.jpg,1,3,f,2,21,141,46,j,0,0.983070049097,03,02,60.0159971663,PLT_learning_3,B,2014_Feb_07_1542,P04,
stim_fb/ques.jpg,stim_fb/negf.jpg,stim_fb/posf.jpg,stim_03/e.jpg,stim_03/f.jpg,2,3,j,2,22,142,52,j,1,1.26629981729,03,02,60.0159971663,PLT_learning_3,B,2014_Feb_07_1542,P04,
stim_fb/ques.jpg,stim_fb/posf.jpg,stim_fb/negf.jpg,stim_03/c.jpg,stim_03/d.jpg,2,2,j,2,23,143,37,j,1,1.34963700423,03,02,60.0159971663,PLT_learning_3,B,2014_Feb_07_1542,P04,
stim_fb/ques.jpg,stim_fb/negf.jpg,stim_fb/posf.jpg,stim_03/e.jpg,stim_03/f.jpg,2,3,j,2,24,144,51,f,0,1.06636229201,03,02,60.0159971663,PLT_learning_3,B,2014_Feb_07_1542,P04,
stim_fb/ques.jpg,stim_fb/negf.jpg,stim_fb/posf.jpg,stim_03/b.jpg,stim_03/a.jpg,1,1,f,2,25,145,4,f,1,0.833116812656,03,02,60.0159971663,PLT_learning_3,B,2014_Feb_07_1542,P04,
stim_fb/ques.jpg,stim_fb/negf.jpg,stim_fb/posf.jpg,stim_03/d.jpg,stim_03/c.jpg,1,2,f,2,26,146,26,f,1,0.96640375937,03,02,60.0159971663,PLT_learning_3,B,2014_Feb_07_1542,P04,
stim_fb/ques.jpg,stim_fb/negf.jpg,stim_fb/posf.jpg,stim_03/d.jpg,stim_03/c.jpg,1,2,f,2,27,147,23,f,1,0.71645955444,03,02,60.0159971663,PLT_learning_3,B,2014_Feb_07_1542,P04,
stim_fb/ques.jpg,stim_fb/negf.jpg,stim_fb/posf.jpg,stim_03/d.jpg,stim_03/c.jpg,1,2,f,2,28,148,24,f,1,0.716482552763,03,02,60.0159971663,PLT_learning_3,B,2014_Feb_07_1542,P04,
stim_fb/ques.jpg,stim_fb/negf.jpg,stim_fb/posf.jpg,stim_03/a.jpg,stim_03/b.jpg,2,1,j,2,29,149,12,j,1,0.733132012541,03,02,60.0159971663,PLT_learning_3,B,2014_Feb_07_1542,P04,
stim_fb/ques.jpg,stim_fb/negf.jpg,stim_fb/posf.jpg,stim_03/c.jpg,stim_03/d.jpg,2,2,j,2,30,150,33,j,1,0.816468745348,03,02,60.0159971663,PLT_learning_3,B,2014_Feb_07_1542,P04,
stim_fb/ques.jpg,stim_fb/negf.jpg,stim_fb/posf.jpg,stim_03/f.jpg,stim_03/e.jpg,1,3,f,2,31,151,44,f,1,0.599718802114,03,02,60.0159971663,PLT_learning_3,B,2014_Feb_07_1542,P04,
stim_fb/ques.jpg,stim_fb/negf.jpg,stim_fb/posf.jpg,stim_03/e.jpg,stim_03/f.jpg,2,3,j,2,32,152,53,j,1,0.733142974865,03,02,60.0159971663,PLT_learning_3,B,2014_Feb_07_1542,P04,
stim_fb/ques.jpg,stim_fb/negf.jpg,stim_fb/posf.jpg,stim_03/f.jpg,stim_03/e.jpg,1,3,f,2,33,153,42,f,1,0.616502757122,03,02,60.0159971663,PLT_learning_3,B,2014_Feb_07_1542,P04,
stim_fb/ques.jpg,stim_fb/negf.jpg,stim_fb/posf.jpg,stim_03/c.jpg,stim_03/d.jpg,2,2,j,2,34,154,30,f,0,0.566308514974,03,02,60.0159971663,PLT_learning_3,B,2014_Feb_07_1542,P04,
stim_fb/ques.jpg,stim_fb/posf.jpg,stim_fb/negf.jpg,stim_03/d.jpg,stim_03/c.jpg,1,2,f,2,35,155,27,f,1,0.816457945429,03,02,60.0159971663,PLT_learning_3,B,2014_Feb_07_1542,P04,
stim_fb/ques.jpg,stim_fb/negf.jpg,stim_fb/posf.jpg,stim_03/a.jpg,stim_03/b.jpg,2,1,j,2,36,156,10,j,1,0.949692697047,03,02,60.0159971663,PLT_learning_3,B,2014_Feb_07_1542,P04,
stim_fb/ques.jpg,stim_fb/negf.jpg,stim_fb/posf.jpg,stim_03/b.jpg,stim_03/a.jpg,1,1,f,2,37,157,3,f,1,1.16639713085,03,02,60.0159971663,PLT_learning_3,B,2014_Feb_07_1542,P04,
stim_fb/ques.jpg,stim_fb/posf.jpg,stim_fb/negf.jpg,stim_03/f.jpg,stim_03/e.jpg,1,3,f,2,38,158,49,f,1,1.14972912685,03,02,60.0159971663,PLT_learning_3,B,2014_Feb_07_1542,P04,
stim_fb/ques.jpg,stim_fb/negf.jpg,stim_fb/posf.jpg,stim_03/e.jpg,stim_03/f.jpg,2,3,j,2,39,159,54,f,0,1.11635394922,03,02,60.0159971663,PLT_learning_3,B,2014_Feb_07_1542,P04,
stim_fb/ques.jpg,stim_fb/negf.jpg,stim_fb/posf.jpg,stim_03/a.jpg,stim_03/b.jpg,2,1,j,2,40,160,13,j,1,0.999768488959,03,02,60.0159971663,PLT_learning_3,B,2014_Feb_07_1542,P04,
stim_fb/ques.jpg,stim_fb/negf.jpg,stim_fb/posf.jpg,stim_03/b.jpg,stim_03/a.jpg,1,1,f,2,41,161,7,f,1,0.733127639642,03,02,60.0159971663,PLT_learning_3,B,2014_Feb_07_1542,P04,
stim_fb/ques.jpg,stim_fb/posf.jpg,stim_fb/negf.jpg,stim_03/c.jpg,stim_03/d.jpg,2,2,j,2,42,162,38,j,1,0.933040139548,03,02,60.0159971663,PLT_learning_3,B,2014_Feb_07_1542,P04,
stim_fb/ques.jpg,stim_fb/posf.jpg,stim_fb/negf.jpg,stim_03/b.jpg,stim_03/a.jpg,1,1,f,2,43,163,8,f,1,0.59985037105,03,02,60.0159971663,PLT_learning_3,B,2014_Feb_07_1542,P04,
stim_fb/ques.jpg,stim_fb/negf.jpg,stim_fb/posf.jpg,stim_03/c.jpg,stim_03/d.jpg,2,2,j,2,44,164,34,j,1,0.799802368403,03,02,60.0159971663,PLT_learning_3,B,2014_Feb_07_1542,P04,
stim_fb/ques.jpg,stim_fb/posf.jpg,stim_fb/negf.jpg,stim_03/d.jpg,stim_03/c.jpg,1,2,f,2,45,165,29,f,1,1.06633627116,03,02,60.0159971663,PLT_learning_3,B,2014_Feb_07_1542,P04,
stim_fb/ques.jpg,stim_fb/posf.jpg,stim_fb/negf.jpg,stim_03/a.jpg,stim_03/b.jpg,2,1,j,2,46,166,18,j,1,0.766442805693,03,02,60.0159971663,PLT_learning_3,B,2014_Feb_07_1542,P04,
stim_fb/ques.jpg,stim_fb/negf.jpg,stim_fb/posf.jpg,stim_03/b.jpg,stim_03/a.jpg,1,1,f,2,47,167,2,f,1,0.866437094458,03,02,60.0159971663,PLT_learning_3,B,2014_Feb_07_1542,P04,
stim_fb/ques.jpg,stim_fb/negf.jpg,stim_fb/posf.jpg,stim_03/d.jpg,stim_03/c.jpg,1,2,f,2,48,168,20,j,0,1.09967272727,03,02,60.0159971663,PLT_learning_3,B,2014_Feb_07_1542,P04,
stim_fb/ques.jpg,stim_fb/negf.jpg,stim_fb/posf.jpg,stim_03/b.jpg,stim_03/a.jpg,1,1,f,2,49,169,1,f,1,0.883093847414,03,02,60.0159971663,PLT_learning_3,B,2014_Feb_07_1542,P04,
stim_fb/ques.jpg,stim_fb/negf.jpg,stim_fb/posf.jpg,stim_03/b.jpg,stim_03/a.jpg,1,1,f,2,50,170,0,f,1,0.86643394561,03,02,60.0159971663,PLT_learning_3,B,2014_Feb_07_1542,P04,
stim_fb/ques.jpg,stim_fb/negf.jpg,stim_fb/posf.jpg,stim_03/c.jpg,stim_03/d.jpg,2,2,j,2,51,171,31,j,1,0.999717815655,03,02,60.0159971663,PLT_learning_3,B,2014_Feb_07_1542,P04,
stim_fb/ques.jpg,stim_fb/posf.jpg,stim_fb/negf.jpg,stim_03/b.jpg,stim_03/a.jpg,1,1,f,2,52,172,9,f,1,0.616544038015,03,02,60.0159971663,PLT_learning_3,B,2014_Feb_07_1542,P04,
stim_fb/ques.jpg,stim_fb/posf.jpg,stim_fb/negf.jpg,stim_03/c.jpg,stim_03/d.jpg,2,2,j,2,53,173,39,j,1,0.849784876805,03,02,60.0159971663,PLT_learning_3,B,2014_Feb_07_1542,P04,
stim_fb/ques.jpg,stim_fb/posf.jpg,stim_fb/negf.jpg,stim_03/e.jpg,stim_03/f.jpg,2,3,j,2,54,174,59,j,1,0.96640026466,03,02,60.0159971663,PLT_learning_3,B,2014_Feb_07_1542,P04,
stim_fb/ques.jpg,stim_fb/negf.jpg,stim_fb/posf.jpg,stim_03/e.jpg,stim_03/f.jpg,2,3,j,2,55,175,55,j,1,1.03303646138,03,02,60.0159971663,PLT_learning_3,B,2014_Feb_07_1542,P04,
stim_fb/ques.jpg,stim_fb/posf.jpg,stim_fb/negf.jpg,stim_03/f.jpg,stim_03/e.jpg,1,3,f,2,56,176,47,j,0,1.01638137758,03,02,60.0159971663,PLT_learning_3,B,2014_Feb_07_1542,P04,
stim_fb/ques.jpg,stim_fb/negf.jpg,stim_fb/posf.jpg,stim_03/c.jpg,stim_03/d.jpg,2,2,j,2,57,177,36,j,1,1.01640194284,03,02,60.0159971663,PLT_learning_3,B,2014_Feb_07_1542,P04,
stim_fb/ques.jpg,stim_fb/posf.jpg,stim_fb/negf.jpg,stim_03/f.jpg,stim_03/e.jpg,1,3,f,2,58,178,48,j,0,1.38292676296,03,02,60.0159971663,PLT_learning_3,B,2014_Feb_07_1542,P04,
stim_fb/ques.jpg,stim_fb/negf.jpg,stim_fb/posf.jpg,stim_03/f.jpg,stim_03/e.jpg,1,3,f,2,59,179,43,f,1,0.716484020421,03,02,60.0159971663,PLT_learning_3,B,2014_Feb_07_1542,P04,
stim_fb/ques.jpg,stim_fb/negf.jpg,stim_fb/posf.jpg,stim_03/d.jpg,stim_03/c.jpg,1,2,f,3,0,180,22,f,1,0.899749839475,03,02,60.0159971663,PLT_learning_3,B,2014_Feb_07_1542,P04,
stim_fb/ques.jpg,stim_fb/negf.jpg,stim_fb/posf.jpg,stim_03/e.jpg,stim_03/f.jpg,2,3,j,3,1,181,52,j,1,1.08303324637,03,02,60.0159971663,PLT_learning_3,B,2014_Feb_07_1542,P04,
stim_fb/ques.jpg,stim_fb/negf.jpg,stim_fb/posf.jpg,stim_03/b.jpg,stim_03/a.jpg,1,1,f,3,2,182,0,f,1,0.66647854377,03,02,60.0159971663,PLT_learning_3,B,2014_Feb_07_1542,P04,
stim_fb/ques.jpg,stim_fb/negf.jpg,stim_fb/posf.jpg,stim_03/b.jpg,stim_03/a.jpg,1,1,f,3,3,183,7,f,1,0.733141801942,03,02,60.0159971663,PLT_learning_3,B,2014_Feb_07_1542,P04,
stim_fb/ques.jpg,stim_fb/negf.jpg,stim_fb/posf.jpg,stim_03/b.jpg,stim_03/a.jpg,1,1,f,3,4,184,6,f,1,0.649825568229,03,02,60.0159971663,PLT_learning_3,B,2014_Feb_07_1542,P04,
stim_fb/ques.jpg,stim_fb/negf.jpg,stim_fb/posf.jpg,stim_03/f.jpg,stim_03/e.jpg,1,3,f,3,5,185,41,j,0,0.683136147849,03,02,60.0159971663,PLT_learning_3,B,2014_Feb_07_1542,P04,
stim_fb/ques.jpg,stim_fb/negf.jpg,stim_fb/posf.jpg,stim_03/e.jpg,stim_03/f.jpg,2,3,j,3,6,186,50,f,0,0.666489024894,03,02,60.0159971663,PLT_learning_3,B,2014_Feb_07_1542,P04,
stim_fb/ques.jpg,stim_fb/negf.jpg,stim_fb/posf.jpg,stim_03/a.jpg,stim_03/b.jpg,2,1,j,3,7,187,16,j,1,0.816441867355,03,02,60.0159971663,PLT_learning_3,B,2014_Feb_07_1542,P04,
stim_fb/ques.jpg,stim_fb/posf.jpg,stim_fb/negf.jpg,stim_03/b.jpg,stim_03/a.jpg,1,1,f,3,8,188,8,f,1,0.583225467478,03,02,60.0159971663,PLT_learning_3,B,2014_Feb_07_1542,P04,
stim_fb/ques.jpg,stim_fb/negf.jpg,stim_fb/posf.jpg,stim_03/e.jpg,stim_03/f.jpg,2,3,j,3,9,189,51,j,1,1.3162983737,03,02,60.0159971663,PLT_learning_3,B,2014_Feb_07_1542,P04,
stim_fb/ques.jpg,stim_fb/negf.jpg,stim_fb/posf.jpg,stim_03/d.jpg,stim_03/c.jpg,1,2,f,3,10,190,25,f,1,0.766456961978,03,02,60.0159971663,PLT_learning_3,B,2014_Feb_07_1542,P04,
stim_fb/ques.jpg,stim_fb/negf.jpg,stim_fb/posf.jpg,stim_03/d.jpg,stim_03/c.jpg,1,2,f,3,11,191,23,f,1,1.28295363493,03,02,60.0159971663,PLT_learning_3,B,2014_Feb_07_1542,P04,
stim_fb/ques.jpg,stim_fb/negf.jpg,stim_fb/posf.jpg,stim_03/c.jpg,stim_03/d.jpg,2,2,j,3,12,192,33,j,1,0.816453999594,03,02,60.0159971663,PLT_learning_3,B,2014_Feb_07_1542,P04,
stim_fb/ques.jpg,stim_fb/posf.jpg,stim_fb/negf.jpg,stim_03/e.jpg,stim_03/f.jpg,2,3,j,3,13,193,56,f,0,1.04973869069,03,02,60.0159971663,PLT_learning_3,B,2014_Feb_07_1542,P04,
stim_fb/ques.jpg,stim_fb/negf.jpg,stim_fb/posf.jpg,stim_03/c.jpg,stim_03/d.jpg,2,2,j,3,14,194,35,f,0,0.899748269562,03,02,60.0159971663,PLT_learning_3,B,2014_Feb_07_1542,P04,
stim_fb/ques.jpg,stim_fb/posf.jpg,stim_fb/negf.jpg,stim_03/d.jpg,stim_03/c.jpg,1,2,f,3,15,195,29,f,1,0.966380619695,03,02,60.0159971663,PLT_learning_3,B,2014_Feb_07_1542,P04,
stim_fb/ques.jpg,stim_fb/negf.jpg,stim_fb/posf.jpg,stim_03/c.jpg,stim_03/d.jpg,2,2,j,3,16,196,36,j,1,0.76649857971,03,02,60.0159971663,PLT_learning_3,B,2014_Feb_07_1542,P04,
stim_fb/ques.jpg,stim_fb/negf.jpg,stim_fb/posf.jpg,stim_03/b.jpg,stim_03/a.jpg,1,1,f,3,17,197,5,f,1,1.03304484628,03,02,60.0159971663,PLT_learning_3,B,2014_Feb_07_1542,P04,
stim_fb/ques.jpg,stim_fb/posf.jpg,stim_fb/negf.jpg,stim_03/e.jpg,stim_03/f.jpg,2,3,j,3,18,198,58,j,1,0.966367110022,03,02,60.0159971663,PLT_learning_3,B,2014_Feb_07_1542,P04,
stim_fb/ques.jpg,stim_fb/negf.jpg,stim_fb/posf.jpg,stim_03/a.jpg,stim_03/b.jpg,2,1,j,3,19,199,11,j,1,0.84980263607,03,02,60.0159971663,PLT_learning_3,B,2014_Feb_07_1542,P04,
stim_fb/ques.jpg,stim_fb/negf.jpg,stim_fb/posf.jpg,stim_03/e.jpg,stim_03/f.jpg,2,3,j,3,20,200,55,j,1,1.14964499515,03,02,60.0159971663,PLT_learning_3,B,2014_Feb_07_1542,P04,
stim_fb/ques.jpg,stim_fb/posf.jpg,stim_fb/negf.jpg,stim_03/d.jpg,stim_03/c.jpg,1,2,f,3,21,201,28,f,1,1.06637876708,03,02,60.0159971663,PLT_learning_3,B,2014_Feb_07_1542,P04,
stim_fb/ques.jpg,stim_fb/posf.jpg,stim_fb/negf.jpg,stim_03/a.jpg,stim_03/b.jpg,2,1,j,3,22,202,19,j,1,0.666510546537,03,02,60.0159971663,PLT_learning_3,B,2014_Feb_07_1542,P04,
stim_fb/ques.jpg,stim_fb/negf.jpg,stim_fb/posf.jpg,stim_03/d.jpg,stim_03/c.jpg,1,2,f,3,23,203,20,f,1,0.999717773551,03,02,60.0159971663,PLT_learning_3,B,2014_Feb_07_1542,P04,
stim_fb/ques.jpg,stim_fb/posf.jpg,stim_fb/negf.jpg,stim_03/c.jpg,stim_03/d.jpg,2,2,j,3,24,204,38,j,1,1.09975351163,03,02,60.0159971663,PLT_learning_3,B,2014_Feb_07_1542,P04,
stim_fb/ques.jpg,stim_fb/posf.jpg,stim_fb/negf.jpg,stim_03/b.jpg,stim_03/a.jpg,1,1,f,3,25,205,9,None,0,,03,02,60.0159971663,PLT_learning_3,B,2014_Feb_07_1542,P04,
stim_fb/ques.jpg,stim_fb/negf.jpg,stim_fb/posf.jpg,stim_03/a.jpg,stim_03/b.jpg,2,1,j,3,26,206,17,j,1,1.08301930662,03,02,60.0159971663,PLT_learning_3,B,2014_Feb_07_1542,P04,
stim_fb/ques.jpg,stim_fb/negf.jpg,stim_fb/posf.jpg,stim_03/e.jpg,stim_03/f.jpg,2,3,j,3,27,207,53,j,1,1.21628763092,03,02,60.0159971663,PLT_learning_3,B,2014_Feb_07_1542,P04,
stim_fb/ques.jpg,stim_fb/posf.jpg,stim_fb/negf.jpg,stim_03/e.jpg,stim_03/f.jpg,2,3,j,3,28,208,59,f,0,0.71647718739,03,02,60.0159971663,PLT_learning_3,B,2014_Feb_07_1542,P04,
stim_fb/ques.jpg,stim_fb/negf.jpg,stim_fb/posf.jpg,stim_03/a.jpg,stim_03/b.jpg,2,1,j,3,29,209,14,j,1,1.01638188284,03,02,60.0159971663,PLT_learning_3,B,2014_Feb_07_1542,P04,
stim_fb/ques.jpg,stim_fb/posf.jpg,stim_fb/negf.jpg,stim_03/a.jpg,stim_03/b.jpg,2,1,j,3,30,210,18,j,1,1.08303593206,03,02,60.0159971663,PLT_learning_3,B,2014_Feb_07_1542,P04,
stim_fb/ques.jpg,stim_fb/negf.jpg,stim_fb/posf.jpg,stim_03/f.jpg,stim_03/e.jpg,1,3,f,3,31,211,43,f,1,1.11634953421,03,02,60.0159971663,PLT_learning_3,B,2014_Feb_07_1542,P04,
stim_fb/ques.jpg,stim_fb/posf.jpg,stim_fb/negf.jpg,stim_03/f.jpg,stim_03/e.jpg,1,3,f,3,32,212,48,j,0,0.699817081075,03,02,60.0159971663,PLT_learning_3,B,2014_Feb_07_1542,P04,
stim_fb/ques.jpg,stim_fb/posf.jpg,stim_fb/negf.jpg,stim_03/f.jpg,stim_03/e.jpg,1,3,f,3,33,213,47,f,1,0.733017008895,03,02,60.0159971663,PLT_learning_3,B,2014_Feb_07_1542,P04,
stim_fb/ques.jpg,stim_fb/negf.jpg,stim_fb/posf.jpg,stim_03/c.jpg,stim_03/d.jpg,2,2,j,3,34,214,32,j,1,1.06634989211,03,02,60.0159971663,PLT_learning_3,B,2014_Feb_07_1542,P04,
stim_fb/ques.jpg,stim_fb/posf.jpg,stim_fb/negf.jpg,stim_03/f.jpg,stim_03/e.jpg,1,3,f,3,35,215,46,j,0,0.849778594146,03,02,60.0159971663,PLT_learning_3,B,2014_Feb_07_1542,P04,
stim_fb/ques.jpg,stim_fb/negf.jpg,stim_fb/posf.jpg,stim_03/a.jpg,stim_03/b.jpg,2,1,j,3,36,216,15,j,1,0.733164210796,03,02,60.0159971663,PLT_learning_3,B,2014_Feb_07_1542,P04,
stim_fb/ques.jpg,stim_fb/posf.jpg,stim_fb/negf.jpg,stim_03/c.jpg,stim_03/d.jpg,2,2,j,3,37,217,39,j,1,1.18296697017,03,02,60.0159971663,PLT_learning_3,B,2014_Feb_07_1542,P04,
stim_fb/ques.jpg,stim_fb/negf.jpg,stim_fb/posf.jpg,stim_03/f.jpg,stim_03/e.jpg,1,3,f,3,38,218,44,j,0,1.21633983805,03,02,60.0159971663,PLT_learning_3,B,2014_Feb_07_1542,P04,
stim_fb/ques.jpg,stim_fb/negf.jpg,stim_fb/posf.jpg,stim_03/c.jpg,stim_03/d.jpg,2,2,j,3,39,219,30,j,1,0.899764621318,03,02,60.0159971663,PLT_learning_3,B,2014_Feb_07_1542,P04,
stim_fb/ques.jpg,stim_fb/negf.jpg,stim_fb/posf.jpg,stim_03/b.jpg,stim_03/a.jpg,1,1,f,3,40,220,3,f,1,0.766471785927,03,02,60.0159971663,PLT_learning_3,B,2014_Feb_07_1542,P04,
stim_fb/ques.jpg,stim_fb/negf.jpg,stim_fb/posf.jpg,stim_03/d.jpg,stim_03/c.jpg,1,2,f,3,41,221,21,f,1,0.799789385042,03,02,60.0159971663,PLT_learning_3,B,2014_Feb_07_1542,P04,
stim_fb/ques.jpg,stim_fb/negf.jpg,stim_fb/posf.jpg,stim_03/b.jpg,stim_03/a.jpg,1,1,f,3,42,222,1,f,1,0.783114313426,03,02,60.0159971663,PLT_learning_3,B,2014_Feb_07_1542,P04,
stim_fb/ques.jpg,stim_fb/negf.jpg,stim_fb/posf.jpg,stim_03/f.jpg,stim_03/e.jpg,1,3,f,3,43,223,42,f,1,0.899731929835,03,02,60.0159971663,PLT_learning_3,B,2014_Feb_07_1542,P04,
stim_fb/ques.jpg,stim_fb/posf.jpg,stim_fb/negf.jpg,stim_03/e.jpg,stim_03/f.jpg,2,3,j,3,44,224,57,f,0,1.21629303238,03,02,60.0159971663,PLT_learning_3,B,2014_Feb_07_1542,P04,
stim_fb/ques.jpg,stim_fb/negf.jpg,stim_fb/posf.jpg,stim_03/f.jpg,stim_03/e.jpg,1,3,f,3,45,225,45,j,0,0.966415175826,03,02,60.0159971663,PLT_learning_3,B,2014_Feb_07_1542,P04,
stim_fb/ques.jpg,stim_fb/negf.jpg,stim_fb/posf.jpg,stim_03/b.jpg,stim_03/a.jpg,1,1,f,3,46,226,4,f,1,0.616452748476,03,02,60.0159971663,PLT_learning_3,B,2014_Feb_07_1542,P04,
stim_fb/ques.jpg,stim_fb/negf.jpg,stim_fb/posf.jpg,stim_03/b.jpg,stim_03/a.jpg,1,1,f,3,47,227,2,f,1,0.699809249554,03,02,60.0159971663,PLT_learning_3,B,2014_Feb_07_1542,P04,
stim_fb/ques.jpg,stim_fb/posf.jpg,stim_fb/negf.jpg,stim_03/c.jpg,stim_03/d.jpg,2,2,j,3,48,228,37,j,1,0.683167855881,03,02,60.0159971663,PLT_learning_3,B,2014_Feb_07_1542,P04,
stim_fb/ques.jpg,stim_fb/posf.jpg,stim_fb/negf.jpg,stim_03/d.jpg,stim_03/c.jpg,1,2,f,3,49,229,27,f,1,0.749814335231,03,02,60.0159971663,PLT_learning_3,B,2014_Feb_07_1542,P04,
stim_fb/ques.jpg,stim_fb/negf.jpg,stim_fb/posf.jpg,stim_03/a.jpg,stim_03/b.jpg,2,1,j,3,50,230,13,j,1,0.583193482756,03,02,60.0159971663,PLT_learning_3,B,2014_Feb_07_1542,P04,
stim_fb/ques.jpg,stim_fb/negf.jpg,stim_fb/posf.jpg,stim_03/d.jpg,stim_03/c.jpg,1,2,f,3,51,231,26,f,1,0.666504823272,03,02,60.0159971663,PLT_learning_3,B,2014_Feb_07_1542,P04,
stim_fb/ques.jpg,stim_fb/negf.jpg,stim_fb/posf.jpg,stim_03/a.jpg,stim_03/b.jpg,2,1,j,3,52,232,12,j,1,0.649836130555,03,02,60.0159971663,PLT_learning_3,B,2014_Feb_07_1542,P04,
stim_fb/ques.jpg,stim_fb/negf.jpg,stim_fb/posf.jpg,stim_03/f.jpg,stim_03/e.jpg,1,3,f,3,53,233,40,f,1,1.21632257502,03,02,60.0159971663,PLT_learning_3,B,2014_Feb_07_1542,P04,
stim_fb/ques.jpg,stim_fb/negf.jpg,stim_fb/posf.jpg,stim_03/e.jpg,stim_03/f.jpg,2,3,j,3,54,234,54,j,1,0.766470330298,03,02,60.0159971663,PLT_learning_3,B,2014_Feb_07_1542,P04,
stim_fb/ques.jpg,stim_fb/negf.jpg,stim_fb/posf.jpg,stim_03/c.jpg,stim_03/d.jpg,2,2,j,3,55,235,34,f,0,0.73311703521,03,02,60.0159971663,PLT_learning_3,B,2014_Feb_07_1542,P04,
stim_fb/ques.jpg,stim_fb/negf.jpg,stim_fb/posf.jpg,stim_03/c.jpg,stim_03/d.jpg,2,2,j,3,56,236,31,j,1,0.766489442937,03,02,60.0159971663,PLT_learning_3,B,2014_Feb_07_1542,P04,
stim_fb/ques.jpg,stim_fb/negf.jpg,stim_fb/posf.jpg,stim_03/d.jpg,stim_03/c.jpg,1,2,f,3,57,237,24,f,1,0.666493572229,03,02,60.0159971663,PLT_learning_3,B,2014_Feb_07_1542,P04,
stim_fb/ques.jpg,stim_fb/posf.jpg,stim_fb/negf.jpg,stim_03/f.jpg,stim_03/e.jpg,1,3,f,3,58,238,49,f,1,0.966406670626,03,02,60.0159971663,PLT_learning_3,B,2014_Feb_07_1542,P04,
stim_fb/ques.jpg,stim_fb/negf.jpg,stim_fb/posf.jpg,stim_03/a.jpg,stim_03/b.jpg,2,1,j,3,59,239,10,j,1,0.9497357674,03,02,60.0159971663,PLT_learning_3,B,2014_Feb_07_1542,P04,
stim_fb/ques.jpg,stim_fb/negf.jpg,stim_fb/posf.jpg,stim_03/f.jpg,stim_03/e.jpg,1,3,f,4,0,240,40,f,1,0.833079910677,03,02,60.0159971663,PLT_learning_3,B,2014_Feb_07_1542,P04,
stim_fb/ques.jpg,stim_fb/posf.jpg,stim_fb/negf.jpg,stim_03/f.jpg,stim_03/e.jpg,1,3,f,4,1,241,47,j,0,0.749788515876,03,02,60.0159971663,PLT_learning_3,B,2014_Feb_07_1542,P04,
stim_fb/ques.jpg,stim_fb/negf.jpg,stim_fb/posf.jpg,stim_03/d.jpg,stim_03/c.jpg,1,2,f,4,2,242,23,f,1,0.59985591988,03,02,60.0159971663,PLT_learning_3,B,2014_Feb_07_1542,P04,
stim_fb/ques.jpg,stim_fb/negf.jpg,stim_fb/posf.jpg,stim_03/c.jpg,stim_03/d.jpg,2,2,j,4,3,243,36,j,1,0.7831232096,03,02,60.0159971663,PLT_learning_3,B,2014_Feb_07_1542,P04,
stim_fb/ques.jpg,stim_fb/negf.jpg,stim_fb/posf.jpg,stim_03/a.jpg,stim_03/b.jpg,2,1,j,4,4,244,10,j,1,0.849770119022,03,02,60.0159971663,PLT_learning_3,B,2014_Feb_07_1542,P04,
stim_fb/ques.jpg,stim_fb/negf.jpg,stim_fb/posf.jpg,stim_03/f.jpg,stim_03/e.jpg,1,3,f,4,5,245,45,j,0,0.799752711634,03,02,60.0159971663,PLT_learning_3,B,2014_Feb_07_1542,P04,
stim_fb/ques.jpg,stim_fb/posf.jpg,stim_fb/negf.jpg,stim_03/f.jpg,stim_03/e.jpg,1,3,f,4,6,246,46,f,1,0.899762422839,03,02,60.0159971663,PLT_learning_3,B,2014_Feb_07_1542,P04,
stim_fb/ques.jpg,stim_fb/posf.jpg,stim_fb/negf.jpg,stim_03/a.jpg,stim_03/b.jpg,2,1,j,4,7,247,19,j,1,0.616495770708,03,02,60.0159971663,PLT_learning_3,B,2014_Feb_07_1542,P04,
stim_fb/ques.jpg,stim_fb/posf.jpg,stim_fb/negf.jpg,stim_03/e.jpg,stim_03/f.jpg,2,3,j,4,8,248,59,j,1,0.833115886347,03,02,60.0159971663,PLT_learning_3,B,2014_Feb_07_1542,P04,
stim_fb/ques.jpg,stim_fb/negf.jpg,stim_fb/posf.jpg,stim_03/d.jpg,stim_03/c.jpg,1,2,f,4,9,249,21,f,1,0.516558128134,03,02,60.0159971663,PLT_learning_3,B,2014_Feb_07_1542,P04,
stim_fb/ques.jpg,stim_fb/negf.jpg,stim_fb/posf.jpg,stim_03/c.jpg,stim_03/d.jpg,2,2,j,4,10,250,33,j,1,0.849806254088,03,02,60.0159971663,PLT_learning_3,B,2014_Feb_07_1542,P04,
stim_fb/ques.jpg,stim_fb/posf.jpg,stim_fb/negf.jpg,stim_03/e.jpg,stim_03/f.jpg,2,3,j,4,11,251,58,f,0,0.766468122796,03,02,60.0159971663,PLT_learning_3,B,2014_Feb_07_1542,P04,
stim_fb/ques.jpg,stim_fb/negf.jpg,stim_fb/posf.jpg,stim_03/b.jpg,stim_03/a.jpg,1,1,f,4,12,252,5,f,1,0.783120569018,03,02,60.0159971663,PLT_learning_3,B,2014_Feb_07_1542,P04,
stim_fb/ques.jpg,stim_fb/negf.jpg,stim_fb/posf.jpg,stim_03/b.jpg,stim_03/a.jpg,1,1,f,4,13,253,7,f,1,0.783136382433,03,02,60.0159971663,PLT_learning_3,B,2014_Feb_07_1542,P04,
stim_fb/ques.jpg,stim_fb/negf.jpg,stim_fb/posf.jpg,stim_03/b.jpg,stim_03/a.jpg,1,1,f,4,14,254,1,f,1,0.716459999549,03,02,60.0159971663,PLT_learning_3,B,2014_Feb_07_1542,P04,
stim_fb/ques.jpg,stim_fb/negf.jpg,stim_fb/posf.jpg,stim_03/e.jpg,stim_03/f.jpg,2,3,j,4,15,255,53,j,1,0.816417022428,03,02,60.0159971663,PLT_learning_3,B,2014_Feb_07_1542,P04,
stim_fb/ques.jpg,stim_fb/negf.jpg,stim_fb/posf.jpg,stim_03/e.jpg,stim_03/f.jpg,2,3,j,4,16,256,54,j,1,1.08303346291,03,02,60.0159971663,PLT_learning_3,B,2014_Feb_07_1542,P04,
stim_fb/ques.jpg,stim_fb/negf.jpg,stim_fb/posf.jpg,stim_03/d.jpg,stim_03/c.jpg,1,2,f,4,17,257,22,f,1,0.799766510026,03,02,60.0159971663,PLT_learning_3,B,2014_Feb_07_1542,P04,
stim_fb/ques.jpg,stim_fb/negf.jpg,stim_fb/posf.jpg,stim_03/f.jpg,stim_03/e.jpg,1,3,f,4,18,258,41,j,0,0.766480221953,03,02,60.0159971663,PLT_learning_3,B,2014_Feb_07_1542,P04,
stim_fb/ques.jpg,stim_fb/posf.jpg,stim_fb/negf.jpg,stim_03/e.jpg,stim_03/f.jpg,2,3,j,4,19,259,57,j,1,1.0497101706,03,02,60.0159971663,PLT_learning_3,B,2014_Feb_07_1542,P04,
stim_fb/ques.jpg,stim_fb/negf.jpg,stim_fb/posf.jpg,stim_03/d.jpg,stim_03/c.jpg,1,2,f,4,20,260,26,f,1,0.899775944542,03,02,60.0159971663,PLT_learning_3,B,2014_Feb_07_1542,P04,
stim_fb/ques.jpg,stim_fb/negf.jpg,stim_fb/posf.jpg,stim_03/c.jpg,stim_03/d.jpg,2,2,j,4,21,261,31,j,1,0.633179759551,03,02,60.0159971663,PLT_learning_3,B,2014_Feb_07_1542,P04,
stim_fb/ques.jpg,stim_fb/negf.jpg,stim_fb/posf.jpg,stim_03/e.jpg,stim_03/f.jpg,2,3,j,4,22,262,55,f,0,0.766445975594,03,02,60.0159971663,PLT_learning_3,B,2014_Feb_07_1542,P04,
stim_fb/ques.jpg,stim_fb/posf.jpg,stim_fb/negf.jpg,stim_03/f.jpg,stim_03/e.jpg,1,3,f,4,23,263,49,j,0,0.833108680386,03,02,60.0159971663,PLT_learning_3,B,2014_Feb_07_1542,P04,
stim_fb/ques.jpg,stim_fb/negf.jpg,stim_fb/posf.jpg,stim_03/d.jpg,stim_03/c.jpg,1,2,f,4,24,264,24,f,1,0.749797800016,03,02,60.0159971663,PLT_learning_3,B,2014_Feb_07_1542,P04,
stim_fb/ques.jpg,stim_fb/negf.jpg,stim_fb/posf.jpg,stim_03/d.jpg,stim_03/c.jpg,1,2,f,4,25,265,25,f,1,0.81648679634,03,02,60.0159971663,PLT_learning_3,B,2014_Feb_07_1542,P04,
stim_fb/ques.jpg,stim_fb/posf.jpg,stim_fb/negf.jpg,stim_03/c.jpg,stim_03/d.jpg,2,2,j,4,26,266,38,j,1,0.649855462741,03,02,60.0159971663,PLT_learning_3,B,2014_Feb_07_1542,P04,
stim_fb/ques.jpg,stim_fb/negf.jpg,stim_fb/posf.jpg,stim_03/a.jpg,stim_03/b.jpg,2,1,j,4,27,267,14,j,1,0.766449350005,03,02,60.0159971663,PLT_learning_3,B,2014_Feb_07_1542,P04,
stim_fb/ques.jpg,stim_fb/negf.jpg,stim_fb/posf.jpg,stim_03/f.jpg,stim_03/e.jpg,1,3,f,4,28,268,43,f,1,0.799802070661,03,02,60.0159971663,PLT_learning_3,B,2014_Feb_07_1542,P04,
stim_fb/ques.jpg,stim_fb/negf.jpg,stim_fb/posf.jpg,stim_03/b.jpg,stim_03/a.jpg,1,1,f,4,29,269,4,f,1,0.69980294885,03,02,60.0159971663,PLT_learning_3,B,2014_Feb_07_1542,P04,
stim_fb/ques.jpg,stim_fb/negf.jpg,stim_fb/posf.jpg,stim_03/a.jpg,stim_03/b.jpg,2,1,j,4,30,270,12,j,1,0.749800368418,03,02,60.0159971663,PLT_learning_3,B,2014_Feb_07_1542,P04,
stim_fb/ques.jpg,stim_fb/negf.jpg,stim_fb/posf.jpg,stim_03/b.jpg,stim_03/a.jpg,1,1,f,4,31,271,6,f,1,0.749744816957,03,02,60.0159971663,PLT_learning_3,B,2014_Feb_07_1542,P04,
stim_fb/ques.jpg,stim_fb/negf.jpg,stim_fb/posf.jpg,stim_03/b.jpg,stim_03/a.jpg,1,1,f,4,32,272,2,f,1,0.783114364554,03,02,60.0159971663,PLT_learning_3,B,2014_Feb_07_1542,P04,
stim_fb/ques.jpg,stim_fb/negf.jpg,stim_fb/posf.jpg,stim_03/c.jpg,stim_03/d.jpg,2,2,j,4,33,273,30,j,1,0.71644347035,03,02,60.0159971663,PLT_learning_3,B,2014_Feb_07_1542,P04,
stim_fb/ques.jpg,stim_fb/posf.jpg,stim_fb/negf.jpg,stim_03/d.jpg,stim_03/c.jpg,1,2,f,4,34,274,29,f,1,0.766441738032,03,02,60.0159971663,PLT_learning_3,B,2014_Feb_07_1542,P04,
stim_fb/ques.jpg,stim_fb/negf.jpg,stim_fb/posf.jpg,stim_03/f.jpg,stim_03/e.jpg,1,3,f,4,35,275,42,j,0,0.916423990797,03,02,60.0159971663,PLT_learning_3,B,2014_Feb_07_1542,P04,
stim_fb/ques.jpg,stim_fb/negf.jpg,stim_fb/posf.jpg,stim_03/a.jpg,stim_03/b.jpg,2,1,j,4,36,276,17,j,1,0.866453461252,03,02,60.0159971663,PLT_learning_3,B,2014_Feb_07_1542,P04,
stim_fb/ques.jpg,stim_fb/posf.jpg,stim_fb/negf.jpg,stim_03/b.jpg,stim_03/a.jpg,1,1,f,4,37,277,8,f,1,0.91642946444,03,02,60.0159971663,PLT_learning_3,B,2014_Feb_07_1542,P04,
stim_fb/ques.jpg,stim_fb/posf.jpg,stim_fb/negf.jpg,stim_03/d.jpg,stim_03/c.jpg,1,2,f,4,38,278,28,f,1,0.799784708386,03,02,60.0159971663,PLT_learning_3,B,2014_Feb_07_1542,P04,
stim_fb/ques.jpg,stim_fb/negf.jpg,stim_fb/posf.jpg,stim_03/e.jpg,stim_03/f.jpg,2,3,j,4,39,279,51,j,1,0.833108021744,03,02,60.0159971663,PLT_learning_3,B,2014_Feb_07_1542,P04,
stim_fb/ques.jpg,stim_fb/posf.jpg,stim_fb/negf.jpg,stim_03/b.jpg,stim_03/a.jpg,1,1,f,4,40,280,9,f,1,0.616523478771,03,02,60.0159971663,PLT_learning_3,B,2014_Feb_07_1542,P04,
stim_fb/ques.jpg,stim_fb/negf.jpg,stim_fb/posf.jpg,stim_03/a.jpg,stim_03/b.jpg,2,1,j,4,41,281,16,j,1,0.816454712371,03,02,60.0159971663,PLT_learning_3,B,2014_Feb_07_1542,P04,
stim_fb/ques.jpg,stim_fb/negf.jpg,stim_fb/posf.jpg,stim_03/e.jpg,stim_03/f.jpg,2,3,j,4,42,282,52,f,0,0.783123417117,03,02,60.0159971663,PLT_learning_3,B,2014_Feb_07_1542,P04,
stim_fb/ques.jpg,stim_fb/negf.jpg,stim_fb/posf.jpg,stim_03/d.jpg,stim_03/c.jpg,1,2,f,4,43,283,20,f,1,0.61651817054,03,02,60.0159971663,PLT_learning_3,B,2014_Feb_07_1542,P04,
stim_fb/ques.jpg,stim_fb/negf.jpg,stim_fb/posf.jpg,stim_03/a.jpg,stim_03/b.jpg,2,1,j,4,44,284,13,j,1,0.816450044736,03,02,60.0159971663,PLT_learning_3,B,2014_Feb_07_1542,P04,
stim_fb/ques.jpg,stim_fb/negf.jpg,stim_fb/posf.jpg,stim_03/a.jpg,stim_03/b.jpg,2,1,j,4,45,285,11,j,1,0.699842301938,03,02,60.0159971663,PLT_learning_3,B,2014_Feb_07_1542,P04,
stim_fb/ques.jpg,stim_fb/negf.jpg,stim_fb/posf.jpg,stim_03/b.jpg,stim_03/a.jpg,1,1,f,4,46,286,3,f,1,0.63316839723,03,02,60.0159971663,PLT_learning_3,B,2014_Feb_07_1542,P04,
stim_fb/ques.jpg,stim_fb/negf.jpg,stim_fb/posf.jpg,stim_03/f.jpg,stim_03/e.jpg,1,3,f,4,47,287,44,j,0,0.883043673356,03,02,60.0159971663,PLT_learning_3,B,2014_Feb_07_1542,P04,
stim_fb/ques.jpg,stim_fb/negf.jpg,stim_fb/posf.jpg,stim_03/c.jpg,stim_03/d.jpg,2,2,j,4,48,288,32,j,1,0.933086635439,03,02,60.0159971663,PLT_learning_3,B,2014_Feb_07_1542,P04,
stim_fb/ques.jpg,stim_fb/negf.jpg,stim_fb/posf.jpg,stim_03/c.jpg,stim_03/d.jpg,2,2,j,4,49,289,34,j,1,0.666475391914,03,02,60.0159971663,PLT_learning_3,B,2014_Feb_07_1542,P04,
stim_fb/ques.jpg,stim_fb/posf.jpg,stim_fb/negf.jpg,stim_03/c.jpg,stim_03/d.jpg,2,2,j,4,50,290,39,j,1,0.61653409824,03,02,60.0159971663,PLT_learning_3,B,2014_Feb_07_1542,P04,
stim_fb/ques.jpg,stim_fb/posf.jpg,stim_fb/negf.jpg,stim_03/e.jpg,stim_03/f.jpg,2,3,j,4,51,291,56,f,0,0.766475924241,03,02,60.0159971663,PLT_learning_3,B,2014_Feb_07_1542,P04,
stim_fb/ques.jpg,stim_fb/posf.jpg,stim_fb/negf.jpg,stim_03/d.jpg,stim_03/c.jpg,1,2,f,4,52,292,27,f,1,0.916394406057,03,02,60.0159971663,PLT_learning_3,B,2014_Feb_07_1542,P04,
stim_fb/ques.jpg,stim_fb/posf.jpg,stim_fb/negf.jpg,stim_03/f.jpg,stim_03/e.jpg,1,3,f,4,53,293,48,j,0,0.749799860151,03,02,60.0159971663,PLT_learning_3,B,2014_Feb_07_1542,P04,
stim_fb/ques.jpg,stim_fb/posf.jpg,stim_fb/negf.jpg,stim_03/c.jpg,stim_03/d.jpg,2,2,j,4,54,294,37,j,1,0.649794203051,03,02,60.0159971663,PLT_learning_3,B,2014_Feb_07_1542,P04,
stim_fb/ques.jpg,stim_fb/negf.jpg,stim_fb/posf.jpg,stim_03/c.jpg,stim_03/d.jpg,2,2,j,4,55,295,35,j,1,0.633177227239,03,02,60.0159971663,PLT_learning_3,B,2014_Feb_07_1542,P04,
stim_fb/ques.jpg,stim_fb/negf.jpg,stim_fb/posf.jpg,stim_03/a.jpg,stim_03/b.jpg,2,1,j,4,56,296,15,j,1,0.866432231337,03,02,60.0159971663,PLT_learning_3,B,2014_Feb_07_1542,P04,
stim_fb/ques.jpg,stim_fb/negf.jpg,stim_fb/posf.jpg,stim_03/e.jpg,stim_03/f.jpg,2,3,j,4,57,297,50,j,1,0.833074831016,03,02,60.0159971663,PLT_learning_3,B,2014_Feb_07_1542,P04,
stim_fb/ques.jpg,stim_fb/negf.jpg,stim_fb/posf.jpg,stim_03/b.jpg,stim_03/a.jpg,1,1,f,4,58,298,0,f,1,0.616515644243,03,02,60.0159971663,PLT_learning_3,B,2014_Feb_07_1542,P04,
stim_fb/ques.jpg,stim_fb/posf.jpg,stim_fb/negf.jpg,stim_03/a.jpg,stim_03/b.jpg,2,1,j,4,59,299,18,j,1,0.683132280208,03,02,60.0159971663,PLT_learning_3,B,2014_Feb_07_1542,P04,
stim_fb/ques.jpg,stim_fb/negf.jpg,stim_fb/posf.jpg,stim_03/d.jpg,stim_03/c.jpg,1,2,f,5,0,300,21,f,1,0.816423217871,03,02,60.0159971663,PLT_learning_3,B,2014_Feb_07_1542,P04,
stim_fb/ques.jpg,stim_fb/negf.jpg,stim_fb/posf.jpg,stim_03/b.jpg,stim_03/a.jpg,1,1,f,5,1,301,5,f,1,0.699814548763,03,02,60.0159971663,PLT_learning_3,B,2014_Feb_07_1542,P04,
stim_fb/ques.jpg,stim_fb/negf.jpg,stim_fb/posf.jpg,stim_03/c.jpg,stim_03/d.jpg,2,2,j,5,2,302,32,j,1,0.766457831144,03,02,60.0159971663,PLT_learning_3,B,2014_Feb_07_1542,P04,
stim_fb/ques.jpg,stim_fb/posf.jpg,stim_fb/negf.jpg,stim_03/d.jpg,stim_03/c.jpg,1,2,f,5,3,303,28,f,1,0.71678217457,03,02,60.0159971663,PLT_learning_3,B,2014_Feb_07_1542,P04,
stim_fb/ques.jpg,stim_fb/negf.jpg,stim_fb/posf.jpg,stim_03/b.jpg,stim_03/a.jpg,1,1,f,5,4,304,6,f,1,0.683181314426,03,02,60.0159971663,PLT_learning_3,B,2014_Feb_07_1542,P04,
stim_fb/ques.jpg,stim_fb/posf.jpg,stim_fb/negf.jpg,stim_03/f.jpg,stim_03/e.jpg,1,3,f,5,5,305,48,f,1,0.7830794385,03,02,60.0159971663,PLT_learning_3,B,2014_Feb_07_1542,P04,
stim_fb/ques.jpg,stim_fb/posf.jpg,stim_fb/negf.jpg,stim_03/e.jpg,stim_03/f.jpg,2,3,j,5,6,306,59,j,1,0.983054398087,03,02,60.0159971663,PLT_learning_3,B,2014_Feb_07_1542,P04,
stim_fb/ques.jpg,stim_fb/negf.jpg,stim_fb/posf.jpg,stim_03/f.jpg,stim_03/e.jpg,1,3,f,5,7,307,40,j,0,1.41621852768,03,02,60.0159971663,PLT_learning_3,B,2014_Feb_07_1542,P04,
stim_fb/ques.jpg,stim_fb/negf.jpg,stim_fb/posf.jpg,stim_03/f.jpg,stim_03/e.jpg,1,3,f,5,8,308,45,j,0,1.049724375,03,02,60.0159971663,PLT_learning_3,B,2014_Feb_07_1542,P04,
stim_fb/ques.jpg,stim_fb/posf.jpg,stim_fb/negf.jpg,stim_03/c.jpg,stim_03/d.jpg,2,2,j,5,9,309,38,j,1,1.08304132751,03,02,60.0159971663,PLT_learning_3,B,2014_Feb_07_1542,P04,
stim_fb/ques.jpg,stim_fb/negf.jpg,stim_fb/posf.jpg,stim_03/b.jpg,stim_03/a.jpg,1,1,f,5,10,310,4,f,1,0.599880776836,03,02,60.0159971663,PLT_learning_3,B,2014_Feb_07_1542,P04,
stim_fb/ques.jpg,stim_fb/negf.jpg,stim_fb/posf.jpg,stim_03/f.jpg,stim_03/e.jpg,1,3,f,5,11,311,41,f,1,0.949753207871,03,02,60.0159971663,PLT_learning_3,B,2014_Feb_07_1542,P04,
stim_fb/ques.jpg,stim_fb/negf.jpg,stim_fb/posf.jpg,stim_03/b.jpg,stim_03/a.jpg,1,1,f,5,12,312,7,f,1,1.0330271622,03,02,60.0159971663,PLT_learning_3,B,2014_Feb_07_1542,P04,
stim_fb/ques.jpg,stim_fb/posf.jpg,stim_fb/negf.jpg,stim_03/f.jpg,stim_03/e.jpg,1,3,f,5,13,313,46,j,0,1.43290478417,03,02,60.0159971663,PLT_learning_3,B,2014_Feb_07_1542,P04,
stim_fb/ques.jpg,stim_fb/negf.jpg,stim_fb/posf.jpg,stim_03/f.jpg,stim_03/e.jpg,1,3,f,5,14,314,42,f,1,1.36627745055,03,02,60.0159971663,PLT_learning_3,B,2014_Feb_07_1542,P04,
stim_fb/ques.jpg,stim_fb/negf.jpg,stim_fb/posf.jpg,stim_03/a.jpg,stim_03/b.jpg,2,1,j,5,15,315,15,j,1,1.43291003226,03,02,60.0159971663,PLT_learning_3,B,2014_Feb_07_1542,P04,
stim_fb/ques.jpg,stim_fb/negf.jpg,stim_fb/posf.jpg,stim_03/c.jpg,stim_03/d.jpg,2,2,j,5,16,316,30,j,1,0.999722901332,03,02,60.0159971663,PLT_learning_3,B,2014_Feb_07_1542,P04,
stim_fb/ques.jpg,stim_fb/negf.jpg,stim_fb/posf.jpg,stim_03/e.jpg,stim_03/f.jpg,2,3,j,5,17,317,53,f,0,1.19962352464,03,02,60.0159971663,PLT_learning_3,B,2014_Feb_07_1542,P04,
stim_fb/ques.jpg,stim_fb/negf.jpg,stim_fb/posf.jpg,stim_03/a.jpg,stim_03/b.jpg,2,1,j,5,18,318,14,j,1,0.733141110217,03,02,60.0159971663,PLT_learning_3,B,2014_Feb_07_1542,P04,
stim_fb/ques.jpg,stim_fb/negf.jpg,stim_fb/posf.jpg,stim_03/c.jpg,stim_03/d.jpg,2,2,j,5,19,319,31,j,1,0.816417163781,03,02,60.0159971663,PLT_learning_3,B,2014_Feb_07_1542,P04,
stim_fb/ques.jpg,stim_fb/negf.jpg,stim_fb/posf.jpg,stim_03/a.jpg,stim_03/b.jpg,2,1,j,5,20,320,12,j,1,0.933041841791,03,02,60.0159971663,PLT_learning_3,B,2014_Feb_07_1542,P04,
stim_fb/ques.jpg,stim_fb/posf.jpg,stim_fb/negf.jpg,stim_03/e.jpg,stim_03/f.jpg,2,3,j,5,21,321,56,f,0,1.06634140796,03,02,60.0159971663,PLT_learning_3,B,2014_Feb_07_1542,P04,
stim_fb/ques.jpg,stim_fb/negf.jpg,stim_fb/posf.jpg,stim_03/c.jpg,stim_03/d.jpg,2,2,j,5,22,322,35,j,1,0.816484255005,03,02,60.0159971663,PLT_learning_3,B,2014_Feb_07_1542,P04,
stim_fb/ques.jpg,stim_fb/posf.jpg,stim_fb/negf.jpg,stim_03/b.jpg,stim_03/a.jpg,1,1,f,5,23,323,9,f,1,0.849714693874,03,02,60.0159971663,PLT_learning_3,B,2014_Feb_07_1542,P04,
stim_fb/ques.jpg,stim_fb/negf.jpg,stim_fb/posf.jpg,stim_03/a.jpg,stim_03/b.jpg,2,1,j,5,24,324,17,j,1,0.56652983361,03,02,60.0159971663,PLT_learning_3,B,2014_Feb_07_1542,P04,
stim_fb/ques.jpg,stim_fb/negf.jpg,stim_fb/posf.jpg,stim_03/b.jpg,stim_03/a.jpg,1,1,f,5,25,325,3,f,1,0.616487773776,03,02,60.0159971663,PLT_learning_3,B,2014_Feb_07_1542,P04,
stim_fb/ques.jpg,stim_fb/negf.jpg,stim_fb/posf.jpg,stim_03/d.jpg,stim_03/c.jpg,1,2,f,5,26,326,26,f,1,0.833100208269,03,02,60.0159971663,PLT_learning_3,B,2014_Feb_07_1542,P04,
stim_fb/ques.jpg,stim_fb/posf.jpg,stim_fb/negf.jpg,stim_03/f.jpg,stim_03/e.jpg,1,3,f,5,27,327,47,j,0,0.88310347441,03,02,60.0159971663,PLT_learning_3,B,2014_Feb_07_1542,P04,
stim_fb/ques.jpg,stim_fb/negf.jpg,stim_fb/posf.jpg,stim_03/c.jpg,stim_03/d.jpg,2,2,j,5,28,328,36,j,1,0.933076740776,03,02,60.0159971663,PLT_learning_3,B,2014_Feb_07_1542,P04,
stim_fb/ques.jpg,stim_fb/negf.jpg,stim_fb/posf.jpg,stim_03/c.jpg,stim_03/d.jpg,2,2,j,5,29,329,34,j,1,0.683141266607,03,02,60.0159971663,PLT_learning_3,B,2014_Feb_07_1542,P04,
stim_fb/ques.jpg,stim_fb/negf.jpg,stim_fb/posf.jpg,stim_03/d.jpg,stim_03/c.jpg,1,2,f,5,30,330,25,f,1,0.749797878211,03,02,60.0159971663,PLT_learning_3,B,2014_Feb_07_1542,P04,
stim_fb/ques.jpg,stim_fb/negf.jpg,stim_fb/posf.jpg,stim_03/a.jpg,stim_03/b.jpg,2,1,j,5,31,331,11,j,1,1.18298106631,03,02,60.0159971663,PLT_learning_3,B,2014_Feb_07_1542,P04,
stim_fb/ques.jpg,stim_fb/negf.jpg,stim_fb/posf.jpg,stim_03/d.jpg,stim_03/c.jpg,1,2,f,5,32,332,20,j,0,0.84976954459,03,02,60.0159971663,PLT_learning_3,B,2014_Feb_07_1542,P04,
stim_fb/ques.jpg,stim_fb/negf.jpg,stim_fb/posf.jpg,stim_03/e.jpg,stim_03/f.jpg,2,3,j,5,33,333,54,j,1,0.816444225231,03,02,60.0159971663,PLT_learning_3,B,2014_Feb_07_1542,P04,
stim_fb/ques.jpg,stim_fb/posf.jpg,stim_fb/negf.jpg,stim_03/d.jpg,stim_03/c.jpg,1,2,f,5,34,334,27,f,1,0.683136268148,03,02,60.0159971663,PLT_learning_3,B,2014_Feb_07_1542,P04,
stim_fb/ques.jpg,stim_fb/negf.jpg,stim_fb/posf.jpg,stim_03/e.jpg,stim_03/f.jpg,2,3,j,5,35,335,50,f,0,1.06639471884,03,02,60.0159971663,PLT_learning_3,B,2014_Feb_07_1542,P04,
stim_fb/ques.jpg,stim_fb/negf.jpg,stim_fb/posf.jpg,stim_03/e.jpg,stim_03/f.jpg,2,3,j,5,36,336,55,f,0,0.899759307073,03,02,60.0159971663,PLT_learning_3,B,2014_Feb_07_1542,P04,
stim_fb/ques.jpg,stim_fb/negf.jpg,stim_fb/posf.jpg,stim_03/f.jpg,stim_03/e.jpg,1,3,f,5,37,337,43,f,1,1.24958414749,03,02,60.0159971663,PLT_learning_3,B,2014_Feb_07_1542,P04,
stim_fb/ques.jpg,stim_fb/negf.jpg,stim_fb/posf.jpg,stim_03/f.jpg,stim_03/e.jpg,1,3,f,5,38,338,44,j,0,1.23297634153,03,02,60.0159971663,PLT_learning_3,B,2014_Feb_07_1542,P04,
stim_fb/ques.jpg,stim_fb/negf.jpg,stim_fb/posf.jpg,stim_03/d.jpg,stim_03/c.jpg,1,2,f,5,39,339,24,f,1,1.08302441034,03,02,60.0159971663,PLT_learning_3,B,2014_Feb_07_1542,P04,
stim_fb/ques.jpg,stim_fb/negf.jpg,stim_fb/posf.jpg,stim_03/b.jpg,stim_03/a.jpg,1,1,f,5,40,340,2,f,1,0.849815051015,03,02,60.0159971663,PLT_learning_3,B,2014_Feb_07_1542,P04,
stim_fb/ques.jpg,stim_fb/posf.jpg,stim_fb/negf.jpg,stim_03/c.jpg,stim_03/d.jpg,2,2,j,5,41,341,39,j,1,0.649837114007,03,02,60.0159971663,PLT_learning_3,B,2014_Feb_07_1542,P04,
stim_fb/ques.jpg,stim_fb/posf.jpg,stim_fb/negf.jpg,stim_03/e.jpg,stim_03/f.jpg,2,3,j,5,42,342,58,f,0,0.833113248772,03,02,60.0159971663,PLT_learning_3,B,2014_Feb_07_1542,P04,
stim_fb/ques.jpg,stim_fb/negf.jpg,stim_fb/posf.jpg,stim_03/a.jpg,stim_03/b.jpg,2,1,j,5,43,343,13,j,1,0.733103636815,03,02,60.0159971663,PLT_learning_3,B,2014_Feb_07_1542,P04,
stim_fb/ques.jpg,stim_fb/posf.jpg,stim_fb/negf.jpg,stim_03/c.jpg,stim_03/d.jpg,2,2,j,5,44,344,37,j,1,0.616517803626,03,02,60.0159971663,PLT_learning_3,B,2014_Feb_07_1542,P04,
stim_fb/ques.jpg,stim_fb/posf.jpg,stim_fb/negf.jpg,stim_03/d.jpg,stim_03/c.jpg,1,2,f,5,45,345,29,f,1,0.582202590958,03,02,60.0159971663,PLT_learning_3,B,2014_Feb_07_1542,P04,
stim_fb/ques.jpg,stim_fb/negf.jpg,stim_fb/posf.jpg,stim_03/d.jpg,stim_03/c.jpg,1,2,f,5,46,346,22,f,1,1.04971552394,03,02,60.0159971663,PLT_learning_3,B,2014_Feb_07_1542,P04,
stim_fb/ques.jpg,stim_fb/negf.jpg,stim_fb/posf.jpg,stim_03/c.jpg,stim_03/d.jpg,2,2,j,5,47,347,33,j,1,0.616563048398,03,02,60.0159971663,PLT_learning_3,B,2014_Feb_07_1542,P04,
stim_fb/ques.jpg,stim_fb/negf.jpg,stim_fb/posf.jpg,stim_03/d.jpg,stim_03/c.jpg,1,2,f,5,48,348,23,f,1,0.733164313051,03,02,60.0159971663,PLT_learning_3,B,2014_Feb_07_1542,P04,
stim_fb/ques.jpg,stim_fb/negf.jpg,stim_fb/posf.jpg,stim_03/b.jpg,stim_03/a.jpg,1,1,f,5,49,349,1,f,1,0.833111591642,03,02,60.0159971663,PLT_learning_3,B,2014_Feb_07_1542,P04,
stim_fb/ques.jpg,stim_fb/negf.jpg,stim_fb/posf.jpg,stim_03/a.jpg,stim_03/b.jpg,2,1,j,5,50,350,16,j,1,0.6998286058,03,02,60.0159971663,PLT_learning_3,B,2014_Feb_07_1542,P04,
stim_fb/ques.jpg,stim_fb/posf.jpg,stim_fb/negf.jpg,stim_03/f.jpg,stim_03/e.jpg,1,3,f,5,51,351,49,f,1,0.883126662206,03,02,60.0159971663,PLT_learning_3,B,2014_Feb_07_1542,P04,
stim_fb/ques.jpg,stim_fb/negf.jpg,stim_fb/posf.jpg,stim_03/b.jpg,stim_03/a.jpg,1,1,f,5,52,352,0,f,1,0.69981446756,03,02,60.0159971663,PLT_learning_3,B,2014_Feb_07_1542,P04,
stim_fb/ques.jpg,stim_fb/posf.jpg,stim_fb/negf.jpg,stim_03/a.jpg,stim_03/b.jpg,2,1,j,5,53,353,19,j,1,0.566510513455,03,02,60.0159971663,PLT_learning_3,B,2014_Feb_07_1542,P04,
stim_fb/ques.jpg,stim_fb/posf.jpg,stim_fb/negf.jpg,stim_03/b.jpg,stim_03/a.jpg,1,1,f,5,54,354,8,f,1,0.633188625649,03,02,60.0159971663,PLT_learning_3,B,2014_Feb_07_1542,P04,
stim_fb/ques.jpg,stim_fb/negf.jpg,stim_fb/posf.jpg,stim_03/e.jpg,stim_03/f.jpg,2,3,j,5,55,355,51,j,1,0.749818290088,03,02,60.0159971663,PLT_learning_3,B,2014_Feb_07_1542,P04,
stim_fb/ques.jpg,stim_fb/negf.jpg,stim_fb/posf.jpg,stim_03/e.jpg,stim_03/f.jpg,2,3,j,5,56,356,52,f,0,0.666487328667,03,02,60.0159971663,PLT_learning_3,B,2014_Feb_07_1542,P04,
stim_fb/ques.jpg,stim_fb/posf.jpg,stim_fb/negf.jpg,stim_03/e.jpg,stim_03/f.jpg,2,3,j,5,57,357,57,j,1,1.14973023962,03,02,60.0159971663,PLT_learning_3,B,2014_Feb_07_1542,P04,
stim_fb/ques.jpg,stim_fb/negf.jpg,stim_fb/posf.jpg,stim_03/a.jpg,stim_03/b.jpg,2,1,j,5,58,358,10,j,1,1.03300359847,03,02,60.0159971663,PLT_learning_3,B,2014_Feb_07_1542,P04,
stim_fb/ques.jpg,stim_fb/posf.jpg,stim_fb/negf.jpg,stim_03/a.jpg,stim_03/b.jpg,2,1,j,5,59,359,18,j,1,0.966376818219,03,02,60.0159971663,PLT_learning_3,B,2014_Feb_07_1542,P04,
