Fb3,Fb2,Fb1,Symbol2,Symbol1,PosCond,Pair,Correct,trials.thisRepN,trials.thisTrialN,trials.thisN,trials.thisIndex,Response.keys,Response.corr,Response.rt,Version,Session Number,frameRate,expName,StimCondition,date,Participant,
stim_fb/ques.jpg,stim_fb/negf.jpg,stim_fb/posf.jpg,stim_03/c.jpg,stim_03/d.jpg,2,2,j,0,0,0,34,j,1,1.1496806036,03,03,60.0179950873,PLT_learning_3,B,2014_Feb_19_1627,P05,
stim_fb/ques.jpg,stim_fb/negf.jpg,stim_fb/posf.jpg,stim_03/d.jpg,stim_03/c.jpg,1,2,f,0,1,1,20,f,1,1.66616790638,03,03,60.0179950873,PLT_learning_3,B,2014_Feb_19_1627,P05,
stim_fb/ques.jpg,stim_fb/negf.jpg,stim_fb/posf.jpg,stim_03/e.jpg,stim_03/f.jpg,2,3,j,0,2,2,53,j,1,1.03304054165,03,03,60.0179950873,PLT_learning_3,B,2014_Feb_19_1627,P05,
stim_fb/ques.jpg,stim_fb/negf.jpg,stim_fb/posf.jpg,stim_03/c.jpg,stim_03/d.jpg,2,2,j,0,3,3,36,j,1,0.999736408988,03,03,60.0179950873,PLT_learning_3,B,2014_Feb_19_1627,P05,
stim_fb/ques.jpg,stim_fb/negf.jpg,stim_fb/posf.jpg,stim_03/c.jpg,stim_03/d.jpg,2,2,j,0,4,4,35,j,1,0.599689798987,03,03,60.0179950873,PLT_learning_3,B,2014_Feb_19_1627,P05,
stim_fb/ques.jpg,stim_fb/posf.jpg,stim_fb/negf.jpg,stim_03/c.jpg,stim_03/d.jpg,2,2,j,0,5,5,39,j,1,0.616486929847,03,03,60.0179950873,PLT_learning_3,B,2014_Feb_19_1627,P05,
stim_fb/ques.jpg,stim_fb/negf.jpg,stim_fb/posf.jpg,stim_03/d.jpg,stim_03/c.jpg,1,2,f,0,6,6,23,f,1,0.833107792017,03,03,60.0179950873,PLT_learning_3,B,2014_Feb_19_1627,P05,
stim_fb/ques.jpg,stim_fb/negf.jpg,stim_fb/posf.jpg,stim_03/d.jpg,stim_03/c.jpg,1,2,f,0,7,7,24,f,1,0.583175973203,03,03,60.0179950873,PLT_learning_3,B,2014_Feb_19_1627,P05,
stim_fb/ques.jpg,stim_fb/negf.jpg,stim_fb/posf.jpg,stim_03/c.jpg,stim_03/d.jpg,2,2,j,0,8,8,33,j,1,0.7997748266,03,03,60.0179950873,PLT_learning_3,B,2014_Feb_19_1627,P05,
stim_fb/ques.jpg,stim_fb/negf.jpg,stim_fb/posf.jpg,stim_03/f.jpg,stim_03/e.jpg,1,3,f,0,9,9,43,f,1,0.849771706334,03,03,60.0179950873,PLT_learning_3,B,2014_Feb_19_1627,P05,
stim_fb/ques.jpg,stim_fb/negf.jpg,stim_fb/posf.jpg,stim_03/a.jpg,stim_03/b.jpg,2,1,j,0,10,10,16,f,0,0.99971858964,03,03,60.0179950873,PLT_learning_3,B,2014_Feb_19_1627,P05,
stim_fb/ques.jpg,stim_fb/negf.jpg,stim_fb/posf.jpg,stim_03/c.jpg,stim_03/d.jpg,2,2,j,0,11,11,32,j,1,0.88310846419,03,03,60.0179950873,PLT_learning_3,B,2014_Feb_19_1627,P05,
stim_fb/ques.jpg,stim_fb/posf.jpg,stim_fb/negf.jpg,stim_03/a.jpg,stim_03/b.jpg,2,1,j,0,12,12,19,j,1,1.11633149701,03,03,60.0179950873,PLT_learning_3,B,2014_Feb_19_1627,P05,
stim_fb/ques.jpg,stim_fb/posf.jpg,stim_fb/negf.jpg,stim_03/e.jpg,stim_03/f.jpg,2,3,j,0,13,13,56,j,1,0.799779256625,03,03,60.0179950873,PLT_learning_3,B,2014_Feb_19_1627,P05,
stim_fb/ques.jpg,stim_fb/negf.jpg,stim_fb/posf.jpg,stim_03/a.jpg,stim_03/b.jpg,2,1,j,0,14,14,14,j,1,0.899757912505,03,03,60.0179950873,PLT_learning_3,B,2014_Feb_19_1627,P05,
stim_fb/ques.jpg,stim_fb/negf.jpg,stim_fb/posf.jpg,stim_03/b.jpg,stim_03/a.jpg,1,1,f,0,15,15,7,f,1,1.04969558388,03,03,60.0179950873,PLT_learning_3,B,2014_Feb_19_1627,P05,
stim_fb/ques.jpg,stim_fb/posf.jpg,stim_fb/negf.jpg,stim_03/b.jpg,stim_03/a.jpg,1,1,f,0,16,16,9,f,1,0.516500072556,03,03,60.0179950873,PLT_learning_3,B,2014_Feb_19_1627,P05,
stim_fb/ques.jpg,stim_fb/posf.jpg,stim_fb/negf.jpg,stim_03/f.jpg,stim_03/e.jpg,1,3,f,0,17,17,49,f,1,0.783129546659,03,03,60.0179950873,PLT_learning_3,B,2014_Feb_19_1627,P05,
stim_fb/ques.jpg,stim_fb/posf.jpg,stim_fb/negf.jpg,stim_03/c.jpg,stim_03/d.jpg,2,2,j,0,18,18,38,j,1,0.833091130551,03,03,60.0179950873,PLT_learning_3,B,2014_Feb_19_1627,P05,
stim_fb/ques.jpg,stim_fb/negf.jpg,stim_fb/posf.jpg,stim_03/b.jpg,stim_03/a.jpg,1,1,f,0,19,19,4,f,1,1.24963554246,03,03,60.0179950873,PLT_learning_3,B,2014_Feb_19_1627,P05,
stim_fb/ques.jpg,stim_fb/negf.jpg,stim_fb/posf.jpg,stim_03/c.jpg,stim_03/d.jpg,2,2,j,0,20,20,31,j,1,0.766482778014,03,03,60.0179950873,PLT_learning_3,B,2014_Feb_19_1627,P05,
stim_fb/ques.jpg,stim_fb/negf.jpg,stim_fb/posf.jpg,stim_03/d.jpg,stim_03/c.jpg,1,2,f,0,21,21,21,f,1,0.816445724296,03,03,60.0179950873,PLT_learning_3,B,2014_Feb_19_1627,P05,
stim_fb/ques.jpg,stim_fb/negf.jpg,stim_fb/posf.jpg,stim_03/e.jpg,stim_03/f.jpg,2,3,j,0,22,22,52,j,1,0.716452509182,03,03,60.0179950873,PLT_learning_3,B,2014_Feb_19_1627,P05,
stim_fb/ques.jpg,stim_fb/posf.jpg,stim_fb/negf.jpg,stim_03/e.jpg,stim_03/f.jpg,2,3,j,0,23,23,58,j,1,0.633193923377,03,03,60.0179950873,PLT_learning_3,B,2014_Feb_19_1627,P05,
stim_fb/ques.jpg,stim_fb/negf.jpg,stim_fb/posf.jpg,stim_03/b.jpg,stim_03/a.jpg,1,1,f,0,24,24,2,f,1,1.13300079172,03,03,60.0179950873,PLT_learning_3,B,2014_Feb_19_1627,P05,
stim_fb/ques.jpg,stim_fb/negf.jpg,stim_fb/posf.jpg,stim_03/d.jpg,stim_03/c.jpg,1,2,f,0,25,25,22,f,1,0.666524530926,03,03,60.0179950873,PLT_learning_3,B,2014_Feb_19_1627,P05,
stim_fb/ques.jpg,stim_fb/negf.jpg,stim_fb/posf.jpg,stim_03/d.jpg,stim_03/c.jpg,1,2,f,0,26,26,25,f,1,0.966369269519,03,03,60.0179950873,PLT_learning_3,B,2014_Feb_19_1627,P05,
stim_fb/ques.jpg,stim_fb/negf.jpg,stim_fb/posf.jpg,stim_03/c.jpg,stim_03/d.jpg,2,2,j,0,27,27,30,j,1,0.799783115228,03,03,60.0179950873,PLT_learning_3,B,2014_Feb_19_1627,P05,
stim_fb/ques.jpg,stim_fb/posf.jpg,stim_fb/negf.jpg,stim_03/f.jpg,stim_03/e.jpg,1,3,f,0,28,28,48,f,1,0.549864700774,03,03,60.0179950873,PLT_learning_3,B,2014_Feb_19_1627,P05,
stim_fb/ques.jpg,stim_fb/negf.jpg,stim_fb/posf.jpg,stim_03/e.jpg,stim_03/f.jpg,2,3,j,0,29,29,54,j,1,0.766500768788,03,03,60.0179950873,PLT_learning_3,B,2014_Feb_19_1627,P05,
stim_fb/ques.jpg,stim_fb/negf.jpg,stim_fb/posf.jpg,stim_03/f.jpg,stim_03/e.jpg,1,3,f,0,30,30,40,f,1,0.48321895317,03,03,60.0179950873,PLT_learning_3,B,2014_Feb_19_1627,P05,
stim_fb/ques.jpg,stim_fb/negf.jpg,stim_fb/posf.jpg,stim_03/b.jpg,stim_03/a.jpg,1,1,f,0,31,31,6,f,1,0.599725648207,03,03,60.0179950873,PLT_learning_3,B,2014_Feb_19_1627,P05,
stim_fb/ques.jpg,stim_fb/posf.jpg,stim_fb/negf.jpg,stim_03/e.jpg,stim_03/f.jpg,2,3,j,0,32,32,57,j,1,0.666500561272,03,03,60.0179950873,PLT_learning_3,B,2014_Feb_19_1627,P05,
stim_fb/ques.jpg,stim_fb/negf.jpg,stim_fb/posf.jpg,stim_03/a.jpg,stim_03/b.jpg,2,1,j,0,33,33,11,j,1,0.96639055349,03,03,60.0179950873,PLT_learning_3,B,2014_Feb_19_1627,P05,
stim_fb/ques.jpg,stim_fb/posf.jpg,stim_fb/negf.jpg,stim_03/f.jpg,stim_03/e.jpg,1,3,f,0,34,34,46,f,1,0.666488074195,03,03,60.0179950873,PLT_learning_3,B,2014_Feb_19_1627,P05,
stim_fb/ques.jpg,stim_fb/posf.jpg,stim_fb/negf.jpg,stim_03/a.jpg,stim_03/b.jpg,2,1,j,0,35,35,18,j,1,0.699785325729,03,03,60.0179950873,PLT_learning_3,B,2014_Feb_19_1627,P05,
stim_fb/ques.jpg,stim_fb/negf.jpg,stim_fb/posf.jpg,stim_03/a.jpg,stim_03/b.jpg,2,1,j,0,36,36,13,j,1,0.749804490927,03,03,60.0179950873,PLT_learning_3,B,2014_Feb_19_1627,P05,
stim_fb/ques.jpg,stim_fb/posf.jpg,stim_fb/negf.jpg,stim_03/d.jpg,stim_03/c.jpg,1,2,f,0,37,37,29,f,1,0.783115625012,03,03,60.0179950873,PLT_learning_3,B,2014_Feb_19_1627,P05,
stim_fb/ques.jpg,stim_fb/negf.jpg,stim_fb/posf.jpg,stim_03/a.jpg,stim_03/b.jpg,2,1,j,0,38,38,10,j,1,0.883088771179,03,03,60.0179950873,PLT_learning_3,B,2014_Feb_19_1627,P05,
stim_fb/ques.jpg,stim_fb/negf.jpg,stim_fb/posf.jpg,stim_03/e.jpg,stim_03/f.jpg,2,3,j,0,39,39,55,j,1,0.649823438082,03,03,60.0179950873,PLT_learning_3,B,2014_Feb_19_1627,P05,
stim_fb/ques.jpg,stim_fb/posf.jpg,stim_fb/negf.jpg,stim_03/e.jpg,stim_03/f.jpg,2,3,j,0,40,40,59,j,1,0.666483716349,03,03,60.0179950873,PLT_learning_3,B,2014_Feb_19_1627,P05,
stim_fb/ques.jpg,stim_fb/negf.jpg,stim_fb/posf.jpg,stim_03/a.jpg,stim_03/b.jpg,2,1,j,0,41,41,15,j,1,0.716458331673,03,03,60.0179950873,PLT_learning_3,B,2014_Feb_19_1627,P05,
stim_fb/ques.jpg,stim_fb/negf.jpg,stim_fb/posf.jpg,stim_03/a.jpg,stim_03/b.jpg,2,1,j,0,42,42,12,j,1,0.749803823265,03,03,60.0179950873,PLT_learning_3,B,2014_Feb_19_1627,P05,
stim_fb/ques.jpg,stim_fb/negf.jpg,stim_fb/posf.jpg,stim_03/f.jpg,stim_03/e.jpg,1,3,f,0,43,43,44,f,1,0.59981747875,03,03,60.0179950873,PLT_learning_3,B,2014_Feb_19_1627,P05,
stim_fb/ques.jpg,stim_fb/negf.jpg,stim_fb/posf.jpg,stim_03/f.jpg,stim_03/e.jpg,1,3,f,0,44,44,42,f,1,0.599846973154,03,03,60.0179950873,PLT_learning_3,B,2014_Feb_19_1627,P05,
stim_fb/ques.jpg,stim_fb/posf.jpg,stim_fb/negf.jpg,stim_03/d.jpg,stim_03/c.jpg,1,2,f,0,45,45,27,j,0,1.08301405924,03,03,60.0179950873,PLT_learning_3,B,2014_Feb_19_1627,P05,
stim_fb/ques.jpg,stim_fb/negf.jpg,stim_fb/posf.jpg,stim_03/b.jpg,stim_03/a.jpg,1,1,f,0,46,46,3,f,1,0.916419038883,03,03,60.0179950873,PLT_learning_3,B,2014_Feb_19_1627,P05,
stim_fb/ques.jpg,stim_fb/negf.jpg,stim_fb/posf.jpg,stim_03/b.jpg,stim_03/a.jpg,1,1,f,0,47,47,5,f,1,1.08301213746,03,03,60.0179950873,PLT_learning_3,B,2014_Feb_19_1627,P05,
stim_fb/ques.jpg,stim_fb/negf.jpg,stim_fb/posf.jpg,stim_03/f.jpg,stim_03/e.jpg,1,3,f,0,48,48,41,f,1,0.6831439074,03,03,60.0179950873,PLT_learning_3,B,2014_Feb_19_1627,P05,
stim_fb/ques.jpg,stim_fb/negf.jpg,stim_fb/posf.jpg,stim_03/e.jpg,stim_03/f.jpg,2,3,j,0,49,49,50,j,1,0.716324411379,03,03,60.0179950873,PLT_learning_3,B,2014_Feb_19_1627,P05,
stim_fb/ques.jpg,stim_fb/negf.jpg,stim_fb/posf.jpg,stim_03/d.jpg,stim_03/c.jpg,1,2,f,0,50,50,26,f,1,0.61650758826,03,03,60.0179950873,PLT_learning_3,B,2014_Feb_19_1627,P05,
stim_fb/ques.jpg,stim_fb/posf.jpg,stim_fb/negf.jpg,stim_03/d.jpg,stim_03/c.jpg,1,2,f,0,51,51,28,f,1,0.566506215343,03,03,60.0179950873,PLT_learning_3,B,2014_Feb_19_1627,P05,
stim_fb/ques.jpg,stim_fb/posf.jpg,stim_fb/negf.jpg,stim_03/f.jpg,stim_03/e.jpg,1,3,f,0,52,52,47,f,1,0.53318425732,03,03,60.0179950873,PLT_learning_3,B,2014_Feb_19_1627,P05,
stim_fb/ques.jpg,stim_fb/negf.jpg,stim_fb/posf.jpg,stim_03/a.jpg,stim_03/b.jpg,2,1,j,0,53,53,17,j,1,0.866430489882,03,03,60.0179950873,PLT_learning_3,B,2014_Feb_19_1627,P05,
stim_fb/ques.jpg,stim_fb/negf.jpg,stim_fb/posf.jpg,stim_03/e.jpg,stim_03/f.jpg,2,3,j,0,54,54,51,j,1,0.816437841678,03,03,60.0179950873,PLT_learning_3,B,2014_Feb_19_1627,P05,
stim_fb/ques.jpg,stim_fb/negf.jpg,stim_fb/posf.jpg,stim_03/f.jpg,stim_03/e.jpg,1,3,f,0,55,55,45,f,1,0.599834308636,03,03,60.0179950873,PLT_learning_3,B,2014_Feb_19_1627,P05,
stim_fb/ques.jpg,stim_fb/posf.jpg,stim_fb/negf.jpg,stim_03/c.jpg,stim_03/d.jpg,2,2,j,0,56,56,37,j,1,0.816401875167,03,03,60.0179950873,PLT_learning_3,B,2014_Feb_19_1627,P05,
stim_fb/ques.jpg,stim_fb/negf.jpg,stim_fb/posf.jpg,stim_03/b.jpg,stim_03/a.jpg,1,1,f,0,57,57,1,f,1,0.94973276542,03,03,60.0179950873,PLT_learning_3,B,2014_Feb_19_1627,P05,
stim_fb/ques.jpg,stim_fb/posf.jpg,stim_fb/negf.jpg,stim_03/b.jpg,stim_03/a.jpg,1,1,f,0,58,58,8,f,1,0.649850767097,03,03,60.0179950873,PLT_learning_3,B,2014_Feb_19_1627,P05,
stim_fb/ques.jpg,stim_fb/negf.jpg,stim_fb/posf.jpg,stim_03/b.jpg,stim_03/a.jpg,1,1,f,0,59,59,0,f,1,0.566503860483,03,03,60.0179950873,PLT_learning_3,B,2014_Feb_19_1627,P05,
stim_fb/ques.jpg,stim_fb/negf.jpg,stim_fb/posf.jpg,stim_03/e.jpg,stim_03/f.jpg,2,3,j,1,0,60,53,j,1,0.733158576407,03,03,60.0179950873,PLT_learning_3,B,2014_Feb_19_1627,P05,
stim_fb/ques.jpg,stim_fb/negf.jpg,stim_fb/posf.jpg,stim_03/b.jpg,stim_03/a.jpg,1,1,f,1,1,61,7,f,1,0.599842365688,03,03,60.0179950873,PLT_learning_3,B,2014_Feb_19_1627,P05,
stim_fb/ques.jpg,stim_fb/negf.jpg,stim_fb/posf.jpg,stim_03/b.jpg,stim_03/a.jpg,1,1,f,1,2,62,0,f,1,0.599849177641,03,03,60.0179950873,PLT_learning_3,B,2014_Feb_19_1627,P05,
stim_fb/ques.jpg,stim_fb/negf.jpg,stim_fb/posf.jpg,stim_03/b.jpg,stim_03/a.jpg,1,1,f,1,3,63,3,f,1,0.566521565546,03,03,60.0179950873,PLT_learning_3,B,2014_Feb_19_1627,P05,
stim_fb/ques.jpg,stim_fb/negf.jpg,stim_fb/posf.jpg,stim_03/d.jpg,stim_03/c.jpg,1,2,f,1,4,64,25,f,1,0.766461900054,03,03,60.0179950873,PLT_learning_3,B,2014_Feb_19_1627,P05,
stim_fb/ques.jpg,stim_fb/posf.jpg,stim_fb/negf.jpg,stim_03/d.jpg,stim_03/c.jpg,1,2,f,1,5,65,28,f,1,0.566533354887,03,03,60.0179950873,PLT_learning_3,B,2014_Feb_19_1627,P05,
stim_fb/ques.jpg,stim_fb/posf.jpg,stim_fb/negf.jpg,stim_03/c.jpg,stim_03/d.jpg,2,2,j,1,6,66,39,j,1,0.849732187983,03,03,60.0179950873,PLT_learning_3,B,2014_Feb_19_1627,P05,
stim_fb/ques.jpg,stim_fb/posf.jpg,stim_fb/negf.jpg,stim_03/e.jpg,stim_03/f.jpg,2,3,j,1,7,67,56,j,1,1.1663349872,03,03,60.0179950873,PLT_learning_3,B,2014_Feb_19_1627,P05,
stim_fb/ques.jpg,stim_fb/posf.jpg,stim_fb/negf.jpg,stim_03/b.jpg,stim_03/a.jpg,1,1,f,1,8,68,9,f,1,0.533133006771,03,03,60.0179950873,PLT_learning_3,B,2014_Feb_19_1627,P05,
stim_fb/ques.jpg,stim_fb/negf.jpg,stim_fb/posf.jpg,stim_03/f.jpg,stim_03/e.jpg,1,3,f,1,9,69,42,f,1,0.749898071826,03,03,60.0179950873,PLT_learning_3,B,2014_Feb_19_1627,P05,
stim_fb/ques.jpg,stim_fb/posf.jpg,stim_fb/negf.jpg,stim_03/f.jpg,stim_03/e.jpg,1,3,f,1,10,70,49,f,1,0.566562653805,03,03,60.0179950873,PLT_learning_3,B,2014_Feb_19_1627,P05,
stim_fb/ques.jpg,stim_fb/posf.jpg,stim_fb/negf.jpg,stim_03/f.jpg,stim_03/e.jpg,1,3,f,1,11,71,48,f,1,0.649874060067,03,03,60.0179950873,PLT_learning_3,B,2014_Feb_19_1627,P05,
stim_fb/ques.jpg,stim_fb/negf.jpg,stim_fb/posf.jpg,stim_03/d.jpg,stim_03/c.jpg,1,2,f,1,12,72,23,f,1,0.699849649816,03,03,60.0179950873,PLT_learning_3,B,2014_Feb_19_1627,P05,
stim_fb/ques.jpg,stim_fb/negf.jpg,stim_fb/posf.jpg,stim_03/c.jpg,stim_03/d.jpg,2,2,j,1,13,73,31,j,1,0.766439572486,03,03,60.0179950873,PLT_learning_3,B,2014_Feb_19_1627,P05,
stim_fb/ques.jpg,stim_fb/negf.jpg,stim_fb/posf.jpg,stim_03/e.jpg,stim_03/f.jpg,2,3,j,1,14,74,55,j,1,0.699787972316,03,03,60.0179950873,PLT_learning_3,B,2014_Feb_19_1627,P05,
stim_fb/ques.jpg,stim_fb/negf.jpg,stim_fb/posf.jpg,stim_03/a.jpg,stim_03/b.jpg,2,1,j,1,15,75,17,j,1,1.0996949087,03,03,60.0179950873,PLT_learning_3,B,2014_Feb_19_1627,P05,
stim_fb/ques.jpg,stim_fb/posf.jpg,stim_fb/negf.jpg,stim_03/e.jpg,stim_03/f.jpg,2,3,j,1,16,76,58,j,1,0.749799964662,03,03,60.0179950873,PLT_learning_3,B,2014_Feb_19_1627,P05,
stim_fb/ques.jpg,stim_fb/negf.jpg,stim_fb/posf.jpg,stim_03/d.jpg,stim_03/c.jpg,1,2,f,1,17,77,24,f,1,0.733148251712,03,03,60.0179950873,PLT_learning_3,B,2014_Feb_19_1627,P05,
stim_fb/ques.jpg,stim_fb/negf.jpg,stim_fb/posf.jpg,stim_03/a.jpg,stim_03/b.jpg,2,1,j,1,18,78,16,j,1,0.949716290418,03,03,60.0179950873,PLT_learning_3,B,2014_Feb_19_1627,P05,
stim_fb/ques.jpg,stim_fb/negf.jpg,stim_fb/posf.jpg,stim_03/f.jpg,stim_03/e.jpg,1,3,f,1,19,79,44,f,1,0.716495871099,03,03,60.0179950873,PLT_learning_3,B,2014_Feb_19_1627,P05,
stim_fb/ques.jpg,stim_fb/negf.jpg,stim_fb/posf.jpg,stim_03/b.jpg,stim_03/a.jpg,1,1,f,1,20,80,6,f,1,0.583174466453,03,03,60.0179950873,PLT_learning_3,B,2014_Feb_19_1627,P05,
stim_fb/ques.jpg,stim_fb/negf.jpg,stim_fb/posf.jpg,stim_03/a.jpg,stim_03/b.jpg,2,1,j,1,21,81,13,j,1,1.09973348872,03,03,60.0179950873,PLT_learning_3,B,2014_Feb_19_1627,P05,
stim_fb/ques.jpg,stim_fb/negf.jpg,stim_fb/posf.jpg,stim_03/f.jpg,stim_03/e.jpg,1,3,f,1,22,82,40,f,1,0.916425222272,03,03,60.0179950873,PLT_learning_3,B,2014_Feb_19_1627,P05,
stim_fb/ques.jpg,stim_fb/posf.jpg,stim_fb/negf.jpg,stim_03/c.jpg,stim_03/d.jpg,2,2,j,1,23,83,37,j,1,0.849686904283,03,03,60.0179950873,PLT_learning_3,B,2014_Feb_19_1627,P05,
stim_fb/ques.jpg,stim_fb/negf.jpg,stim_fb/posf.jpg,stim_03/c.jpg,stim_03/d.jpg,2,2,j,1,24,84,32,j,1,0.783076575828,03,03,60.0179950873,PLT_learning_3,B,2014_Feb_19_1627,P05,
stim_fb/ques.jpg,stim_fb/negf.jpg,stim_fb/posf.jpg,stim_03/d.jpg,stim_03/c.jpg,1,2,f,1,25,85,21,f,1,0.733147743447,03,03,60.0179950873,PLT_learning_3,B,2014_Feb_19_1627,P05,
stim_fb/ques.jpg,stim_fb/posf.jpg,stim_fb/negf.jpg,stim_03/e.jpg,stim_03/f.jpg,2,3,j,1,26,86,59,j,1,0.766478826179,03,03,60.0179950873,PLT_learning_3,B,2014_Feb_19_1627,P05,
stim_fb/ques.jpg,stim_fb/negf.jpg,stim_fb/posf.jpg,stim_03/a.jpg,stim_03/b.jpg,2,1,j,1,27,87,11,j,1,0.999698021451,03,03,60.0179950873,PLT_learning_3,B,2014_Feb_19_1627,P05,
stim_fb/ques.jpg,stim_fb/negf.jpg,stim_fb/posf.jpg,stim_03/e.jpg,stim_03/f.jpg,2,3,j,1,28,88,51,j,1,0.983034290591,03,03,60.0179950873,PLT_learning_3,B,2014_Feb_19_1627,P05,
stim_fb/ques.jpg,stim_fb/negf.jpg,stim_fb/posf.jpg,stim_03/f.jpg,stim_03/e.jpg,1,3,f,1,29,89,43,f,1,0.716334104503,03,03,60.0179950873,PLT_learning_3,B,2014_Feb_19_1627,P05,
stim_fb/ques.jpg,stim_fb/negf.jpg,stim_fb/posf.jpg,stim_03/b.jpg,stim_03/a.jpg,1,1,f,1,30,90,1,f,1,1.14966875712,03,03,60.0179950873,PLT_learning_3,B,2014_Feb_19_1627,P05,
stim_fb/ques.jpg,stim_fb/negf.jpg,stim_fb/posf.jpg,stim_03/b.jpg,stim_03/a.jpg,1,1,f,1,31,91,2,f,1,0.916418750164,03,03,60.0179950873,PLT_learning_3,B,2014_Feb_19_1627,P05,
stim_fb/ques.jpg,stim_fb/negf.jpg,stim_fb/posf.jpg,stim_03/a.jpg,stim_03/b.jpg,2,1,j,1,32,92,15,j,1,0.999717834761,03,03,60.0179950873,PLT_learning_3,B,2014_Feb_19_1627,P05,
stim_fb/ques.jpg,stim_fb/posf.jpg,stim_fb/negf.jpg,stim_03/f.jpg,stim_03/e.jpg,1,3,f,1,33,93,47,f,1,1.06640549768,03,03,60.0179950873,PLT_learning_3,B,2014_Feb_19_1627,P05,
stim_fb/ques.jpg,stim_fb/posf.jpg,stim_fb/negf.jpg,stim_03/b.jpg,stim_03/a.jpg,1,1,f,1,34,94,8,f,1,1.11631411676,03,03,60.0179950873,PLT_learning_3,B,2014_Feb_19_1627,P05,
stim_fb/ques.jpg,stim_fb/negf.jpg,stim_fb/posf.jpg,stim_03/b.jpg,stim_03/a.jpg,1,1,f,1,35,95,4,f,1,0.983054741488,03,03,60.0179950873,PLT_learning_3,B,2014_Feb_19_1627,P05,
stim_fb/ques.jpg,stim_fb/negf.jpg,stim_fb/posf.jpg,stim_03/e.jpg,stim_03/f.jpg,2,3,j,1,36,96,50,j,1,0.89973650222,03,03,60.0179950873,PLT_learning_3,B,2014_Feb_19_1627,P05,
stim_fb/ques.jpg,stim_fb/negf.jpg,stim_fb/posf.jpg,stim_03/e.jpg,stim_03/f.jpg,2,3,j,1,37,97,54,j,1,0.866413344211,03,03,60.0179950873,PLT_learning_3,B,2014_Feb_19_1627,P05,
stim_fb/ques.jpg,stim_fb/negf.jpg,stim_fb/posf.jpg,stim_03/d.jpg,stim_03/c.jpg,1,2,f,1,38,98,26,f,1,0.733195872227,03,03,60.0179950873,PLT_learning_3,B,2014_Feb_19_1627,P05,
stim_fb/ques.jpg,stim_fb/negf.jpg,stim_fb/posf.jpg,stim_03/c.jpg,stim_03/d.jpg,2,2,j,1,39,99,35,j,1,0.899746216396,03,03,60.0179950873,PLT_learning_3,B,2014_Feb_19_1627,P05,
stim_fb/ques.jpg,stim_fb/negf.jpg,stim_fb/posf.jpg,stim_03/c.jpg,stim_03/d.jpg,2,2,j,1,40,100,36,j,1,0.949795940647,03,03,60.0179950873,PLT_learning_3,B,2014_Feb_19_1627,P05,
stim_fb/ques.jpg,stim_fb/negf.jpg,stim_fb/posf.jpg,stim_03/a.jpg,stim_03/b.jpg,2,1,j,1,41,101,14,j,1,0.866407636004,03,03,60.0179950873,PLT_learning_3,B,2014_Feb_19_1627,P05,
stim_fb/ques.jpg,stim_fb/posf.jpg,stim_fb/negf.jpg,stim_03/d.jpg,stim_03/c.jpg,1,2,f,1,42,102,29,f,1,0.649873404435,03,03,60.0179950873,PLT_learning_3,B,2014_Feb_19_1627,P05,
stim_fb/ques.jpg,stim_fb/negf.jpg,stim_fb/posf.jpg,stim_03/d.jpg,stim_03/c.jpg,1,2,f,1,43,103,20,f,1,1.14964768367,03,03,60.0179950873,PLT_learning_3,B,2014_Feb_19_1627,P05,
stim_fb/ques.jpg,stim_fb/posf.jpg,stim_fb/negf.jpg,stim_03/e.jpg,stim_03/f.jpg,2,3,j,1,44,104,57,j,1,1.41625186182,03,03,60.0179950873,PLT_learning_3,B,2014_Feb_19_1627,P05,
stim_fb/ques.jpg,stim_fb/negf.jpg,stim_fb/posf.jpg,stim_03/f.jpg,stim_03/e.jpg,1,3,f,1,45,105,41,f,1,0.633163508682,03,03,60.0179950873,PLT_learning_3,B,2014_Feb_19_1627,P05,
stim_fb/ques.jpg,stim_fb/posf.jpg,stim_fb/negf.jpg,stim_03/a.jpg,stim_03/b.jpg,2,1,j,1,46,106,19,j,1,1.08301944264,03,03,60.0179950873,PLT_learning_3,B,2014_Feb_19_1627,P05,
stim_fb/ques.jpg,stim_fb/negf.jpg,stim_fb/posf.jpg,stim_03/e.jpg,stim_03/f.jpg,2,3,j,1,47,107,52,j,1,0.999725705349,03,03,60.0179950873,PLT_learning_3,B,2014_Feb_19_1627,P05,
stim_fb/ques.jpg,stim_fb/negf.jpg,stim_fb/posf.jpg,stim_03/c.jpg,stim_03/d.jpg,2,2,j,1,48,108,34,j,1,0.849804451829,03,03,60.0179950873,PLT_learning_3,B,2014_Feb_19_1627,P05,
stim_fb/ques.jpg,stim_fb/posf.jpg,stim_fb/negf.jpg,stim_03/c.jpg,stim_03/d.jpg,2,2,j,1,49,109,38,j,1,0.816416533648,03,03,60.0179950873,PLT_learning_3,B,2014_Feb_19_1627,P05,
stim_fb/ques.jpg,stim_fb/posf.jpg,stim_fb/negf.jpg,stim_03/d.jpg,stim_03/c.jpg,1,2,f,1,50,110,27,f,1,0.616504099578,03,03,60.0179950873,PLT_learning_3,B,2014_Feb_19_1627,P05,
stim_fb/ques.jpg,stim_fb/negf.jpg,stim_fb/posf.jpg,stim_03/a.jpg,stim_03/b.jpg,2,1,j,1,51,111,10,j,1,0.866427807205,03,03,60.0179950873,PLT_learning_3,B,2014_Feb_19_1627,P05,
stim_fb/ques.jpg,stim_fb/negf.jpg,stim_fb/posf.jpg,stim_03/a.jpg,stim_03/b.jpg,2,1,j,1,52,112,12,j,1,0.649833657515,03,03,60.0179950873,PLT_learning_3,B,2014_Feb_19_1627,P05,
stim_fb/ques.jpg,stim_fb/negf.jpg,stim_fb/posf.jpg,stim_03/f.jpg,stim_03/e.jpg,1,3,f,1,53,113,45,f,1,0.749794942162,03,03,60.0179950873,PLT_learning_3,B,2014_Feb_19_1627,P05,
stim_fb/ques.jpg,stim_fb/posf.jpg,stim_fb/negf.jpg,stim_03/a.jpg,stim_03/b.jpg,2,1,j,1,54,114,18,j,1,0.766444092736,03,03,60.0179950873,PLT_learning_3,B,2014_Feb_19_1627,P05,
stim_fb/ques.jpg,stim_fb/negf.jpg,stim_fb/posf.jpg,stim_03/b.jpg,stim_03/a.jpg,1,1,f,1,55,115,5,f,1,1.01637631455,03,03,60.0179950873,PLT_learning_3,B,2014_Feb_19_1627,P05,
stim_fb/ques.jpg,stim_fb/posf.jpg,stim_fb/negf.jpg,stim_03/f.jpg,stim_03/e.jpg,1,3,f,1,56,116,46,f,1,0.599860906832,03,03,60.0179950873,PLT_learning_3,B,2014_Feb_19_1627,P05,
stim_fb/ques.jpg,stim_fb/negf.jpg,stim_fb/posf.jpg,stim_03/c.jpg,stim_03/d.jpg,2,2,j,1,57,117,33,j,1,0.749784620474,03,03,60.0179950873,PLT_learning_3,B,2014_Feb_19_1627,P05,
stim_fb/ques.jpg,stim_fb/negf.jpg,stim_fb/posf.jpg,stim_03/d.jpg,stim_03/c.jpg,1,2,f,1,58,118,22,f,1,0.61650818675,03,03,60.0179950873,PLT_learning_3,B,2014_Feb_19_1627,P05,
stim_fb/ques.jpg,stim_fb/negf.jpg,stim_fb/posf.jpg,stim_03/c.jpg,stim_03/d.jpg,2,2,j,1,59,119,30,j,1,0.683161471111,03,03,60.0179950873,PLT_learning_3,B,2014_Feb_19_1627,P05,
stim_fb/ques.jpg,stim_fb/negf.jpg,stim_fb/posf.jpg,stim_03/d.jpg,stim_03/c.jpg,1,2,f,2,0,120,21,f,1,0.649812767525,03,03,60.0179950873,PLT_learning_3,B,2014_Feb_19_1627,P05,
stim_fb/ques.jpg,stim_fb/negf.jpg,stim_fb/posf.jpg,stim_03/b.jpg,stim_03/a.jpg,1,1,f,2,1,121,0,f,1,0.799777007026,03,03,60.0179950873,PLT_learning_3,B,2014_Feb_19_1627,P05,
stim_fb/ques.jpg,stim_fb/negf.jpg,stim_fb/posf.jpg,stim_03/e.jpg,stim_03/f.jpg,2,3,j,2,2,122,53,j,1,0.649842884479,03,03,60.0179950873,PLT_learning_3,B,2014_Feb_19_1627,P05,
stim_fb/ques.jpg,stim_fb/posf.jpg,stim_fb/negf.jpg,stim_03/f.jpg,stim_03/e.jpg,1,3,f,2,3,123,47,f,1,0.499887477961,03,03,60.0179950873,PLT_learning_3,B,2014_Feb_19_1627,P05,
stim_fb/ques.jpg,stim_fb/posf.jpg,stim_fb/negf.jpg,stim_03/c.jpg,stim_03/d.jpg,2,2,j,2,4,124,38,j,1,0.749843293497,03,03,60.0179950873,PLT_learning_3,B,2014_Feb_19_1627,P05,
stim_fb/ques.jpg,stim_fb/negf.jpg,stim_fb/posf.jpg,stim_03/d.jpg,stim_03/c.jpg,1,2,f,2,5,125,22,f,1,0.483230733488,03,03,60.0179950873,PLT_learning_3,B,2014_Feb_19_1627,P05,
stim_fb/ques.jpg,stim_fb/negf.jpg,stim_fb/posf.jpg,stim_03/e.jpg,stim_03/f.jpg,2,3,j,2,6,126,50,j,1,0.516550270486,03,03,60.0179950873,PLT_learning_3,B,2014_Feb_19_1627,P05,
stim_fb/ques.jpg,stim_fb/negf.jpg,stim_fb/posf.jpg,stim_03/a.jpg,stim_03/b.jpg,2,1,j,2,7,127,14,f,0,0.633161271114,03,03,60.0179950873,PLT_learning_3,B,2014_Feb_19_1627,P05,
stim_fb/ques.jpg,stim_fb/negf.jpg,stim_fb/posf.jpg,stim_03/e.jpg,stim_03/f.jpg,2,3,j,2,8,128,51,j,1,0.683189269294,03,03,60.0179950873,PLT_learning_3,B,2014_Feb_19_1627,P05,
stim_fb/ques.jpg,stim_fb/negf.jpg,stim_fb/posf.jpg,stim_03/f.jpg,stim_03/e.jpg,1,3,f,2,9,129,40,f,1,0.833081010364,03,03,60.0179950873,PLT_learning_3,B,2014_Feb_19_1627,P05,
stim_fb/ques.jpg,stim_fb/negf.jpg,stim_fb/posf.jpg,stim_03/c.jpg,stim_03/d.jpg,2,2,j,2,10,130,34,j,1,0.799977305519,03,03,60.0179950873,PLT_learning_3,B,2014_Feb_19_1627,P05,
stim_fb/ques.jpg,stim_fb/negf.jpg,stim_fb/posf.jpg,stim_03/a.jpg,stim_03/b.jpg,2,1,j,2,11,131,13,f,0,0.583168505618,03,03,60.0179950873,PLT_learning_3,B,2014_Feb_19_1627,P05,
stim_fb/ques.jpg,stim_fb/negf.jpg,stim_fb/posf.jpg,stim_03/f.jpg,stim_03/e.jpg,1,3,f,2,12,132,41,j,0,0.733130793262,03,03,60.0179950873,PLT_learning_3,B,2014_Feb_19_1627,P05,
stim_fb/ques.jpg,stim_fb/negf.jpg,stim_fb/posf.jpg,stim_03/c.jpg,stim_03/d.jpg,2,2,j,2,13,133,32,j,1,0.999716496431,03,03,60.0179950873,PLT_learning_3,B,2014_Feb_19_1627,P05,
stim_fb/ques.jpg,stim_fb/negf.jpg,stim_fb/posf.jpg,stim_03/f.jpg,stim_03/e.jpg,1,3,f,2,14,134,44,f,1,0.933076799886,03,03,60.0179950873,PLT_learning_3,B,2014_Feb_19_1627,P05,
stim_fb/ques.jpg,stim_fb/negf.jpg,stim_fb/posf.jpg,stim_03/c.jpg,stim_03/d.jpg,2,2,j,2,15,135,33,j,1,0.783136845825,03,03,60.0179950873,PLT_learning_3,B,2014_Feb_19_1627,P05,
stim_fb/ques.jpg,stim_fb/posf.jpg,stim_fb/negf.jpg,stim_03/a.jpg,stim_03/b.jpg,2,1,j,2,16,136,18,j,1,1.29965046109,03,03,60.0179950873,PLT_learning_3,B,2014_Feb_19_1627,P05,
stim_fb/ques.jpg,stim_fb/posf.jpg,stim_fb/negf.jpg,stim_03/f.jpg,stim_03/e.jpg,1,3,f,2,17,137,46,f,1,0.999726030157,03,03,60.0179950873,PLT_learning_3,B,2014_Feb_19_1627,P05,
stim_fb/ques.jpg,stim_fb/negf.jpg,stim_fb/posf.jpg,stim_03/a.jpg,stim_03/b.jpg,2,1,j,2,18,138,17,j,1,0.899694075631,03,03,60.0179950873,PLT_learning_3,B,2014_Feb_19_1627,P05,
stim_fb/ques.jpg,stim_fb/posf.jpg,stim_fb/negf.jpg,stim_03/e.jpg,stim_03/f.jpg,2,3,j,2,19,139,57,j,1,0.716470719503,03,03,60.0179950873,PLT_learning_3,B,2014_Feb_19_1627,P05,
stim_fb/ques.jpg,stim_fb/negf.jpg,stim_fb/posf.jpg,stim_03/a.jpg,stim_03/b.jpg,2,1,j,2,20,140,11,j,1,0.799808317951,03,03,60.0179950873,PLT_learning_3,B,2014_Feb_19_1627,P05,
stim_fb/ques.jpg,stim_fb/negf.jpg,stim_fb/posf.jpg,stim_03/b.jpg,stim_03/a.jpg,1,1,f,2,21,141,4,f,1,0.966405172874,03,03,60.0179950873,PLT_learning_3,B,2014_Feb_19_1627,P05,
stim_fb/ques.jpg,stim_fb/negf.jpg,stim_fb/posf.jpg,stim_03/e.jpg,stim_03/f.jpg,2,3,j,2,22,142,55,j,1,0.733139857821,03,03,60.0179950873,PLT_learning_3,B,2014_Feb_19_1627,P05,
stim_fb/ques.jpg,stim_fb/posf.jpg,stim_fb/negf.jpg,stim_03/c.jpg,stim_03/d.jpg,2,2,j,2,23,143,39,j,1,0.86642881772,03,03,60.0179950873,PLT_learning_3,B,2014_Feb_19_1627,P05,
stim_fb/ques.jpg,stim_fb/negf.jpg,stim_fb/posf.jpg,stim_03/a.jpg,stim_03/b.jpg,2,1,j,2,24,144,10,j,1,0.783115273136,03,03,60.0179950873,PLT_learning_3,B,2014_Feb_19_1627,P05,
stim_fb/ques.jpg,stim_fb/negf.jpg,stim_fb/posf.jpg,stim_03/d.jpg,stim_03/c.jpg,1,2,f,2,25,145,23,f,1,0.61650668,03,03,60.0179950873,PLT_learning_3,B,2014_Feb_19_1627,P05,
stim_fb/ques.jpg,stim_fb/negf.jpg,stim_fb/posf.jpg,stim_03/d.jpg,stim_03/c.jpg,1,2,f,2,26,146,25,f,1,0.683127636906,03,03,60.0179950873,PLT_learning_3,B,2014_Feb_19_1627,P05,
stim_fb/ques.jpg,stim_fb/posf.jpg,stim_fb/negf.jpg,stim_03/e.jpg,stim_03/f.jpg,2,3,j,2,27,147,56,j,1,0.816440810066,03,03,60.0179950873,PLT_learning_3,B,2014_Feb_19_1627,P05,
stim_fb/ques.jpg,stim_fb/negf.jpg,stim_fb/posf.jpg,stim_03/d.jpg,stim_03/c.jpg,1,2,f,2,28,148,24,f,1,0.633191168521,03,03,60.0179950873,PLT_learning_3,B,2014_Feb_19_1627,P05,
stim_fb/ques.jpg,stim_fb/posf.jpg,stim_fb/negf.jpg,stim_03/d.jpg,stim_03/c.jpg,1,2,f,2,29,149,29,f,1,0.583120073082,03,03,60.0179950873,PLT_learning_3,B,2014_Feb_19_1627,P05,
stim_fb/ques.jpg,stim_fb/negf.jpg,stim_fb/posf.jpg,stim_03/b.jpg,stim_03/a.jpg,1,1,f,2,30,150,6,f,1,0.866432730458,03,03,60.0179950873,PLT_learning_3,B,2014_Feb_19_1627,P05,
stim_fb/ques.jpg,stim_fb/negf.jpg,stim_fb/posf.jpg,stim_03/b.jpg,stim_03/a.jpg,1,1,f,2,31,151,5,f,1,0.633163412443,03,03,60.0179950873,PLT_learning_3,B,2014_Feb_19_1627,P05,
stim_fb/ques.jpg,stim_fb/posf.jpg,stim_fb/negf.jpg,stim_03/b.jpg,stim_03/a.jpg,1,1,f,2,32,152,8,f,1,0.616502809367,03,03,60.0179950873,PLT_learning_3,B,2014_Feb_19_1627,P05,
stim_fb/ques.jpg,stim_fb/negf.jpg,stim_fb/posf.jpg,stim_03/c.jpg,stim_03/d.jpg,2,2,j,2,33,153,31,j,1,0.966356340342,03,03,60.0179950873,PLT_learning_3,B,2014_Feb_19_1627,P05,
stim_fb/ques.jpg,stim_fb/negf.jpg,stim_fb/posf.jpg,stim_03/c.jpg,stim_03/d.jpg,2,2,j,2,34,154,30,j,1,0.799782110728,03,03,60.0179950873,PLT_learning_3,B,2014_Feb_19_1627,P05,
stim_fb/ques.jpg,stim_fb/posf.jpg,stim_fb/negf.jpg,stim_03/c.jpg,stim_03/d.jpg,2,2,j,2,35,155,37,j,1,0.683148999071,03,03,60.0179950873,PLT_learning_3,B,2014_Feb_19_1627,P05,
stim_fb/ques.jpg,stim_fb/negf.jpg,stim_fb/posf.jpg,stim_03/f.jpg,stim_03/e.jpg,1,3,f,2,36,156,45,f,1,0.649849816731,03,03,60.0179950873,PLT_learning_3,B,2014_Feb_19_1627,P05,
stim_fb/ques.jpg,stim_fb/posf.jpg,stim_fb/negf.jpg,stim_03/b.jpg,stim_03/a.jpg,1,1,f,2,37,157,9,f,1,0.683212180314,03,03,60.0179950873,PLT_learning_3,B,2014_Feb_19_1627,P05,
stim_fb/ques.jpg,stim_fb/posf.jpg,stim_fb/negf.jpg,stim_03/a.jpg,stim_03/b.jpg,2,1,j,2,38,158,19,j,1,1.03304612354,03,03,60.0179950873,PLT_learning_3,B,2014_Feb_19_1627,P05,
stim_fb/ques.jpg,stim_fb/negf.jpg,stim_fb/posf.jpg,stim_03/d.jpg,stim_03/c.jpg,1,2,f,2,39,159,20,f,1,0.599836083052,03,03,60.0179950873,PLT_learning_3,B,2014_Feb_19_1627,P05,
stim_fb/ques.jpg,stim_fb/negf.jpg,stim_fb/posf.jpg,stim_03/c.jpg,stim_03/d.jpg,2,2,j,2,40,160,35,j,1,0.683141642764,03,03,60.0179950873,PLT_learning_3,B,2014_Feb_19_1627,P05,
stim_fb/ques.jpg,stim_fb/posf.jpg,stim_fb/negf.jpg,stim_03/e.jpg,stim_03/f.jpg,2,3,j,2,41,161,59,j,1,0.933055176069,03,03,60.0179950873,PLT_learning_3,B,2014_Feb_19_1627,P05,
stim_fb/ques.jpg,stim_fb/negf.jpg,stim_fb/posf.jpg,stim_03/a.jpg,stim_03/b.jpg,2,1,j,2,42,162,16,j,1,0.91641319534,03,03,60.0179950873,PLT_learning_3,B,2014_Feb_19_1627,P05,
stim_fb/ques.jpg,stim_fb/posf.jpg,stim_fb/negf.jpg,stim_03/e.jpg,stim_03/f.jpg,2,3,j,2,43,163,58,j,1,0.749803065379,03,03,60.0179950873,PLT_learning_3,B,2014_Feb_19_1627,P05,
stim_fb/ques.jpg,stim_fb/negf.jpg,stim_fb/posf.jpg,stim_03/b.jpg,stim_03/a.jpg,1,1,f,2,44,164,3,f,1,1.11633836611,03,03,60.0179950873,PLT_learning_3,B,2014_Feb_19_1627,P05,
stim_fb/ques.jpg,stim_fb/negf.jpg,stim_fb/posf.jpg,stim_03/e.jpg,stim_03/f.jpg,2,3,j,2,45,165,52,j,1,1.04971067845,03,03,60.0179950873,PLT_learning_3,B,2014_Feb_19_1627,P05,
stim_fb/ques.jpg,stim_fb/negf.jpg,stim_fb/posf.jpg,stim_03/f.jpg,stim_03/e.jpg,1,3,f,2,46,166,43,f,1,0.866421638854,03,03,60.0179950873,PLT_learning_3,B,2014_Feb_19_1627,P05,
stim_fb/ques.jpg,stim_fb/posf.jpg,stim_fb/negf.jpg,stim_03/d.jpg,stim_03/c.jpg,1,2,f,2,47,167,27,f,1,1.0829876024,03,03,60.0179950873,PLT_learning_3,B,2014_Feb_19_1627,P05,
stim_fb/ques.jpg,stim_fb/posf.jpg,stim_fb/negf.jpg,stim_03/f.jpg,stim_03/e.jpg,1,3,f,2,48,168,48,f,1,0.816435697342,03,03,60.0179950873,PLT_learning_3,B,2014_Feb_19_1627,P05,
stim_fb/ques.jpg,stim_fb/negf.jpg,stim_fb/posf.jpg,stim_03/e.jpg,stim_03/f.jpg,2,3,j,2,49,169,54,j,1,0.783108013067,03,03,60.0179950873,PLT_learning_3,B,2014_Feb_19_1627,P05,
stim_fb/ques.jpg,stim_fb/negf.jpg,stim_fb/posf.jpg,stim_03/d.jpg,stim_03/c.jpg,1,2,f,2,50,170,26,f,1,0.566503283046,03,03,60.0179950873,PLT_learning_3,B,2014_Feb_19_1627,P05,
stim_fb/ques.jpg,stim_fb/negf.jpg,stim_fb/posf.jpg,stim_03/a.jpg,stim_03/b.jpg,2,1,j,2,51,171,12,j,1,0.79977530479,03,03,60.0179950873,PLT_learning_3,B,2014_Feb_19_1627,P05,
stim_fb/ques.jpg,stim_fb/negf.jpg,stim_fb/posf.jpg,stim_03/c.jpg,stim_03/d.jpg,2,2,j,2,52,172,36,j,1,0.816432963538,03,03,60.0179950873,PLT_learning_3,B,2014_Feb_19_1627,P05,
stim_fb/ques.jpg,stim_fb/posf.jpg,stim_fb/negf.jpg,stim_03/d.jpg,stim_03/c.jpg,1,2,f,2,53,173,28,f,1,0.683156971914,03,03,60.0179950873,PLT_learning_3,B,2014_Feb_19_1627,P05,
stim_fb/ques.jpg,stim_fb/negf.jpg,stim_fb/posf.jpg,stim_03/f.jpg,stim_03/e.jpg,1,3,f,2,54,174,42,f,1,0.849791940693,03,03,60.0179950873,PLT_learning_3,B,2014_Feb_19_1627,P05,
stim_fb/ques.jpg,stim_fb/posf.jpg,stim_fb/negf.jpg,stim_03/f.jpg,stim_03/e.jpg,1,3,f,2,55,175,49,f,1,0.616505242422,03,03,60.0179950873,PLT_learning_3,B,2014_Feb_19_1627,P05,
stim_fb/ques.jpg,stim_fb/negf.jpg,stim_fb/posf.jpg,stim_03/a.jpg,stim_03/b.jpg,2,1,j,2,56,176,15,j,1,0.983055279828,03,03,60.0179950873,PLT_learning_3,B,2014_Feb_19_1627,P05,
stim_fb/ques.jpg,stim_fb/negf.jpg,stim_fb/posf.jpg,stim_03/b.jpg,stim_03/a.jpg,1,1,f,2,57,177,2,f,1,0.999685976474,03,03,60.0179950873,PLT_learning_3,B,2014_Feb_19_1627,P05,
stim_fb/ques.jpg,stim_fb/negf.jpg,stim_fb/posf.jpg,stim_03/b.jpg,stim_03/a.jpg,1,1,f,2,58,178,7,f,1,1.41624364236,03,03,60.0179950873,PLT_learning_3,B,2014_Feb_19_1627,P05,
stim_fb/ques.jpg,stim_fb/negf.jpg,stim_fb/posf.jpg,stim_03/b.jpg,stim_03/a.jpg,1,1,f,2,59,179,1,f,1,0.799798618813,03,03,60.0179950873,PLT_learning_3,B,2014_Feb_19_1627,P05,
stim_fb/ques.jpg,stim_fb/negf.jpg,stim_fb/posf.jpg,stim_03/b.jpg,stim_03/a.jpg,1,1,f,3,0,180,7,f,1,0.78315783807,03,03,60.0179950873,PLT_learning_3,B,2014_Feb_19_1627,P05,
stim_fb/ques.jpg,stim_fb/negf.jpg,stim_fb/posf.jpg,stim_03/b.jpg,stim_03/a.jpg,1,1,f,3,1,181,3,f,1,0.816443637102,03,03,60.0179950873,PLT_learning_3,B,2014_Feb_19_1627,P05,
stim_fb/ques.jpg,stim_fb/negf.jpg,stim_fb/posf.jpg,stim_03/a.jpg,stim_03/b.jpg,2,1,j,3,2,182,13,j,1,1.01637503336,03,03,60.0179950873,PLT_learning_3,B,2014_Feb_19_1627,P05,
stim_fb/ques.jpg,stim_fb/negf.jpg,stim_fb/posf.jpg,stim_03/e.jpg,stim_03/f.jpg,2,3,j,3,3,183,51,j,1,0.999703516126,03,03,60.0179950873,PLT_learning_3,B,2014_Feb_19_1627,P05,
stim_fb/ques.jpg,stim_fb/negf.jpg,stim_fb/posf.jpg,stim_03/f.jpg,stim_03/e.jpg,1,3,f,3,4,184,43,f,1,0.94970437777,03,03,60.0179950873,PLT_learning_3,B,2014_Feb_19_1627,P05,
stim_fb/ques.jpg,stim_fb/posf.jpg,stim_fb/negf.jpg,stim_03/f.jpg,stim_03/e.jpg,1,3,f,3,5,185,46,f,1,0.633165896625,03,03,60.0179950873,PLT_learning_3,B,2014_Feb_19_1627,P05,
stim_fb/ques.jpg,stim_fb/negf.jpg,stim_fb/posf.jpg,stim_03/b.jpg,stim_03/a.jpg,1,1,f,3,6,186,0,f,1,0.883120852021,03,03,60.0179950873,PLT_learning_3,B,2014_Feb_19_1627,P05,
stim_fb/ques.jpg,stim_fb/negf.jpg,stim_fb/posf.jpg,stim_03/a.jpg,stim_03/b.jpg,2,1,j,3,7,187,16,j,1,0.833053503908,03,03,60.0179950873,PLT_learning_3,B,2014_Feb_19_1627,P05,
stim_fb/ques.jpg,stim_fb/posf.jpg,stim_fb/negf.jpg,stim_03/d.jpg,stim_03/c.jpg,1,2,f,3,8,188,29,f,1,0.933041759679,03,03,60.0179950873,PLT_learning_3,B,2014_Feb_19_1627,P05,
stim_fb/ques.jpg,stim_fb/negf.jpg,stim_fb/posf.jpg,stim_03/c.jpg,stim_03/d.jpg,2,2,j,3,9,189,36,j,1,0.749813338947,03,03,60.0179950873,PLT_learning_3,B,2014_Feb_19_1627,P05,
stim_fb/ques.jpg,stim_fb/negf.jpg,stim_fb/posf.jpg,stim_03/d.jpg,stim_03/c.jpg,1,2,f,3,10,190,26,f,1,0.649843558155,03,03,60.0179950873,PLT_learning_3,B,2014_Feb_19_1627,P05,
stim_fb/ques.jpg,stim_fb/negf.jpg,stim_fb/posf.jpg,stim_03/d.jpg,stim_03/c.jpg,1,2,f,3,11,191,21,f,1,0.533203081168,03,03,60.0179950873,PLT_learning_3,B,2014_Feb_19_1627,P05,
stim_fb/ques.jpg,stim_fb/posf.jpg,stim_fb/negf.jpg,stim_03/f.jpg,stim_03/e.jpg,1,3,f,3,12,192,48,f,1,0.883094680887,03,03,60.0179950873,PLT_learning_3,B,2014_Feb_19_1627,P05,
stim_fb/ques.jpg,stim_fb/posf.jpg,stim_fb/negf.jpg,stim_03/d.jpg,stim_03/c.jpg,1,2,f,3,13,193,28,f,1,0.566536467634,03,03,60.0179950873,PLT_learning_3,B,2014_Feb_19_1627,P05,
stim_fb/ques.jpg,stim_fb/negf.jpg,stim_fb/posf.jpg,stim_03/b.jpg,stim_03/a.jpg,1,1,f,3,14,194,5,f,1,0.899757843333,03,03,60.0179950873,PLT_learning_3,B,2014_Feb_19_1627,P05,
stim_fb/ques.jpg,stim_fb/negf.jpg,stim_fb/posf.jpg,stim_03/a.jpg,stim_03/b.jpg,2,1,j,3,15,195,15,f,0,1.04969200197,03,03,60.0179950873,PLT_learning_3,B,2014_Feb_19_1627,P05,
stim_fb/ques.jpg,stim_fb/posf.jpg,stim_fb/negf.jpg,stim_03/e.jpg,stim_03/f.jpg,2,3,j,3,16,196,59,j,1,0.666498645504,03,03,60.0179950873,PLT_learning_3,B,2014_Feb_19_1627,P05,
stim_fb/ques.jpg,stim_fb/posf.jpg,stim_fb/negf.jpg,stim_03/c.jpg,stim_03/d.jpg,2,2,j,3,17,197,37,j,1,0.683160974876,03,03,60.0179950873,PLT_learning_3,B,2014_Feb_19_1627,P05,
stim_fb/ques.jpg,stim_fb/negf.jpg,stim_fb/posf.jpg,stim_03/a.jpg,stim_03/b.jpg,2,1,j,3,18,198,11,j,1,1.14967643824,03,03,60.0179950873,PLT_learning_3,B,2014_Feb_19_1627,P05,
stim_fb/ques.jpg,stim_fb/posf.jpg,stim_fb/negf.jpg,stim_03/e.jpg,stim_03/f.jpg,2,3,j,3,19,199,58,j,1,0.833083831385,03,03,60.0179950873,PLT_learning_3,B,2014_Feb_19_1627,P05,
stim_fb/ques.jpg,stim_fb/negf.jpg,stim_fb/posf.jpg,stim_03/b.jpg,stim_03/a.jpg,1,1,f,3,20,200,2,f,1,0.733082447942,03,03,60.0179950873,PLT_learning_3,B,2014_Feb_19_1627,P05,
stim_fb/ques.jpg,stim_fb/negf.jpg,stim_fb/posf.jpg,stim_03/f.jpg,stim_03/e.jpg,1,3,f,3,21,201,45,f,1,0.816449240046,03,03,60.0179950873,PLT_learning_3,B,2014_Feb_19_1627,P05,
stim_fb/ques.jpg,stim_fb/negf.jpg,stim_fb/posf.jpg,stim_03/b.jpg,stim_03/a.jpg,1,1,f,3,22,202,6,f,1,0.949739568351,03,03,60.0179950873,PLT_learning_3,B,2014_Feb_19_1627,P05,
stim_fb/ques.jpg,stim_fb/negf.jpg,stim_fb/posf.jpg,stim_03/c.jpg,stim_03/d.jpg,2,2,j,3,23,203,31,j,1,0.866393729394,03,03,60.0179950873,PLT_learning_3,B,2014_Feb_19_1627,P05,
stim_fb/ques.jpg,stim_fb/posf.jpg,stim_fb/negf.jpg,stim_03/a.jpg,stim_03/b.jpg,2,1,j,3,24,204,19,j,1,0.999694051571,03,03,60.0179950873,PLT_learning_3,B,2014_Feb_19_1627,P05,
stim_fb/ques.jpg,stim_fb/negf.jpg,stim_fb/posf.jpg,stim_03/c.jpg,stim_03/d.jpg,2,2,j,3,25,205,30,j,1,0.73314611339,03,03,60.0179950873,PLT_learning_3,B,2014_Feb_19_1627,P05,
stim_fb/ques.jpg,stim_fb/negf.jpg,stim_fb/posf.jpg,stim_03/e.jpg,stim_03/f.jpg,2,3,j,3,26,206,55,j,1,0.883100774051,03,03,60.0179950873,PLT_learning_3,B,2014_Feb_19_1627,P05,
stim_fb/ques.jpg,stim_fb/posf.jpg,stim_fb/negf.jpg,stim_03/a.jpg,stim_03/b.jpg,2,1,j,3,27,207,18,j,1,0.983083414849,03,03,60.0179950873,PLT_learning_3,B,2014_Feb_19_1627,P05,
stim_fb/ques.jpg,stim_fb/negf.jpg,stim_fb/posf.jpg,stim_03/f.jpg,stim_03/e.jpg,1,3,f,3,28,208,40,f,1,0.699819355421,03,03,60.0179950873,PLT_learning_3,B,2014_Feb_19_1627,P05,
stim_fb/ques.jpg,stim_fb/posf.jpg,stim_fb/negf.jpg,stim_03/c.jpg,stim_03/d.jpg,2,2,j,3,29,209,39,j,1,0.833113590448,03,03,60.0179950873,PLT_learning_3,B,2014_Feb_19_1627,P05,
stim_fb/ques.jpg,stim_fb/negf.jpg,stim_fb/posf.jpg,stim_03/c.jpg,stim_03/d.jpg,2,2,j,3,30,210,33,j,1,0.799756649361,03,03,60.0179950873,PLT_learning_3,B,2014_Feb_19_1627,P05,
stim_fb/ques.jpg,stim_fb/negf.jpg,stim_fb/posf.jpg,stim_03/d.jpg,stim_03/c.jpg,1,2,f,3,31,211,22,f,1,0.533195150431,03,03,60.0179950873,PLT_learning_3,B,2014_Feb_19_1627,P05,
stim_fb/ques.jpg,stim_fb/negf.jpg,stim_fb/posf.jpg,stim_03/a.jpg,stim_03/b.jpg,2,1,j,3,32,212,10,j,1,0.633221832836,03,03,60.0179950873,PLT_learning_3,B,2014_Feb_19_1627,P05,
stim_fb/ques.jpg,stim_fb/negf.jpg,stim_fb/posf.jpg,stim_03/e.jpg,stim_03/f.jpg,2,3,j,3,33,213,54,j,1,0.733119803912,03,03,60.0179950873,PLT_learning_3,B,2014_Feb_19_1627,P05,
stim_fb/ques.jpg,stim_fb/negf.jpg,stim_fb/posf.jpg,stim_03/b.jpg,stim_03/a.jpg,1,1,f,3,34,214,1,f,1,0.699774468709,03,03,60.0179950873,PLT_learning_3,B,2014_Feb_19_1627,P05,
stim_fb/ques.jpg,stim_fb/negf.jpg,stim_fb/posf.jpg,stim_03/a.jpg,stim_03/b.jpg,2,1,j,3,35,215,14,j,1,0.78307925249,03,03,60.0179950873,PLT_learning_3,B,2014_Feb_19_1627,P05,
stim_fb/ques.jpg,stim_fb/negf.jpg,stim_fb/posf.jpg,stim_03/e.jpg,stim_03/f.jpg,2,3,j,3,36,216,53,j,1,0.666471145063,03,03,60.0179950873,PLT_learning_3,B,2014_Feb_19_1627,P05,
stim_fb/ques.jpg,stim_fb/negf.jpg,stim_fb/posf.jpg,stim_03/c.jpg,stim_03/d.jpg,2,2,j,3,37,217,34,j,1,0.7997982519,03,03,60.0179950873,PLT_learning_3,B,2014_Feb_19_1627,P05,
stim_fb/ques.jpg,stim_fb/negf.jpg,stim_fb/posf.jpg,stim_03/e.jpg,stim_03/f.jpg,2,3,j,3,38,218,52,j,1,0.783112127307,03,03,60.0179950873,PLT_learning_3,B,2014_Feb_19_1627,P05,
stim_fb/ques.jpg,stim_fb/negf.jpg,stim_fb/posf.jpg,stim_03/c.jpg,stim_03/d.jpg,2,2,j,3,39,219,35,j,1,0.733121858024,03,03,60.0179950873,PLT_learning_3,B,2014_Feb_19_1627,P05,
stim_fb/ques.jpg,stim_fb/negf.jpg,stim_fb/posf.jpg,stim_03/a.jpg,stim_03/b.jpg,2,1,j,3,40,220,12,j,1,0.999645628057,03,03,60.0179950873,PLT_learning_3,B,2014_Feb_19_1627,P05,
stim_fb/ques.jpg,stim_fb/negf.jpg,stim_fb/posf.jpg,stim_03/d.jpg,stim_03/c.jpg,1,2,f,3,41,221,25,f,1,0.766467018793,03,03,60.0179950873,PLT_learning_3,B,2014_Feb_19_1627,P05,
stim_fb/ques.jpg,stim_fb/posf.jpg,stim_fb/negf.jpg,stim_03/e.jpg,stim_03/f.jpg,2,3,j,3,42,222,57,j,1,0.69973851122,03,03,60.0179950873,PLT_learning_3,B,2014_Feb_19_1627,P05,
stim_fb/ques.jpg,stim_fb/negf.jpg,stim_fb/posf.jpg,stim_03/a.jpg,stim_03/b.jpg,2,1,j,3,43,223,17,j,1,0.916450815968,03,03,60.0179950873,PLT_learning_3,B,2014_Feb_19_1627,P05,
stim_fb/ques.jpg,stim_fb/posf.jpg,stim_fb/negf.jpg,stim_03/f.jpg,stim_03/e.jpg,1,3,f,3,44,224,47,f,1,0.833128375244,03,03,60.0179950873,PLT_learning_3,B,2014_Feb_19_1627,P05,
stim_fb/ques.jpg,stim_fb/negf.jpg,stim_fb/posf.jpg,stim_03/d.jpg,stim_03/c.jpg,1,2,f,3,45,225,20,f,1,0.799760324508,03,03,60.0179950873,PLT_learning_3,B,2014_Feb_19_1627,P05,
stim_fb/ques.jpg,stim_fb/negf.jpg,stim_fb/posf.jpg,stim_03/d.jpg,stim_03/c.jpg,1,2,f,3,46,226,24,f,1,0.633195210581,03,03,60.0179950873,PLT_learning_3,B,2014_Feb_19_1627,P05,
stim_fb/ques.jpg,stim_fb/posf.jpg,stim_fb/negf.jpg,stim_03/b.jpg,stim_03/a.jpg,1,1,f,3,47,227,8,f,1,0.966557333564,03,03,60.0179950873,PLT_learning_3,B,2014_Feb_19_1627,P05,
stim_fb/ques.jpg,stim_fb/negf.jpg,stim_fb/posf.jpg,stim_03/c.jpg,stim_03/d.jpg,2,2,j,3,48,228,32,j,1,0.849728982004,03,03,60.0179950873,PLT_learning_3,B,2014_Feb_19_1627,P05,
stim_fb/ques.jpg,stim_fb/posf.jpg,stim_fb/negf.jpg,stim_03/f.jpg,stim_03/e.jpg,1,3,f,3,49,229,49,f,1,0.899749681019,03,03,60.0179950873,PLT_learning_3,B,2014_Feb_19_1627,P05,
stim_fb/ques.jpg,stim_fb/posf.jpg,stim_fb/negf.jpg,stim_03/c.jpg,stim_03/d.jpg,2,2,j,3,50,230,38,j,1,1.08301680507,03,03,60.0179950873,PLT_learning_3,B,2014_Feb_19_1627,P05,
stim_fb/ques.jpg,stim_fb/negf.jpg,stim_fb/posf.jpg,stim_03/f.jpg,stim_03/e.jpg,1,3,f,3,51,231,42,f,1,0.966359937294,03,03,60.0179950873,PLT_learning_3,B,2014_Feb_19_1627,P05,
stim_fb/ques.jpg,stim_fb/negf.jpg,stim_fb/posf.jpg,stim_03/e.jpg,stim_03/f.jpg,2,3,j,3,52,232,50,j,1,0.933073566839,03,03,60.0179950873,PLT_learning_3,B,2014_Feb_19_1627,P05,
stim_fb/ques.jpg,stim_fb/negf.jpg,stim_fb/posf.jpg,stim_03/d.jpg,stim_03/c.jpg,1,2,f,3,53,233,23,f,1,0.683140611196,03,03,60.0179950873,PLT_learning_3,B,2014_Feb_19_1627,P05,
stim_fb/ques.jpg,stim_fb/negf.jpg,stim_fb/posf.jpg,stim_03/f.jpg,stim_03/e.jpg,1,3,f,3,54,234,41,j,0,0.716492998951,03,03,60.0179950873,PLT_learning_3,B,2014_Feb_19_1627,P05,
stim_fb/ques.jpg,stim_fb/posf.jpg,stim_fb/negf.jpg,stim_03/b.jpg,stim_03/a.jpg,1,1,f,3,55,235,9,f,1,0.89976190043,03,03,60.0179950873,PLT_learning_3,B,2014_Feb_19_1627,P05,
stim_fb/ques.jpg,stim_fb/posf.jpg,stim_fb/negf.jpg,stim_03/d.jpg,stim_03/c.jpg,1,2,f,3,56,236,27,f,1,0.916397857167,03,03,60.0179950873,PLT_learning_3,B,2014_Feb_19_1627,P05,
stim_fb/ques.jpg,stim_fb/negf.jpg,stim_fb/posf.jpg,stim_03/b.jpg,stim_03/a.jpg,1,1,f,3,57,237,4,f,1,0.583175194265,03,03,60.0179950873,PLT_learning_3,B,2014_Feb_19_1627,P05,
stim_fb/ques.jpg,stim_fb/negf.jpg,stim_fb/posf.jpg,stim_03/f.jpg,stim_03/e.jpg,1,3,f,3,58,238,44,f,1,0.816453895633,03,03,60.0179950873,PLT_learning_3,B,2014_Feb_19_1627,P05,
stim_fb/ques.jpg,stim_fb/posf.jpg,stim_fb/negf.jpg,stim_03/e.jpg,stim_03/f.jpg,2,3,j,3,59,239,56,j,1,1.06637029808,03,03,60.0179950873,PLT_learning_3,B,2014_Feb_19_1627,P05,
stim_fb/ques.jpg,stim_fb/negf.jpg,stim_fb/posf.jpg,stim_03/d.jpg,stim_03/c.jpg,1,2,f,4,0,240,21,f,1,1.19965347158,03,03,60.0179950873,PLT_learning_3,B,2014_Feb_19_1627,P05,
stim_fb/ques.jpg,stim_fb/negf.jpg,stim_fb/posf.jpg,stim_03/b.jpg,stim_03/a.jpg,1,1,f,4,1,241,3,f,1,1.08302324109,03,03,60.0179950873,PLT_learning_3,B,2014_Feb_19_1627,P05,
stim_fb/ques.jpg,stim_fb/negf.jpg,stim_fb/posf.jpg,stim_03/b.jpg,stim_03/a.jpg,1,1,f,4,2,242,0,f,1,0.833111882197,03,03,60.0179950873,PLT_learning_3,B,2014_Feb_19_1627,P05,
stim_fb/ques.jpg,stim_fb/posf.jpg,stim_fb/negf.jpg,stim_03/f.jpg,stim_03/e.jpg,1,3,f,4,3,243,49,f,1,1.11633708191,03,03,60.0179950873,PLT_learning_3,B,2014_Feb_19_1627,P05,
stim_fb/ques.jpg,stim_fb/posf.jpg,stim_fb/negf.jpg,stim_03/c.jpg,stim_03/d.jpg,2,2,j,4,4,244,38,j,1,1.49956729511,03,03,60.0179950873,PLT_learning_3,B,2014_Feb_19_1627,P05,
stim_fb/ques.jpg,stim_fb/posf.jpg,stim_fb/negf.jpg,stim_03/b.jpg,stim_03/a.jpg,1,1,f,4,5,245,9,f,1,1.21632942185,03,03,60.0179950873,PLT_learning_3,B,2014_Feb_19_1627,P05,
stim_fb/ques.jpg,stim_fb/negf.jpg,stim_fb/posf.jpg,stim_03/f.jpg,stim_03/e.jpg,1,3,f,4,6,246,44,f,1,1.18298120247,03,03,60.0179950873,PLT_learning_3,B,2014_Feb_19_1627,P05,
stim_fb/ques.jpg,stim_fb/posf.jpg,stim_fb/negf.jpg,stim_03/e.jpg,stim_03/f.jpg,2,3,j,4,7,247,59,j,1,0.949733866159,03,03,60.0179950873,PLT_learning_3,B,2014_Feb_19_1627,P05,
stim_fb/ques.jpg,stim_fb/negf.jpg,stim_fb/posf.jpg,stim_03/d.jpg,stim_03/c.jpg,1,2,f,4,8,248,25,f,1,0.73311815581,03,03,60.0179950873,PLT_learning_3,B,2014_Feb_19_1627,P05,
stim_fb/ques.jpg,stim_fb/posf.jpg,stim_fb/negf.jpg,stim_03/e.jpg,stim_03/f.jpg,2,3,j,4,9,249,58,j,1,0.799781984414,03,03,60.0179950873,PLT_learning_3,B,2014_Feb_19_1627,P05,
stim_fb/ques.jpg,stim_fb/posf.jpg,stim_fb/negf.jpg,stim_03/b.jpg,stim_03/a.jpg,1,1,f,4,10,250,8,f,1,0.883103778529,03,03,60.0179950873,PLT_learning_3,B,2014_Feb_19_1627,P05,
stim_fb/ques.jpg,stim_fb/negf.jpg,stim_fb/posf.jpg,stim_03/b.jpg,stim_03/a.jpg,1,1,f,4,11,251,5,f,1,0.816452079112,03,03,60.0179950873,PLT_learning_3,B,2014_Feb_19_1627,P05,
stim_fb/ques.jpg,stim_fb/posf.jpg,stim_fb/negf.jpg,stim_03/c.jpg,stim_03/d.jpg,2,2,j,4,12,252,39,j,1,0.849760154585,03,03,60.0179950873,PLT_learning_3,B,2014_Feb_19_1627,P05,
stim_fb/ques.jpg,stim_fb/negf.jpg,stim_fb/posf.jpg,stim_03/e.jpg,stim_03/f.jpg,2,3,j,4,13,253,51,j,1,0.666477743484,03,03,60.0179950873,PLT_learning_3,B,2014_Feb_19_1627,P05,
stim_fb/ques.jpg,stim_fb/posf.jpg,stim_fb/negf.jpg,stim_03/f.jpg,stim_03/e.jpg,1,3,f,4,14,254,46,f,1,0.883066362409,03,03,60.0179950873,PLT_learning_3,B,2014_Feb_19_1627,P05,
stim_fb/ques.jpg,stim_fb/negf.jpg,stim_fb/posf.jpg,stim_03/b.jpg,stim_03/a.jpg,1,1,f,4,15,255,4,f,1,0.883119757296,03,03,60.0179950873,PLT_learning_3,B,2014_Feb_19_1627,P05,
stim_fb/ques.jpg,stim_fb/negf.jpg,stim_fb/posf.jpg,stim_03/e.jpg,stim_03/f.jpg,2,3,j,4,16,256,54,j,1,0.649831016943,03,03,60.0179950873,PLT_learning_3,B,2014_Feb_19_1627,P05,
stim_fb/ques.jpg,stim_fb/negf.jpg,stim_fb/posf.jpg,stim_03/a.jpg,stim_03/b.jpg,2,1,j,4,17,257,13,j,1,0.933099891355,03,03,60.0179950873,PLT_learning_3,B,2014_Feb_19_1627,P05,
stim_fb/ques.jpg,stim_fb/negf.jpg,stim_fb/posf.jpg,stim_03/f.jpg,stim_03/e.jpg,1,3,f,4,18,258,43,f,1,0.616517422736,03,03,60.0179950873,PLT_learning_3,B,2014_Feb_19_1627,P05,
stim_fb/ques.jpg,stim_fb/negf.jpg,stim_fb/posf.jpg,stim_03/d.jpg,stim_03/c.jpg,1,2,f,4,19,259,22,f,1,0.866415506592,03,03,60.0179950873,PLT_learning_3,B,2014_Feb_19_1627,P05,
stim_fb/ques.jpg,stim_fb/posf.jpg,stim_fb/negf.jpg,stim_03/e.jpg,stim_03/f.jpg,2,3,j,4,20,260,56,j,1,0.699833189851,03,03,60.0179950873,PLT_learning_3,B,2014_Feb_19_1627,P05,
stim_fb/ques.jpg,stim_fb/negf.jpg,stim_fb/posf.jpg,stim_03/a.jpg,stim_03/b.jpg,2,1,j,4,21,261,15,j,1,1.01627135032,03,03,60.0179950873,PLT_learning_3,B,2014_Feb_19_1627,P05,
stim_fb/ques.jpg,stim_fb/negf.jpg,stim_fb/posf.jpg,stim_03/c.jpg,stim_03/d.jpg,2,2,j,4,22,262,35,j,1,0.733099945489,03,03,60.0179950873,PLT_learning_3,B,2014_Feb_19_1627,P05,
stim_fb/ques.jpg,stim_fb/posf.jpg,stim_fb/negf.jpg,stim_03/a.jpg,stim_03/b.jpg,2,1,j,4,23,263,18,j,1,0.899751311076,03,03,60.0179950873,PLT_learning_3,B,2014_Feb_19_1627,P05,
stim_fb/ques.jpg,stim_fb/negf.jpg,stim_fb/posf.jpg,stim_03/c.jpg,stim_03/d.jpg,2,2,j,4,24,264,30,j,1,0.716473432255,03,03,60.0179950873,PLT_learning_3,B,2014_Feb_19_1627,P05,
stim_fb/ques.jpg,stim_fb/negf.jpg,stim_fb/posf.jpg,stim_03/e.jpg,stim_03/f.jpg,2,3,j,4,25,265,53,j,1,0.666564043263,03,03,60.0179950873,PLT_learning_3,B,2014_Feb_19_1627,P05,
stim_fb/ques.jpg,stim_fb/posf.jpg,stim_fb/negf.jpg,stim_03/f.jpg,stim_03/e.jpg,1,3,f,4,26,266,47,f,1,0.616512806247,03,03,60.0179950873,PLT_learning_3,B,2014_Feb_19_1627,P05,
stim_fb/ques.jpg,stim_fb/negf.jpg,stim_fb/posf.jpg,stim_03/a.jpg,stim_03/b.jpg,2,1,j,4,27,267,16,j,1,1.23297258753,03,03,60.0179950873,PLT_learning_3,B,2014_Feb_19_1627,P05,
stim_fb/ques.jpg,stim_fb/posf.jpg,stim_fb/negf.jpg,stim_03/d.jpg,stim_03/c.jpg,1,2,f,4,28,268,28,f,1,0.749813408119,03,03,60.0179950873,PLT_learning_3,B,2014_Feb_19_1627,P05,
stim_fb/ques.jpg,stim_fb/negf.jpg,stim_fb/posf.jpg,stim_03/f.jpg,stim_03/e.jpg,1,3,f,4,29,269,41,f,1,0.933068354868,03,03,60.0179950873,PLT_learning_3,B,2014_Feb_19_1627,P05,
stim_fb/ques.jpg,stim_fb/negf.jpg,stim_fb/posf.jpg,stim_03/e.jpg,stim_03/f.jpg,2,3,j,4,30,270,52,j,1,0.666502260501,03,03,60.0179950873,PLT_learning_3,B,2014_Feb_19_1627,P05,
stim_fb/ques.jpg,stim_fb/posf.jpg,stim_fb/negf.jpg,stim_03/e.jpg,stim_03/f.jpg,2,3,j,4,31,271,57,j,1,1.14967151799,03,03,60.0179950873,PLT_learning_3,B,2014_Feb_19_1627,P05,
stim_fb/ques.jpg,stim_fb/negf.jpg,stim_fb/posf.jpg,stim_03/b.jpg,stim_03/a.jpg,1,1,f,4,32,272,6,f,1,0.916352005053,03,03,60.0179950873,PLT_learning_3,B,2014_Feb_19_1627,P05,
stim_fb/ques.jpg,stim_fb/negf.jpg,stim_fb/posf.jpg,stim_03/b.jpg,stim_03/a.jpg,1,1,f,4,33,273,1,f,1,1.18294224952,03,03,60.0179950873,PLT_learning_3,B,2014_Feb_19_1627,P05,
stim_fb/ques.jpg,stim_fb/posf.jpg,stim_fb/negf.jpg,stim_03/f.jpg,stim_03/e.jpg,1,3,f,4,34,274,48,f,1,0.749805089416,03,03,60.0179950873,PLT_learning_3,B,2014_Feb_19_1627,P05,
stim_fb/ques.jpg,stim_fb/posf.jpg,stim_fb/negf.jpg,stim_03/a.jpg,stim_03/b.jpg,2,1,j,4,35,275,19,j,1,0.8664298944,03,03,60.0179950873,PLT_learning_3,B,2014_Feb_19_1627,P05,
stim_fb/ques.jpg,stim_fb/posf.jpg,stim_fb/negf.jpg,stim_03/c.jpg,stim_03/d.jpg,2,2,j,4,36,276,37,j,1,0.799794276004,03,03,60.0179950873,PLT_learning_3,B,2014_Feb_19_1627,P05,
stim_fb/ques.jpg,stim_fb/negf.jpg,stim_fb/posf.jpg,stim_03/d.jpg,stim_03/c.jpg,1,2,f,4,37,277,26,f,1,0.733135908994,03,03,60.0179950873,PLT_learning_3,B,2014_Feb_19_1627,P05,
stim_fb/ques.jpg,stim_fb/negf.jpg,stim_fb/posf.jpg,stim_03/a.jpg,stim_03/b.jpg,2,1,j,4,38,278,14,f,0,1.24959150686,03,03,60.0179950873,PLT_learning_3,B,2014_Feb_19_1627,P05,
stim_fb/ques.jpg,stim_fb/negf.jpg,stim_fb/posf.jpg,stim_03/c.jpg,stim_03/d.jpg,2,2,j,4,39,279,34,j,1,0.883136096962,03,03,60.0179950873,PLT_learning_3,B,2014_Feb_19_1627,P05,
stim_fb/ques.jpg,stim_fb/negf.jpg,stim_fb/posf.jpg,stim_03/f.jpg,stim_03/e.jpg,1,3,f,4,40,280,40,f,1,0.899739825491,03,03,60.0179950873,PLT_learning_3,B,2014_Feb_19_1627,P05,
stim_fb/ques.jpg,stim_fb/negf.jpg,stim_fb/posf.jpg,stim_03/f.jpg,stim_03/e.jpg,1,3,f,4,41,281,42,f,1,0.799739428503,03,03,60.0179950873,PLT_learning_3,B,2014_Feb_19_1627,P05,
stim_fb/ques.jpg,stim_fb/negf.jpg,stim_fb/posf.jpg,stim_03/e.jpg,stim_03/f.jpg,2,3,j,4,42,282,50,j,1,0.849786794886,03,03,60.0179950873,PLT_learning_3,B,2014_Feb_19_1627,P05,
stim_fb/ques.jpg,stim_fb/posf.jpg,stim_fb/negf.jpg,stim_03/d.jpg,stim_03/c.jpg,1,2,f,4,43,283,27,f,1,0.616521952008,03,03,60.0179950873,PLT_learning_3,B,2014_Feb_19_1627,P05,
stim_fb/ques.jpg,stim_fb/negf.jpg,stim_fb/posf.jpg,stim_03/f.jpg,stim_03/e.jpg,1,3,f,4,44,284,45,f,1,0.84975849746,03,03,60.0179950873,PLT_learning_3,B,2014_Feb_19_1627,P05,
stim_fb/ques.jpg,stim_fb/negf.jpg,stim_fb/posf.jpg,stim_03/d.jpg,stim_03/c.jpg,1,2,f,4,45,285,20,f,1,0.599865306782,03,03,60.0179950873,PLT_learning_3,B,2014_Feb_19_1627,P05,
stim_fb/ques.jpg,stim_fb/negf.jpg,stim_fb/posf.jpg,stim_03/d.jpg,stim_03/c.jpg,1,2,f,4,46,286,23,f,1,0.566471466863,03,03,60.0179950873,PLT_learning_3,B,2014_Feb_19_1627,P05,
stim_fb/ques.jpg,stim_fb/negf.jpg,stim_fb/posf.jpg,stim_03/a.jpg,stim_03/b.jpg,2,1,j,4,47,287,11,j,1,0.949852093398,03,03,60.0179950873,PLT_learning_3,B,2014_Feb_19_1627,P05,
stim_fb/ques.jpg,stim_fb/negf.jpg,stim_fb/posf.jpg,stim_03/a.jpg,stim_03/b.jpg,2,1,j,4,48,288,12,j,1,0.883059120386,03,03,60.0179950873,PLT_learning_3,B,2014_Feb_19_1627,P05,
stim_fb/ques.jpg,stim_fb/negf.jpg,stim_fb/posf.jpg,stim_03/b.jpg,stim_03/a.jpg,1,1,f,4,49,289,2,f,1,1.06637958519,03,03,60.0179950873,PLT_learning_3,B,2014_Feb_19_1627,P05,
stim_fb/ques.jpg,stim_fb/negf.jpg,stim_fb/posf.jpg,stim_03/e.jpg,stim_03/f.jpg,2,3,j,4,50,290,55,j,1,0.716465814295,03,03,60.0179950873,PLT_learning_3,B,2014_Feb_19_1627,P05,
stim_fb/ques.jpg,stim_fb/negf.jpg,stim_fb/posf.jpg,stim_03/b.jpg,stim_03/a.jpg,1,1,f,4,51,291,7,f,1,1.01639229031,03,03,60.0179950873,PLT_learning_3,B,2014_Feb_19_1627,P05,
stim_fb/ques.jpg,stim_fb/negf.jpg,stim_fb/posf.jpg,stim_03/c.jpg,stim_03/d.jpg,2,2,j,4,52,292,33,j,1,0.966384273862,03,03,60.0179950873,PLT_learning_3,B,2014_Feb_19_1627,P05,
stim_fb/ques.jpg,stim_fb/negf.jpg,stim_fb/posf.jpg,stim_03/d.jpg,stim_03/c.jpg,1,2,f,4,53,293,24,f,1,0.599852167081,03,03,60.0179950873,PLT_learning_3,B,2014_Feb_19_1627,P05,
stim_fb/ques.jpg,stim_fb/negf.jpg,stim_fb/posf.jpg,stim_03/a.jpg,stim_03/b.jpg,2,1,j,4,54,294,10,j,1,0.966398532347,03,03,60.0179950873,PLT_learning_3,B,2014_Feb_19_1627,P05,
stim_fb/ques.jpg,stim_fb/negf.jpg,stim_fb/posf.jpg,stim_03/c.jpg,stim_03/d.jpg,2,2,j,4,55,295,32,j,1,0.899709140122,03,03,60.0179950873,PLT_learning_3,B,2014_Feb_19_1627,P05,
stim_fb/ques.jpg,stim_fb/negf.jpg,stim_fb/posf.jpg,stim_03/c.jpg,stim_03/d.jpg,2,2,j,4,56,296,31,j,1,0.699803415751,03,03,60.0179950873,PLT_learning_3,B,2014_Feb_19_1627,P05,
stim_fb/ques.jpg,stim_fb/negf.jpg,stim_fb/posf.jpg,stim_03/c.jpg,stim_03/d.jpg,2,2,j,4,57,297,36,j,1,0.84976198915,03,03,60.0179950873,PLT_learning_3,B,2014_Feb_19_1627,P05,
stim_fb/ques.jpg,stim_fb/posf.jpg,stim_fb/negf.jpg,stim_03/d.jpg,stim_03/c.jpg,1,2,f,4,58,298,29,f,1,0.566571177017,03,03,60.0179950873,PLT_learning_3,B,2014_Feb_19_1627,P05,
stim_fb/ques.jpg,stim_fb/negf.jpg,stim_fb/posf.jpg,stim_03/a.jpg,stim_03/b.jpg,2,1,j,4,59,299,17,f,0,0.949711364157,03,03,60.0179950873,PLT_learning_3,B,2014_Feb_19_1627,P05,
stim_fb/ques.jpg,stim_fb/negf.jpg,stim_fb/posf.jpg,stim_03/d.jpg,stim_03/c.jpg,1,2,f,5,0,300,24,f,1,0.733166004894,03,03,60.0179950873,PLT_learning_3,B,2014_Feb_19_1627,P05,
stim_fb/ques.jpg,stim_fb/posf.jpg,stim_fb/negf.jpg,stim_03/c.jpg,stim_03/d.jpg,2,2,j,5,1,301,38,j,1,0.73302426514,03,03,60.0179950873,PLT_learning_3,B,2014_Feb_19_1627,P05,
stim_fb/ques.jpg,stim_fb/negf.jpg,stim_fb/posf.jpg,stim_03/b.jpg,stim_03/a.jpg,1,1,f,5,2,302,2,f,1,1.13305292346,03,03,60.0179950873,PLT_learning_3,B,2014_Feb_19_1627,P05,
stim_fb/ques.jpg,stim_fb/posf.jpg,stim_fb/negf.jpg,stim_03/e.jpg,stim_03/f.jpg,2,3,j,5,3,303,57,j,1,0.983033779318,03,03,60.0179950873,PLT_learning_3,B,2014_Feb_19_1627,P05,
stim_fb/ques.jpg,stim_fb/posf.jpg,stim_fb/negf.jpg,stim_03/c.jpg,stim_03/d.jpg,2,2,j,5,4,304,39,j,1,0.800090269659,03,03,60.0179950873,PLT_learning_3,B,2014_Feb_19_1627,P05,
stim_fb/ques.jpg,stim_fb/negf.jpg,stim_fb/posf.jpg,stim_03/d.jpg,stim_03/c.jpg,1,2,f,5,5,305,21,f,1,0.966365940234,03,03,60.0179950873,PLT_learning_3,B,2014_Feb_19_1627,P05,
stim_fb/ques.jpg,stim_fb/posf.jpg,stim_fb/negf.jpg,stim_03/d.jpg,stim_03/c.jpg,1,2,f,5,6,306,29,f,1,0.799759530532,03,03,60.0179950873,PLT_learning_3,B,2014_Feb_19_1627,P05,
stim_fb/ques.jpg,stim_fb/negf.jpg,stim_fb/posf.jpg,stim_03/f.jpg,stim_03/e.jpg,1,3,f,5,7,307,41,f,1,0.716482051706,03,03,60.0179950873,PLT_learning_3,B,2014_Feb_19_1627,P05,
stim_fb/ques.jpg,stim_fb/negf.jpg,stim_fb/posf.jpg,stim_03/c.jpg,stim_03/d.jpg,2,2,j,5,8,308,34,j,1,0.916401171416,03,03,60.0179950873,PLT_learning_3,B,2014_Feb_19_1627,P05,
stim_fb/ques.jpg,stim_fb/negf.jpg,stim_fb/posf.jpg,stim_03/d.jpg,stim_03/c.jpg,1,2,f,5,9,309,26,f,1,0.616505597305,03,03,60.0179950873,PLT_learning_3,B,2014_Feb_19_1627,P05,
stim_fb/ques.jpg,stim_fb/posf.jpg,stim_fb/negf.jpg,stim_03/f.jpg,stim_03/e.jpg,1,3,f,5,10,310,47,f,1,0.716459450457,03,03,60.0179950873,PLT_learning_3,B,2014_Feb_19_1627,P05,
stim_fb/ques.jpg,stim_fb/posf.jpg,stim_fb/negf.jpg,stim_03/d.jpg,stim_03/c.jpg,1,2,f,5,11,311,27,f,1,0.583202135314,03,03,60.0179950873,PLT_learning_3,B,2014_Feb_19_1627,P05,
stim_fb/ques.jpg,stim_fb/negf.jpg,stim_fb/posf.jpg,stim_03/f.jpg,stim_03/e.jpg,1,3,f,5,12,312,44,f,1,0.733170976267,03,03,60.0179950873,PLT_learning_3,B,2014_Feb_19_1627,P05,
stim_fb/ques.jpg,stim_fb/negf.jpg,stim_fb/posf.jpg,stim_03/f.jpg,stim_03/e.jpg,1,3,f,5,13,313,43,f,1,0.599855484337,03,03,60.0179950873,PLT_learning_3,B,2014_Feb_19_1627,P05,
stim_fb/ques.jpg,stim_fb/negf.jpg,stim_fb/posf.jpg,stim_03/f.jpg,stim_03/e.jpg,1,3,f,5,14,314,40,f,1,0.599849415232,03,03,60.0179950873,PLT_learning_3,B,2014_Feb_19_1627,P05,
stim_fb/ques.jpg,stim_fb/posf.jpg,stim_fb/negf.jpg,stim_03/f.jpg,stim_03/e.jpg,1,3,f,5,15,315,48,f,1,0.599847063379,03,03,60.0179950873,PLT_learning_3,B,2014_Feb_19_1627,P05,
stim_fb/ques.jpg,stim_fb/negf.jpg,stim_fb/posf.jpg,stim_03/c.jpg,stim_03/d.jpg,2,2,j,5,16,316,36,j,1,0.816417820851,03,03,60.0179950873,PLT_learning_3,B,2014_Feb_19_1627,P05,
stim_fb/ques.jpg,stim_fb/negf.jpg,stim_fb/posf.jpg,stim_03/e.jpg,stim_03/f.jpg,2,3,j,5,17,317,50,j,1,0.84976798006,03,03,60.0179950873,PLT_learning_3,B,2014_Feb_19_1627,P05,
stim_fb/ques.jpg,stim_fb/negf.jpg,stim_fb/posf.jpg,stim_03/b.jpg,stim_03/a.jpg,1,1,f,5,18,318,5,f,1,0.916423604245,03,03,60.0179950873,PLT_learning_3,B,2014_Feb_19_1627,P05,
stim_fb/ques.jpg,stim_fb/negf.jpg,stim_fb/posf.jpg,stim_03/a.jpg,stim_03/b.jpg,2,1,j,5,19,319,10,j,1,0.933058854223,03,03,60.0179950873,PLT_learning_3,B,2014_Feb_19_1627,P05,
stim_fb/ques.jpg,stim_fb/negf.jpg,stim_fb/posf.jpg,stim_03/a.jpg,stim_03/b.jpg,2,1,j,5,20,320,15,j,1,0.749798743623,03,03,60.0179950873,PLT_learning_3,B,2014_Feb_19_1627,P05,
stim_fb/ques.jpg,stim_fb/posf.jpg,stim_fb/negf.jpg,stim_03/a.jpg,stim_03/b.jpg,2,1,j,5,21,321,18,j,1,0.699870190938,03,03,60.0179950873,PLT_learning_3,B,2014_Feb_19_1627,P05,
stim_fb/ques.jpg,stim_fb/negf.jpg,stim_fb/posf.jpg,stim_03/a.jpg,stim_03/b.jpg,2,1,j,5,22,322,17,j,1,0.866444946862,03,03,60.0179950873,PLT_learning_3,B,2014_Feb_19_1627,P05,
stim_fb/ques.jpg,stim_fb/negf.jpg,stim_fb/posf.jpg,stim_03/f.jpg,stim_03/e.jpg,1,3,f,5,23,323,45,f,1,1.0329937933,03,03,60.0179950873,PLT_learning_3,B,2014_Feb_19_1627,P05,
stim_fb/ques.jpg,stim_fb/negf.jpg,stim_fb/posf.jpg,stim_03/d.jpg,stim_03/c.jpg,1,2,f,5,24,324,20,f,1,1.11636806201,03,03,60.0179950873,PLT_learning_3,B,2014_Feb_19_1627,P05,
stim_fb/ques.jpg,stim_fb/posf.jpg,stim_fb/negf.jpg,stim_03/e.jpg,stim_03/f.jpg,2,3,j,5,25,325,59,j,1,0.699833953753,03,03,60.0179950873,PLT_learning_3,B,2014_Feb_19_1627,P05,
stim_fb/ques.jpg,stim_fb/posf.jpg,stim_fb/negf.jpg,stim_03/e.jpg,stim_03/f.jpg,2,3,j,5,26,326,58,j,1,0.683156208013,03,03,60.0179950873,PLT_learning_3,B,2014_Feb_19_1627,P05,
stim_fb/ques.jpg,stim_fb/posf.jpg,stim_fb/negf.jpg,stim_03/b.jpg,stim_03/a.jpg,1,1,f,5,27,327,8,f,1,0.866433551501,03,03,60.0179950873,PLT_learning_3,B,2014_Feb_19_1627,P05,
stim_fb/ques.jpg,stim_fb/negf.jpg,stim_fb/posf.jpg,stim_03/b.jpg,stim_03/a.jpg,1,1,f,5,28,328,4,f,1,1.11630934689,03,03,60.0179950873,PLT_learning_3,B,2014_Feb_19_1627,P05,
stim_fb/ques.jpg,stim_fb/negf.jpg,stim_fb/posf.jpg,stim_03/d.jpg,stim_03/c.jpg,1,2,f,5,29,329,22,f,1,0.949732852637,03,03,60.0179950873,PLT_learning_3,B,2014_Feb_19_1627,P05,
stim_fb/ques.jpg,stim_fb/negf.jpg,stim_fb/posf.jpg,stim_03/f.jpg,stim_03/e.jpg,1,3,f,5,30,330,42,f,1,0.7331445104,03,03,60.0179950873,PLT_learning_3,B,2014_Feb_19_1627,P05,
stim_fb/ques.jpg,stim_fb/negf.jpg,stim_fb/posf.jpg,stim_03/e.jpg,stim_03/f.jpg,2,3,j,5,31,331,52,j,1,0.899760285411,03,03,60.0179950873,PLT_learning_3,B,2014_Feb_19_1627,P05,
stim_fb/ques.jpg,stim_fb/negf.jpg,stim_fb/posf.jpg,stim_03/a.jpg,stim_03/b.jpg,2,1,j,5,32,332,14,j,1,1.28292364221,03,03,60.0179950873,PLT_learning_3,B,2014_Feb_19_1627,P05,
stim_fb/ques.jpg,stim_fb/negf.jpg,stim_fb/posf.jpg,stim_03/e.jpg,stim_03/f.jpg,2,3,j,5,33,333,54,j,1,0.933086435867,03,03,60.0179950873,PLT_learning_3,B,2014_Feb_19_1627,P05,
stim_fb/ques.jpg,stim_fb/posf.jpg,stim_fb/negf.jpg,stim_03/e.jpg,stim_03/f.jpg,2,3,j,5,34,334,56,j,1,0.999584509949,03,03,60.0179950873,PLT_learning_3,B,2014_Feb_19_1627,P05,
stim_fb/ques.jpg,stim_fb/negf.jpg,stim_fb/posf.jpg,stim_03/c.jpg,stim_03/d.jpg,2,2,j,5,35,335,31,j,1,0.899682394559,03,03,60.0179950873,PLT_learning_3,B,2014_Feb_19_1627,P05,
stim_fb/ques.jpg,stim_fb/negf.jpg,stim_fb/posf.jpg,stim_03/c.jpg,stim_03/d.jpg,2,2,j,5,36,336,32,j,1,0.699849325008,03,03,60.0179950873,PLT_learning_3,B,2014_Feb_19_1627,P05,
stim_fb/ques.jpg,stim_fb/negf.jpg,stim_fb/posf.jpg,stim_03/a.jpg,stim_03/b.jpg,2,1,j,5,37,337,16,j,1,1.24950891531,03,03,60.0179950873,PLT_learning_3,B,2014_Feb_19_1627,P05,
stim_fb/ques.jpg,stim_fb/negf.jpg,stim_fb/posf.jpg,stim_03/b.jpg,stim_03/a.jpg,1,1,f,5,38,338,1,j,0,0.899728451183,03,03,60.0179950873,PLT_learning_3,B,2014_Feb_19_1627,P05,
stim_fb/ques.jpg,stim_fb/posf.jpg,stim_fb/negf.jpg,stim_03/b.jpg,stim_03/a.jpg,1,1,f,5,39,339,9,f,1,0.916417414841,03,03,60.0179950873,PLT_learning_3,B,2014_Feb_19_1627,P05,
stim_fb/ques.jpg,stim_fb/negf.jpg,stim_fb/posf.jpg,stim_03/b.jpg,stim_03/a.jpg,1,1,f,5,40,340,3,f,1,0.749813089326,03,03,60.0179950873,PLT_learning_3,B,2014_Feb_19_1627,P05,
stim_fb/ques.jpg,stim_fb/posf.jpg,stim_fb/negf.jpg,stim_03/a.jpg,stim_03/b.jpg,2,1,j,5,41,341,19,j,1,0.866432730458,03,03,60.0179950873,PLT_learning_3,B,2014_Feb_19_1627,P05,
stim_fb/ques.jpg,stim_fb/negf.jpg,stim_fb/posf.jpg,stim_03/c.jpg,stim_03/d.jpg,2,2,j,5,42,342,30,j,1,0.949732233095,03,03,60.0179950873,PLT_learning_3,B,2014_Feb_19_1627,P05,
stim_fb/ques.jpg,stim_fb/posf.jpg,stim_fb/negf.jpg,stim_03/c.jpg,stim_03/d.jpg,2,2,j,5,43,343,37,j,1,0.799786339252,03,03,60.0179950873,PLT_learning_3,B,2014_Feb_19_1627,P05,
stim_fb/ques.jpg,stim_fb/negf.jpg,stim_fb/posf.jpg,stim_03/a.jpg,stim_03/b.jpg,2,1,j,5,44,344,12,j,1,0.899695768845,03,03,60.0179950873,PLT_learning_3,B,2014_Feb_19_1627,P05,
stim_fb/ques.jpg,stim_fb/negf.jpg,stim_fb/posf.jpg,stim_03/a.jpg,stim_03/b.jpg,2,1,j,5,45,345,13,j,1,1.06635198851,03,03,60.0179950873,PLT_learning_3,B,2014_Feb_19_1627,P05,
stim_fb/ques.jpg,stim_fb/posf.jpg,stim_fb/negf.jpg,stim_03/f.jpg,stim_03/e.jpg,1,3,f,5,46,346,46,f,1,0.833091329045,03,03,60.0179950873,PLT_learning_3,B,2014_Feb_19_1627,P05,
stim_fb/ques.jpg,stim_fb/negf.jpg,stim_fb/posf.jpg,stim_03/d.jpg,stim_03/c.jpg,1,2,f,5,47,347,23,f,1,0.649826541806,03,03,60.0179950873,PLT_learning_3,B,2014_Feb_19_1627,P05,
stim_fb/ques.jpg,stim_fb/negf.jpg,stim_fb/posf.jpg,stim_03/e.jpg,stim_03/f.jpg,2,3,j,5,48,348,55,j,1,0.68316874321,03,03,60.0179950873,PLT_learning_3,B,2014_Feb_19_1627,P05,
stim_fb/ques.jpg,stim_fb/negf.jpg,stim_fb/posf.jpg,stim_03/b.jpg,stim_03/a.jpg,1,1,f,5,49,349,0,f,1,1.03302469822,03,03,60.0179950873,PLT_learning_3,B,2014_Feb_19_1627,P05,
stim_fb/ques.jpg,stim_fb/negf.jpg,stim_fb/posf.jpg,stim_03/c.jpg,stim_03/d.jpg,2,2,j,5,50,350,35,j,1,0.866384727992,03,03,60.0179950873,PLT_learning_3,B,2014_Feb_19_1627,P05,
stim_fb/ques.jpg,stim_fb/negf.jpg,stim_fb/posf.jpg,stim_03/e.jpg,stim_03/f.jpg,2,3,j,5,51,351,51,j,1,1.01638414003,03,03,60.0179950873,PLT_learning_3,B,2014_Feb_19_1627,P05,
stim_fb/ques.jpg,stim_fb/posf.jpg,stim_fb/negf.jpg,stim_03/f.jpg,stim_03/e.jpg,1,3,f,5,52,352,49,f,1,0.66648101262,03,03,60.0179950873,PLT_learning_3,B,2014_Feb_19_1627,P05,
stim_fb/ques.jpg,stim_fb/posf.jpg,stim_fb/negf.jpg,stim_03/d.jpg,stim_03/c.jpg,1,2,f,5,53,353,28,f,1,0.666496579362,03,03,60.0179950873,PLT_learning_3,B,2014_Feb_19_1627,P05,
stim_fb/ques.jpg,stim_fb/negf.jpg,stim_fb/posf.jpg,stim_03/b.jpg,stim_03/a.jpg,1,1,f,5,54,354,6,f,1,1.08302579445,03,03,60.0179950873,PLT_learning_3,B,2014_Feb_19_1627,P05,
stim_fb/ques.jpg,stim_fb/negf.jpg,stim_fb/posf.jpg,stim_03/b.jpg,stim_03/a.jpg,1,1,f,5,55,355,7,f,1,1.26630733037,03,03,60.0179950873,PLT_learning_3,B,2014_Feb_19_1627,P05,
stim_fb/ques.jpg,stim_fb/negf.jpg,stim_fb/posf.jpg,stim_03/a.jpg,stim_03/b.jpg,2,1,j,5,56,356,11,j,1,1.49954959906,03,03,60.0179950873,PLT_learning_3,B,2014_Feb_19_1627,P05,
stim_fb/ques.jpg,stim_fb/negf.jpg,stim_fb/posf.jpg,stim_03/c.jpg,stim_03/d.jpg,2,2,j,5,57,357,33,j,1,1.06639603613,03,03,60.0179950873,PLT_learning_3,B,2014_Feb_19_1627,P05,
stim_fb/ques.jpg,stim_fb/negf.jpg,stim_fb/posf.jpg,stim_03/e.jpg,stim_03/f.jpg,2,3,j,5,58,358,53,j,1,1.01646137525,03,03,60.0179950873,PLT_learning_3,B,2014_Feb_19_1627,P05,
stim_fb/ques.jpg,stim_fb/negf.jpg,stim_fb/posf.jpg,stim_03/d.jpg,stim_03/c.jpg,1,2,f,5,59,359,25,f,1,0.766468913509,03,03,60.0179950873,PLT_learning_3,B,2014_Feb_19_1627,P05,
