Fb3,Fb2,Fb1,Symbol2,Symbol1,PosCond,Pair,Correct,trials.thisRepN,trials.thisTrialN,trials.thisN,trials.thisIndex,Response.keys,Response.corr,Response.rt,Version,Session Number,frameRate,expName,StimCondition,date,Participant,
stim_fb/ques.jpg,stim_fb/negf.jpg,stim_fb/posf.jpg,stim_01/d.jpg,stim_01/c.jpg,1,2,f,0,0,0,21,None,0,,01,02,60.0163040348,PLT_learning_01,B,2014_Feb_10_1512,P06,
stim_fb/ques.jpg,stim_fb/negf.jpg,stim_fb/posf.jpg,stim_01/d.jpg,stim_01/c.jpg,1,2,f,0,1,1,20,j,0,0.54987888708,01,02,60.0163040348,PLT_learning_01,B,2014_Feb_10_1512,P06,
stim_fb/ques.jpg,stim_fb/negf.jpg,stim_fb/posf.jpg,stim_01/e.jpg,stim_01/f.jpg,2,3,j,0,2,2,51,f,0,0.833117289655,01,02,60.0163040348,PLT_learning_01,B,2014_Feb_10_1512,P06,
stim_fb/ques.jpg,stim_fb/negf.jpg,stim_fb/posf.jpg,stim_01/a.jpg,stim_01/b.jpg,2,1,j,0,3,3,13,j,1,0.983104680774,01,02,60.0163040348,PLT_learning_01,B,2014_Feb_10_1512,P06,
stim_fb/ques.jpg,stim_fb/negf.jpg,stim_fb/posf.jpg,stim_01/b.jpg,stim_01/a.jpg,1,1,f,0,4,4,3,j,0,0.916396386507,01,02,60.0163040348,PLT_learning_01,B,2014_Feb_10_1512,P06,
stim_fb/ques.jpg,stim_fb/negf.jpg,stim_fb/posf.jpg,stim_01/b.jpg,stim_01/a.jpg,1,1,f,0,5,5,2,j,0,1.08301156002,01,02,60.0163040348,PLT_learning_01,B,2014_Feb_10_1512,P06,
stim_fb/ques.jpg,stim_fb/negf.jpg,stim_fb/posf.jpg,stim_01/b.jpg,stim_01/a.jpg,1,1,f,0,6,6,1,f,1,0.833112661136,01,02,60.0163040348,PLT_learning_01,B,2014_Feb_10_1512,P06,
stim_fb/ques.jpg,stim_fb/posf.jpg,stim_fb/negf.jpg,stim_01/f.jpg,stim_01/e.jpg,1,3,f,0,7,7,47,f,1,1.19966137525,01,02,60.0163040348,PLT_learning_01,B,2014_Feb_10_1512,P06,
stim_fb/ques.jpg,stim_fb/negf.jpg,stim_fb/posf.jpg,stim_01/d.jpg,stim_01/c.jpg,1,2,f,0,8,8,24,f,1,1.33293616989,01,02,60.0163040348,PLT_learning_01,B,2014_Feb_10_1512,P06,
stim_fb/ques.jpg,stim_fb/negf.jpg,stim_fb/posf.jpg,stim_01/c.jpg,stim_01/d.jpg,2,2,j,0,9,9,31,f,0,1.39964145668,01,02,60.0163040348,PLT_learning_01,B,2014_Feb_10_1512,P06,
stim_fb/ques.jpg,stim_fb/posf.jpg,stim_fb/negf.jpg,stim_01/d.jpg,stim_01/c.jpg,1,2,f,0,10,10,27,f,1,1.18293670673,01,02,60.0163040348,PLT_learning_01,B,2014_Feb_10_1512,P06,
stim_fb/ques.jpg,stim_fb/negf.jpg,stim_fb/posf.jpg,stim_01/b.jpg,stim_01/a.jpg,1,1,f,0,11,11,7,f,1,1.23298602798,01,02,60.0163040348,PLT_learning_01,B,2014_Feb_10_1512,P06,
stim_fb/ques.jpg,stim_fb/negf.jpg,stim_fb/posf.jpg,stim_01/a.jpg,stim_01/b.jpg,2,1,j,0,12,12,10,j,1,0.983063321842,01,02,60.0163040348,PLT_learning_01,B,2014_Feb_10_1512,P06,
stim_fb/ques.jpg,stim_fb/negf.jpg,stim_fb/posf.jpg,stim_01/d.jpg,stim_01/c.jpg,1,2,f,0,13,13,25,f,1,1.24966327147,01,02,60.0163040348,PLT_learning_01,B,2014_Feb_10_1512,P06,
stim_fb/ques.jpg,stim_fb/negf.jpg,stim_fb/posf.jpg,stim_01/a.jpg,stim_01/b.jpg,2,1,j,0,14,14,11,j,1,1.04970284095,01,02,60.0163040348,PLT_learning_01,B,2014_Feb_10_1512,P06,
stim_fb/ques.jpg,stim_fb/posf.jpg,stim_fb/negf.jpg,stim_01/c.jpg,stim_01/d.jpg,2,2,j,0,15,15,38,j,1,1.56618830314,01,02,60.0163040348,PLT_learning_01,B,2014_Feb_10_1512,P06,
stim_fb/ques.jpg,stim_fb/negf.jpg,stim_fb/posf.jpg,stim_01/b.jpg,stim_01/a.jpg,1,1,f,0,16,16,5,f,1,1.28292009338,01,02,60.0163040348,PLT_learning_01,B,2014_Feb_10_1512,P06,
stim_fb/ques.jpg,stim_fb/posf.jpg,stim_fb/negf.jpg,stim_01/a.jpg,stim_01/b.jpg,2,1,j,0,17,17,19,j,1,0.833077118679,01,02,60.0163040348,PLT_learning_01,B,2014_Feb_10_1512,P06,
stim_fb/ques.jpg,stim_fb/negf.jpg,stim_fb/posf.jpg,stim_01/c.jpg,stim_01/d.jpg,2,2,j,0,18,18,30,j,1,1.31627824649,01,02,60.0163040348,PLT_learning_01,B,2014_Feb_10_1512,P06,
stim_fb/ques.jpg,stim_fb/posf.jpg,stim_fb/negf.jpg,stim_01/d.jpg,stim_01/c.jpg,1,2,f,0,19,19,28,f,1,0.966456053503,01,02,60.0163040348,PLT_learning_01,B,2014_Feb_10_1512,P06,
stim_fb/ques.jpg,stim_fb/negf.jpg,stim_fb/posf.jpg,stim_01/f.jpg,stim_01/e.jpg,1,3,f,0,20,20,42,j,0,1.13300465032,01,02,60.0163040348,PLT_learning_01,B,2014_Feb_10_1512,P06,
stim_fb/ques.jpg,stim_fb/posf.jpg,stim_fb/negf.jpg,stim_01/f.jpg,stim_01/e.jpg,1,3,f,0,21,21,46,f,1,1.21629470946,01,02,60.0163040348,PLT_learning_01,B,2014_Feb_10_1512,P06,
stim_fb/ques.jpg,stim_fb/negf.jpg,stim_fb/posf.jpg,stim_01/e.jpg,stim_01/f.jpg,2,3,j,0,22,22,52,j,1,1.09968068631,01,02,60.0163040348,PLT_learning_01,B,2014_Feb_10_1512,P06,
stim_fb/ques.jpg,stim_fb/negf.jpg,stim_fb/posf.jpg,stim_01/b.jpg,stim_01/a.jpg,1,1,f,0,23,23,0,f,1,1.23295542381,01,02,60.0163040348,PLT_learning_01,B,2014_Feb_10_1512,P06,
stim_fb/ques.jpg,stim_fb/negf.jpg,stim_fb/posf.jpg,stim_01/a.jpg,stim_01/b.jpg,2,1,j,0,24,24,14,j,1,0.949728702308,01,02,60.0163040348,PLT_learning_01,B,2014_Feb_10_1512,P06,
stim_fb/ques.jpg,stim_fb/negf.jpg,stim_fb/posf.jpg,stim_01/b.jpg,stim_01/a.jpg,1,1,f,0,25,25,6,f,1,0.84979342639,01,02,60.0163040348,PLT_learning_01,B,2014_Feb_10_1512,P06,
stim_fb/ques.jpg,stim_fb/negf.jpg,stim_fb/posf.jpg,stim_01/c.jpg,stim_01/d.jpg,2,2,j,0,26,26,35,j,1,1.21623378984,01,02,60.0163040348,PLT_learning_01,B,2014_Feb_10_1512,P06,
stim_fb/ques.jpg,stim_fb/posf.jpg,stim_fb/negf.jpg,stim_01/e.jpg,stim_01/f.jpg,2,3,j,0,27,27,58,j,1,0.966396721841,01,02,60.0163040348,PLT_learning_01,B,2014_Feb_10_1512,P06,
stim_fb/ques.jpg,stim_fb/negf.jpg,stim_fb/posf.jpg,stim_01/d.jpg,stim_01/c.jpg,1,2,f,0,28,28,22,f,1,1.09963073198,01,02,60.0163040348,PLT_learning_01,B,2014_Feb_10_1512,P06,
stim_fb/ques.jpg,stim_fb/posf.jpg,stim_fb/negf.jpg,stim_01/e.jpg,stim_01/f.jpg,2,3,j,0,29,29,59,f,0,1.26630361913,01,02,60.0163040348,PLT_learning_01,B,2014_Feb_10_1512,P06,
stim_fb/ques.jpg,stim_fb/posf.jpg,stim_fb/negf.jpg,stim_01/a.jpg,stim_01/b.jpg,2,1,j,0,30,30,18,j,1,1.29962182081,01,02,60.0163040348,PLT_learning_01,B,2014_Feb_10_1512,P06,
stim_fb/ques.jpg,stim_fb/posf.jpg,stim_fb/negf.jpg,stim_01/f.jpg,stim_01/e.jpg,1,3,f,0,31,31,49,j,0,1.19966166096,01,02,60.0163040348,PLT_learning_01,B,2014_Feb_10_1512,P06,
stim_fb/ques.jpg,stim_fb/negf.jpg,stim_fb/posf.jpg,stim_01/e.jpg,stim_01/f.jpg,2,3,j,0,32,32,55,f,0,0.849789597862,01,02,60.0163040348,PLT_learning_01,B,2014_Feb_10_1512,P06,
stim_fb/ques.jpg,stim_fb/negf.jpg,stim_fb/posf.jpg,stim_01/f.jpg,stim_01/e.jpg,1,3,f,0,33,33,44,j,0,1.08299710605,01,02,60.0163040348,PLT_learning_01,B,2014_Feb_10_1512,P06,
stim_fb/ques.jpg,stim_fb/negf.jpg,stim_fb/posf.jpg,stim_01/c.jpg,stim_01/d.jpg,2,2,j,0,34,34,34,j,1,1.48289146513,01,02,60.0163040348,PLT_learning_01,B,2014_Feb_10_1512,P06,
stim_fb/ques.jpg,stim_fb/posf.jpg,stim_fb/negf.jpg,stim_01/b.jpg,stim_01/a.jpg,1,1,f,0,35,35,8,f,1,1.06636515829,01,02,60.0163040348,PLT_learning_01,B,2014_Feb_10_1512,P06,
stim_fb/ques.jpg,stim_fb/negf.jpg,stim_fb/posf.jpg,stim_01/a.jpg,stim_01/b.jpg,2,1,j,0,36,36,16,j,1,0.766471520998,01,02,60.0163040348,PLT_learning_01,B,2014_Feb_10_1512,P06,
stim_fb/ques.jpg,stim_fb/posf.jpg,stim_fb/negf.jpg,stim_01/c.jpg,stim_01/d.jpg,2,2,j,0,37,37,37,j,1,1.19965455728,01,02,60.0163040348,PLT_learning_01,B,2014_Feb_10_1512,P06,
stim_fb/ques.jpg,stim_fb/negf.jpg,stim_fb/posf.jpg,stim_01/f.jpg,stim_01/e.jpg,1,3,f,0,38,38,40,j,0,1.21630914539,01,02,60.0163040348,PLT_learning_01,B,2014_Feb_10_1512,P06,
stim_fb/ques.jpg,stim_fb/negf.jpg,stim_fb/posf.jpg,stim_01/d.jpg,stim_01/c.jpg,1,2,f,0,39,39,23,f,1,0.983048852833,01,02,60.0163040348,PLT_learning_01,B,2014_Feb_10_1512,P06,
stim_fb/ques.jpg,stim_fb/negf.jpg,stim_fb/posf.jpg,stim_01/c.jpg,stim_01/d.jpg,2,2,j,0,40,40,33,j,1,1.21631171679,01,02,60.0163040348,PLT_learning_01,B,2014_Feb_10_1512,P06,
stim_fb/ques.jpg,stim_fb/negf.jpg,stim_fb/posf.jpg,stim_01/c.jpg,stim_01/d.jpg,2,2,j,0,41,41,36,j,1,0.866445280692,01,02,60.0163040348,PLT_learning_01,B,2014_Feb_10_1512,P06,
stim_fb/ques.jpg,stim_fb/negf.jpg,stim_fb/posf.jpg,stim_01/f.jpg,stim_01/e.jpg,1,3,f,0,42,42,41,j,0,1.1163583719,01,02,60.0163040348,PLT_learning_01,B,2014_Feb_10_1512,P06,
stim_fb/ques.jpg,stim_fb/negf.jpg,stim_fb/posf.jpg,stim_01/e.jpg,stim_01/f.jpg,2,3,j,0,43,43,53,j,1,1.26625820611,01,02,60.0163040348,PLT_learning_01,B,2014_Feb_10_1512,P06,
stim_fb/ques.jpg,stim_fb/negf.jpg,stim_fb/posf.jpg,stim_01/d.jpg,stim_01/c.jpg,1,2,f,0,44,44,26,f,1,1.06636012376,01,02,60.0163040348,PLT_learning_01,B,2014_Feb_10_1512,P06,
stim_fb/ques.jpg,stim_fb/posf.jpg,stim_fb/negf.jpg,stim_01/e.jpg,stim_01/f.jpg,2,3,j,0,45,45,56,j,1,0.949727339917,01,02,60.0163040348,PLT_learning_01,B,2014_Feb_10_1512,P06,
stim_fb/ques.jpg,stim_fb/negf.jpg,stim_fb/posf.jpg,stim_01/a.jpg,stim_01/b.jpg,2,1,j,0,46,46,17,j,1,1.18298920538,01,02,60.0163040348,PLT_learning_01,B,2014_Feb_10_1512,P06,
stim_fb/ques.jpg,stim_fb/posf.jpg,stim_fb/negf.jpg,stim_01/b.jpg,stim_01/a.jpg,1,1,f,0,47,47,9,f,1,1.23297206122,01,02,60.0163040348,PLT_learning_01,B,2014_Feb_10_1512,P06,
stim_fb/ques.jpg,stim_fb/posf.jpg,stim_fb/negf.jpg,stim_01/c.jpg,stim_01/d.jpg,2,2,j,0,48,48,39,j,1,0.883095318474,01,02,60.0163040348,PLT_learning_01,B,2014_Feb_10_1512,P06,
stim_fb/ques.jpg,stim_fb/negf.jpg,stim_fb/posf.jpg,stim_01/b.jpg,stim_01/a.jpg,1,1,f,0,49,49,4,j,0,1.04971716259,01,02,60.0163040348,PLT_learning_01,B,2014_Feb_10_1512,P06,
stim_fb/ques.jpg,stim_fb/negf.jpg,stim_fb/posf.jpg,stim_01/f.jpg,stim_01/e.jpg,1,3,f,0,50,50,45,f,1,1.1163534306,01,02,60.0163040348,PLT_learning_01,B,2014_Feb_10_1512,P06,
stim_fb/ques.jpg,stim_fb/posf.jpg,stim_fb/negf.jpg,stim_01/d.jpg,stim_01/c.jpg,1,2,f,0,51,51,29,j,0,0.899756631316,01,02,60.0163040348,PLT_learning_01,B,2014_Feb_10_1512,P06,
stim_fb/ques.jpg,stim_fb/negf.jpg,stim_fb/posf.jpg,stim_01/c.jpg,stim_01/d.jpg,2,2,j,0,52,52,32,j,1,0.966403139814,01,02,60.0163040348,PLT_learning_01,B,2014_Feb_10_1512,P06,
stim_fb/ques.jpg,stim_fb/negf.jpg,stim_fb/posf.jpg,stim_01/e.jpg,stim_01/f.jpg,2,3,j,0,53,53,50,j,1,1.14967166836,01,02,60.0163040348,PLT_learning_01,B,2014_Feb_10_1512,P06,
stim_fb/ques.jpg,stim_fb/negf.jpg,stim_fb/posf.jpg,stim_01/a.jpg,stim_01/b.jpg,2,1,j,0,54,54,12,j,1,0.816433871798,01,02,60.0163040348,PLT_learning_01,B,2014_Feb_10_1512,P06,
stim_fb/ques.jpg,stim_fb/negf.jpg,stim_fb/posf.jpg,stim_01/f.jpg,stim_01/e.jpg,1,3,f,0,55,55,43,f,1,0.966406011962,01,02,60.0163040348,PLT_learning_01,B,2014_Feb_10_1512,P06,
stim_fb/ques.jpg,stim_fb/posf.jpg,stim_fb/negf.jpg,stim_01/f.jpg,stim_01/e.jpg,1,3,f,0,56,56,48,f,1,0.883064912802,01,02,60.0163040348,PLT_learning_01,B,2014_Feb_10_1512,P06,
stim_fb/ques.jpg,stim_fb/negf.jpg,stim_fb/posf.jpg,stim_01/a.jpg,stim_01/b.jpg,2,1,j,0,57,57,15,j,1,0.916415640425,01,02,60.0163040348,PLT_learning_01,B,2014_Feb_10_1512,P06,
stim_fb/ques.jpg,stim_fb/negf.jpg,stim_fb/posf.jpg,stim_01/e.jpg,stim_01/f.jpg,2,3,j,0,58,58,54,j,1,0.999703510111,01,02,60.0163040348,PLT_learning_01,B,2014_Feb_10_1512,P06,
stim_fb/ques.jpg,stim_fb/posf.jpg,stim_fb/negf.jpg,stim_01/e.jpg,stim_01/f.jpg,2,3,j,0,59,59,57,j,1,0.983032672564,01,02,60.0163040348,PLT_learning_01,B,2014_Feb_10_1512,P06,
stim_fb/ques.jpg,stim_fb/negf.jpg,stim_fb/posf.jpg,stim_01/b.jpg,stim_01/a.jpg,1,1,f,1,0,60,5,f,1,0.883070891682,01,02,60.0163040348,PLT_learning_01,B,2014_Feb_10_1512,P06,
stim_fb/ques.jpg,stim_fb/posf.jpg,stim_fb/negf.jpg,stim_01/a.jpg,stim_01/b.jpg,2,1,j,1,1,61,19,j,1,0.766619080236,01,02,60.0163040348,PLT_learning_01,B,2014_Feb_10_1512,P06,
stim_fb/ques.jpg,stim_fb/negf.jpg,stim_fb/posf.jpg,stim_01/e.jpg,stim_01/f.jpg,2,3,j,1,2,62,51,j,1,1.11633429397,01,02,60.0163040348,PLT_learning_01,B,2014_Feb_10_1512,P06,
stim_fb/ques.jpg,stim_fb/negf.jpg,stim_fb/posf.jpg,stim_01/b.jpg,stim_01/a.jpg,1,1,f,1,3,63,0,f,1,0.883079357752,01,02,60.0163040348,PLT_learning_01,B,2014_Feb_10_1512,P06,
stim_fb/ques.jpg,stim_fb/negf.jpg,stim_fb/posf.jpg,stim_01/e.jpg,stim_01/f.jpg,2,3,j,1,4,64,50,j,1,0.766529974474,01,02,60.0163040348,PLT_learning_01,B,2014_Feb_10_1512,P06,
stim_fb/ques.jpg,stim_fb/negf.jpg,stim_fb/posf.jpg,stim_01/b.jpg,stim_01/a.jpg,1,1,f,1,5,65,2,f,1,0.799797518073,01,02,60.0163040348,PLT_learning_01,B,2014_Feb_10_1512,P06,
stim_fb/ques.jpg,stim_fb/negf.jpg,stim_fb/posf.jpg,stim_01/f.jpg,stim_01/e.jpg,1,3,f,1,6,66,42,f,1,0.966382655835,01,02,60.0163040348,PLT_learning_01,B,2014_Feb_10_1512,P06,
stim_fb/ques.jpg,stim_fb/negf.jpg,stim_fb/posf.jpg,stim_01/c.jpg,stim_01/d.jpg,2,2,j,1,7,67,31,j,1,0.899804179652,01,02,60.0163040348,PLT_learning_01,B,2014_Feb_10_1512,P06,
stim_fb/ques.jpg,stim_fb/negf.jpg,stim_fb/posf.jpg,stim_01/a.jpg,stim_01/b.jpg,2,1,j,1,8,68,15,j,1,0.833075735236,01,02,60.0163040348,PLT_learning_01,B,2014_Feb_10_1512,P06,
stim_fb/ques.jpg,stim_fb/posf.jpg,stim_fb/negf.jpg,stim_01/e.jpg,stim_01/f.jpg,2,3,j,1,9,69,58,j,1,1.18300235411,01,02,60.0163040348,PLT_learning_01,B,2014_Feb_10_1512,P06,
stim_fb/ques.jpg,stim_fb/negf.jpg,stim_fb/posf.jpg,stim_01/d.jpg,stim_01/c.jpg,1,2,f,1,10,70,21,f,1,0.949772783014,01,02,60.0163040348,PLT_learning_01,B,2014_Feb_10_1512,P06,
stim_fb/ques.jpg,stim_fb/negf.jpg,stim_fb/posf.jpg,stim_01/f.jpg,stim_01/e.jpg,1,3,f,1,11,71,44,f,1,0.999716812217,01,02,60.0163040348,PLT_learning_01,B,2014_Feb_10_1512,P06,
stim_fb/ques.jpg,stim_fb/negf.jpg,stim_fb/posf.jpg,stim_01/a.jpg,stim_01/b.jpg,2,1,j,1,12,72,16,j,1,1.18284941448,01,02,60.0163040348,PLT_learning_01,B,2014_Feb_10_1512,P06,
stim_fb/ques.jpg,stim_fb/posf.jpg,stim_fb/negf.jpg,stim_01/f.jpg,stim_01/e.jpg,1,3,f,1,13,73,47,f,1,0.933081136679,01,02,60.0163040348,PLT_learning_01,B,2014_Feb_10_1512,P06,
stim_fb/ques.jpg,stim_fb/negf.jpg,stim_fb/posf.jpg,stim_01/f.jpg,stim_01/e.jpg,1,3,f,1,14,74,40,f,1,1.16635524261,01,02,60.0163040348,PLT_learning_01,B,2014_Feb_10_1512,P06,
stim_fb/ques.jpg,stim_fb/posf.jpg,stim_fb/negf.jpg,stim_01/b.jpg,stim_01/a.jpg,1,1,f,1,15,75,8,f,1,1.06640815931,01,02,60.0163040348,PLT_learning_01,B,2014_Feb_10_1512,P06,
stim_fb/ques.jpg,stim_fb/posf.jpg,stim_fb/negf.jpg,stim_01/b.jpg,stim_01/a.jpg,1,1,f,1,16,76,9,f,1,0.649808683361,01,02,60.0163040348,PLT_learning_01,B,2014_Feb_10_1512,P06,
stim_fb/ques.jpg,stim_fb/negf.jpg,stim_fb/posf.jpg,stim_01/a.jpg,stim_01/b.jpg,2,1,j,1,17,77,14,j,1,0.649837970248,01,02,60.0163040348,PLT_learning_01,B,2014_Feb_10_1512,P06,
stim_fb/ques.jpg,stim_fb/posf.jpg,stim_fb/negf.jpg,stim_01/c.jpg,stim_01/d.jpg,2,2,j,1,18,78,37,j,1,0.84977961602,01,02,60.0163040348,PLT_learning_01,B,2014_Feb_10_1512,P06,
stim_fb/ques.jpg,stim_fb/posf.jpg,stim_fb/negf.jpg,stim_01/d.jpg,stim_01/c.jpg,1,2,f,1,19,79,29,f,1,0.933092541062,01,02,60.0163040348,PLT_learning_01,B,2014_Feb_10_1512,P06,
stim_fb/ques.jpg,stim_fb/negf.jpg,stim_fb/posf.jpg,stim_01/d.jpg,stim_01/c.jpg,1,2,f,1,20,80,22,f,1,0.866424613256,01,02,60.0163040348,PLT_learning_01,B,2014_Feb_10_1512,P06,
stim_fb/ques.jpg,stim_fb/posf.jpg,stim_fb/negf.jpg,stim_01/d.jpg,stim_01/c.jpg,1,2,f,1,21,81,28,f,1,0.816433146995,01,02,60.0163040348,PLT_learning_01,B,2014_Feb_10_1512,P06,
stim_fb/ques.jpg,stim_fb/negf.jpg,stim_fb/posf.jpg,stim_01/e.jpg,stim_01/f.jpg,2,3,j,1,22,82,55,j,1,1.04970921982,01,02,60.0163040348,PLT_learning_01,B,2014_Feb_10_1512,P06,
stim_fb/ques.jpg,stim_fb/negf.jpg,stim_fb/posf.jpg,stim_01/a.jpg,stim_01/b.jpg,2,1,j,1,23,83,11,j,1,0.91641113822,01,02,60.0163040348,PLT_learning_01,B,2014_Feb_10_1512,P06,
stim_fb/ques.jpg,stim_fb/negf.jpg,stim_fb/posf.jpg,stim_01/a.jpg,stim_01/b.jpg,2,1,j,1,24,84,10,j,1,0.816386660301,01,02,60.0163040348,PLT_learning_01,B,2014_Feb_10_1512,P06,
stim_fb/ques.jpg,stim_fb/negf.jpg,stim_fb/posf.jpg,stim_01/d.jpg,stim_01/c.jpg,1,2,f,1,25,85,20,f,1,0.966371958211,01,02,60.0163040348,PLT_learning_01,B,2014_Feb_10_1512,P06,
stim_fb/ques.jpg,stim_fb/negf.jpg,stim_fb/posf.jpg,stim_01/d.jpg,stim_01/c.jpg,1,2,f,1,26,86,25,f,1,1.04971590847,01,02,60.0163040348,PLT_learning_01,B,2014_Feb_10_1512,P06,
stim_fb/ques.jpg,stim_fb/negf.jpg,stim_fb/posf.jpg,stim_01/f.jpg,stim_01/e.jpg,1,3,f,1,27,87,41,f,1,0.96639249031,01,02,60.0163040348,PLT_learning_01,B,2014_Feb_10_1512,P06,
stim_fb/ques.jpg,stim_fb/posf.jpg,stim_fb/negf.jpg,stim_01/f.jpg,stim_01/e.jpg,1,3,f,1,28,88,48,f,1,1.08306845863,01,02,60.0163040348,PLT_learning_01,B,2014_Feb_10_1512,P06,
stim_fb/ques.jpg,stim_fb/negf.jpg,stim_fb/posf.jpg,stim_01/a.jpg,stim_01/b.jpg,2,1,j,1,29,89,12,j,1,1.01639760153,01,02,60.0163040348,PLT_learning_01,B,2014_Feb_10_1512,P06,
stim_fb/ques.jpg,stim_fb/negf.jpg,stim_fb/posf.jpg,stim_01/d.jpg,stim_01/c.jpg,1,2,f,1,30,90,24,f,1,1.08287017816,01,02,60.0163040348,PLT_learning_01,B,2014_Feb_10_1512,P06,
stim_fb/ques.jpg,stim_fb/posf.jpg,stim_fb/negf.jpg,stim_01/e.jpg,stim_01/f.jpg,2,3,j,1,31,91,57,j,1,1.24962841772,01,02,60.0163040348,PLT_learning_01,B,2014_Feb_10_1512,P06,
stim_fb/ques.jpg,stim_fb/posf.jpg,stim_fb/negf.jpg,stim_01/c.jpg,stim_01/d.jpg,2,2,j,1,32,92,38,j,1,0.933093214738,01,02,60.0163040348,PLT_learning_01,B,2014_Feb_10_1512,P06,
stim_fb/ques.jpg,stim_fb/negf.jpg,stim_fb/posf.jpg,stim_01/b.jpg,stim_01/a.jpg,1,1,f,1,33,93,3,f,1,1.44956743195,01,02,60.0163040348,PLT_learning_01,B,2014_Feb_10_1512,P06,
stim_fb/ques.jpg,stim_fb/negf.jpg,stim_fb/posf.jpg,stim_01/a.jpg,stim_01/b.jpg,2,1,j,1,34,94,17,j,1,0.683140337515,01,02,60.0163040348,PLT_learning_01,B,2014_Feb_10_1512,P06,
stim_fb/ques.jpg,stim_fb/posf.jpg,stim_fb/negf.jpg,stim_01/e.jpg,stim_01/f.jpg,2,3,j,1,35,95,59,f,0,1.19964662955,01,02,60.0163040348,PLT_learning_01,B,2014_Feb_10_1512,P06,
stim_fb/ques.jpg,stim_fb/negf.jpg,stim_fb/posf.jpg,stim_01/f.jpg,stim_01/e.jpg,1,3,f,1,36,96,43,j,0,0.666481863738,01,02,60.0163040348,PLT_learning_01,B,2014_Feb_10_1512,P06,
stim_fb/ques.jpg,stim_fb/negf.jpg,stim_fb/posf.jpg,stim_01/d.jpg,stim_01/c.jpg,1,2,f,1,37,97,23,f,1,0.833139301436,01,02,60.0163040348,PLT_learning_01,B,2014_Feb_10_1512,P06,
stim_fb/ques.jpg,stim_fb/negf.jpg,stim_fb/posf.jpg,stim_01/c.jpg,stim_01/d.jpg,2,2,j,1,38,98,36,j,1,0.749787862543,01,02,60.0163040348,PLT_learning_01,B,2014_Feb_10_1512,P06,
stim_fb/ques.jpg,stim_fb/posf.jpg,stim_fb/negf.jpg,stim_01/d.jpg,stim_01/c.jpg,1,2,f,1,39,99,27,f,1,0.799784354312,01,02,60.0163040348,PLT_learning_01,B,2014_Feb_10_1512,P06,
stim_fb/ques.jpg,stim_fb/posf.jpg,stim_fb/negf.jpg,stim_01/e.jpg,stim_01/f.jpg,2,3,j,1,40,100,56,f,0,1.24964222509,01,02,60.0163040348,PLT_learning_01,B,2014_Feb_10_1512,P06,
stim_fb/ques.jpg,stim_fb/negf.jpg,stim_fb/posf.jpg,stim_01/b.jpg,stim_01/a.jpg,1,1,f,1,41,101,6,f,1,0.749780581422,01,02,60.0163040348,PLT_learning_01,B,2014_Feb_10_1512,P06,
stim_fb/ques.jpg,stim_fb/negf.jpg,stim_fb/posf.jpg,stim_01/b.jpg,stim_01/a.jpg,1,1,f,1,42,102,4,f,1,0.816487302775,01,02,60.0163040348,PLT_learning_01,B,2014_Feb_10_1512,P06,
stim_fb/ques.jpg,stim_fb/negf.jpg,stim_fb/posf.jpg,stim_01/e.jpg,stim_01/f.jpg,2,3,j,1,43,103,54,j,1,0.866431509419,01,02,60.0163040348,PLT_learning_01,B,2014_Feb_10_1512,P06,
stim_fb/ques.jpg,stim_fb/negf.jpg,stim_fb/posf.jpg,stim_01/a.jpg,stim_01/b.jpg,2,1,j,1,44,104,13,j,1,0.749803471389,01,02,60.0163040348,PLT_learning_01,B,2014_Feb_10_1512,P06,
stim_fb/ques.jpg,stim_fb/negf.jpg,stim_fb/posf.jpg,stim_01/c.jpg,stim_01/d.jpg,2,2,j,1,45,105,32,j,1,0.933080294583,01,02,60.0163040348,PLT_learning_01,B,2014_Feb_10_1512,P06,
stim_fb/ques.jpg,stim_fb/negf.jpg,stim_fb/posf.jpg,stim_01/c.jpg,stim_01/d.jpg,2,2,j,1,46,106,34,j,1,0.699752261441,01,02,60.0163040348,PLT_learning_01,B,2014_Feb_10_1512,P06,
stim_fb/ques.jpg,stim_fb/posf.jpg,stim_fb/negf.jpg,stim_01/f.jpg,stim_01/e.jpg,1,3,f,1,47,107,49,f,1,0.949781083672,01,02,60.0163040348,PLT_learning_01,B,2014_Feb_10_1512,P06,
stim_fb/ques.jpg,stim_fb/posf.jpg,stim_fb/negf.jpg,stim_01/c.jpg,stim_01/d.jpg,2,2,j,1,48,108,39,j,1,0.599833289098,01,02,60.0163040348,PLT_learning_01,B,2014_Feb_10_1512,P06,
stim_fb/ques.jpg,stim_fb/negf.jpg,stim_fb/posf.jpg,stim_01/f.jpg,stim_01/e.jpg,1,3,f,1,49,109,45,j,0,1.26631062657,01,02,60.0163040348,PLT_learning_01,B,2014_Feb_10_1512,P06,
stim_fb/ques.jpg,stim_fb/posf.jpg,stim_fb/negf.jpg,stim_01/f.jpg,stim_01/e.jpg,1,3,f,1,50,110,46,j,0,0.766445530314,01,02,60.0163040348,PLT_learning_01,B,2014_Feb_10_1512,P06,
stim_fb/ques.jpg,stim_fb/negf.jpg,stim_fb/posf.jpg,stim_01/c.jpg,stim_01/d.jpg,2,2,j,1,51,111,33,j,1,0.983062609068,01,02,60.0163040348,PLT_learning_01,B,2014_Feb_10_1512,P06,
stim_fb/ques.jpg,stim_fb/negf.jpg,stim_fb/posf.jpg,stim_01/b.jpg,stim_01/a.jpg,1,1,f,1,52,112,1,f,1,0.983070338304,01,02,60.0163040348,PLT_learning_01,B,2014_Feb_10_1512,P06,
stim_fb/ques.jpg,stim_fb/negf.jpg,stim_fb/posf.jpg,stim_01/e.jpg,stim_01/f.jpg,2,3,j,1,53,113,52,f,0,1.16631840694,01,02,60.0163040348,PLT_learning_01,B,2014_Feb_10_1512,P06,
stim_fb/ques.jpg,stim_fb/posf.jpg,stim_fb/negf.jpg,stim_01/a.jpg,stim_01/b.jpg,2,1,j,1,54,114,18,j,1,0.899779518276,01,02,60.0163040348,PLT_learning_01,B,2014_Feb_10_1512,P06,
stim_fb/ques.jpg,stim_fb/negf.jpg,stim_fb/posf.jpg,stim_01/d.jpg,stim_01/c.jpg,1,2,f,1,55,115,26,f,1,0.899758625279,01,02,60.0163040348,PLT_learning_01,B,2014_Feb_10_1512,P06,
stim_fb/ques.jpg,stim_fb/negf.jpg,stim_fb/posf.jpg,stim_01/c.jpg,stim_01/d.jpg,2,2,j,1,56,116,30,j,1,1.38292097458,01,02,60.0163040348,PLT_learning_01,B,2014_Feb_10_1512,P06,
stim_fb/ques.jpg,stim_fb/negf.jpg,stim_fb/posf.jpg,stim_01/c.jpg,stim_01/d.jpg,2,2,j,1,57,117,35,j,1,0.849770088307,01,02,60.0163040348,PLT_learning_01,B,2014_Feb_10_1512,P06,
stim_fb/ques.jpg,stim_fb/negf.jpg,stim_fb/posf.jpg,stim_01/e.jpg,stim_01/f.jpg,2,3,j,1,58,118,53,j,1,1.16636763044,01,02,60.0163040348,PLT_learning_01,B,2014_Feb_10_1512,P06,
stim_fb/ques.jpg,stim_fb/negf.jpg,stim_fb/posf.jpg,stim_01/b.jpg,stim_01/a.jpg,1,1,f,1,59,119,7,f,1,1.26632867148,01,02,60.0163040348,PLT_learning_01,B,2014_Feb_10_1512,P06,
stim_fb/ques.jpg,stim_fb/negf.jpg,stim_fb/posf.jpg,stim_01/b.jpg,stim_01/a.jpg,1,1,f,2,0,120,6,f,1,0.849757462886,01,02,60.0163040348,PLT_learning_01,B,2014_Feb_10_1512,P06,
stim_fb/ques.jpg,stim_fb/posf.jpg,stim_fb/negf.jpg,stim_01/f.jpg,stim_01/e.jpg,1,3,f,2,1,121,48,f,1,1.0830414875,01,02,60.0163040348,PLT_learning_01,B,2014_Feb_10_1512,P06,
stim_fb/ques.jpg,stim_fb/posf.jpg,stim_fb/negf.jpg,stim_01/f.jpg,stim_01/e.jpg,1,3,f,2,2,122,49,j,0,1.04960532325,01,02,60.0163040348,PLT_learning_01,B,2014_Feb_10_1512,P06,
stim_fb/ques.jpg,stim_fb/posf.jpg,stim_fb/negf.jpg,stim_01/b.jpg,stim_01/a.jpg,1,1,f,2,3,123,9,f,1,0.699779031064,01,02,60.0163040348,PLT_learning_01,B,2014_Feb_10_1512,P06,
stim_fb/ques.jpg,stim_fb/negf.jpg,stim_fb/posf.jpg,stim_01/d.jpg,stim_01/c.jpg,1,2,f,2,4,124,24,f,1,0.899713885934,01,02,60.0163040348,PLT_learning_01,B,2014_Feb_10_1512,P06,
stim_fb/ques.jpg,stim_fb/negf.jpg,stim_fb/posf.jpg,stim_01/e.jpg,stim_01/f.jpg,2,3,j,2,5,125,55,f,0,1.06634831938,01,02,60.0163040348,PLT_learning_01,B,2014_Feb_10_1512,P06,
stim_fb/ques.jpg,stim_fb/negf.jpg,stim_fb/posf.jpg,stim_01/b.jpg,stim_01/a.jpg,1,1,f,2,6,126,0,f,1,0.799777437097,01,02,60.0163040348,PLT_learning_01,B,2014_Feb_10_1512,P06,
stim_fb/ques.jpg,stim_fb/posf.jpg,stim_fb/negf.jpg,stim_01/c.jpg,stim_01/d.jpg,2,2,j,2,7,127,39,j,1,0.683150701308,01,02,60.0163040348,PLT_learning_01,B,2014_Feb_10_1512,P06,
stim_fb/ques.jpg,stim_fb/negf.jpg,stim_fb/posf.jpg,stim_01/a.jpg,stim_01/b.jpg,2,1,j,2,8,128,15,j,1,0.849609599892,01,02,60.0163040348,PLT_learning_01,B,2014_Feb_10_1512,P06,
stim_fb/ques.jpg,stim_fb/negf.jpg,stim_fb/posf.jpg,stim_01/a.jpg,stim_01/b.jpg,2,1,j,2,9,129,17,j,1,0.716482938914,01,02,60.0163040348,PLT_learning_01,B,2014_Feb_10_1512,P06,
stim_fb/ques.jpg,stim_fb/negf.jpg,stim_fb/posf.jpg,stim_01/c.jpg,stim_01/d.jpg,2,2,j,2,10,130,35,j,1,0.866669651094,01,02,60.0163040348,PLT_learning_01,B,2014_Feb_10_1512,P06,
stim_fb/ques.jpg,stim_fb/negf.jpg,stim_fb/posf.jpg,stim_01/a.jpg,stim_01/b.jpg,2,1,j,2,11,131,11,j,1,0.766457283564,01,02,60.0163040348,PLT_learning_01,B,2014_Feb_10_1512,P06,
stim_fb/ques.jpg,stim_fb/negf.jpg,stim_fb/posf.jpg,stim_01/e.jpg,stim_01/f.jpg,2,3,j,2,12,132,51,j,1,1.31626630978,01,02,60.0163040348,PLT_learning_01,B,2014_Feb_10_1512,P06,
stim_fb/ques.jpg,stim_fb/negf.jpg,stim_fb/posf.jpg,stim_01/f.jpg,stim_01/e.jpg,1,3,f,2,13,133,45,None,0,,01,02,60.0163040348,PLT_learning_01,B,2014_Feb_10_1512,P06,
stim_fb/ques.jpg,stim_fb/negf.jpg,stim_fb/posf.jpg,stim_01/b.jpg,stim_01/a.jpg,1,1,f,2,14,134,3,f,1,0.699854206156,01,02,60.0163040348,PLT_learning_01,B,2014_Feb_10_1512,P06,
stim_fb/ques.jpg,stim_fb/negf.jpg,stim_fb/posf.jpg,stim_01/f.jpg,stim_01/e.jpg,1,3,f,2,15,135,40,j,0,0.799790835442,01,02,60.0163040348,PLT_learning_01,B,2014_Feb_10_1512,P06,
stim_fb/ques.jpg,stim_fb/negf.jpg,stim_fb/posf.jpg,stim_01/a.jpg,stim_01/b.jpg,2,1,j,2,16,136,14,j,1,0.983049517487,01,02,60.0163040348,PLT_learning_01,B,2014_Feb_10_1512,P06,
stim_fb/ques.jpg,stim_fb/negf.jpg,stim_fb/posf.jpg,stim_01/d.jpg,stim_01/c.jpg,1,2,f,2,17,137,21,f,1,0.866419915565,01,02,60.0163040348,PLT_learning_01,B,2014_Feb_10_1512,P06,
stim_fb/ques.jpg,stim_fb/negf.jpg,stim_fb/posf.jpg,stim_01/c.jpg,stim_01/d.jpg,2,2,j,2,18,138,33,j,1,0.816432380086,01,02,60.0163040348,PLT_learning_01,B,2014_Feb_10_1512,P06,
stim_fb/ques.jpg,stim_fb/posf.jpg,stim_fb/negf.jpg,stim_01/e.jpg,stim_01/f.jpg,2,3,j,2,19,139,59,j,1,0.983080259997,01,02,60.0163040348,PLT_learning_01,B,2014_Feb_10_1512,P06,
stim_fb/ques.jpg,stim_fb/negf.jpg,stim_fb/posf.jpg,stim_01/c.jpg,stim_01/d.jpg,2,2,j,2,20,140,30,j,1,0.799792282042,01,02,60.0163040348,PLT_learning_01,B,2014_Feb_10_1512,P06,
stim_fb/ques.jpg,stim_fb/posf.jpg,stim_fb/negf.jpg,stim_01/a.jpg,stim_01/b.jpg,2,1,j,2,21,141,19,j,1,0.966398336861,01,02,60.0163040348,PLT_learning_01,B,2014_Feb_10_1512,P06,
stim_fb/ques.jpg,stim_fb/posf.jpg,stim_fb/negf.jpg,stim_01/f.jpg,stim_01/e.jpg,1,3,f,2,22,142,46,j,0,1.39957599877,01,02,60.0163040348,PLT_learning_01,B,2014_Feb_10_1512,P06,
stim_fb/ques.jpg,stim_fb/negf.jpg,stim_fb/posf.jpg,stim_01/c.jpg,stim_01/d.jpg,2,2,j,2,23,143,34,j,1,0.766477160032,01,02,60.0163040348,PLT_learning_01,B,2014_Feb_10_1512,P06,
stim_fb/ques.jpg,stim_fb/negf.jpg,stim_fb/posf.jpg,stim_01/b.jpg,stim_01/a.jpg,1,1,f,2,24,144,5,f,1,0.933032219937,01,02,60.0163040348,PLT_learning_01,B,2014_Feb_10_1512,P06,
stim_fb/ques.jpg,stim_fb/posf.jpg,stim_fb/negf.jpg,stim_01/c.jpg,stim_01/d.jpg,2,2,j,2,25,145,38,j,1,0.79980059473,01,02,60.0163040348,PLT_learning_01,B,2014_Feb_10_1512,P06,
stim_fb/ques.jpg,stim_fb/negf.jpg,stim_fb/posf.jpg,stim_01/b.jpg,stim_01/a.jpg,1,1,f,2,26,146,2,f,1,0.799705880009,01,02,60.0163040348,PLT_learning_01,B,2014_Feb_10_1512,P06,
stim_fb/ques.jpg,stim_fb/negf.jpg,stim_fb/posf.jpg,stim_01/a.jpg,stim_01/b.jpg,2,1,j,2,27,147,12,j,1,0.816418530618,01,02,60.0163040348,PLT_learning_01,B,2014_Feb_10_1512,P06,
stim_fb/ques.jpg,stim_fb/negf.jpg,stim_fb/posf.jpg,stim_01/a.jpg,stim_01/b.jpg,2,1,j,2,28,148,16,j,1,0.783121050515,01,02,60.0163040348,PLT_learning_01,B,2014_Feb_10_1512,P06,
stim_fb/ques.jpg,stim_fb/posf.jpg,stim_fb/negf.jpg,stim_01/a.jpg,stim_01/b.jpg,2,1,j,2,29,149,18,j,1,1.03304922426,01,02,60.0163040348,PLT_learning_01,B,2014_Feb_10_1512,P06,
stim_fb/ques.jpg,stim_fb/negf.jpg,stim_fb/posf.jpg,stim_01/c.jpg,stim_01/d.jpg,2,2,j,2,30,150,31,j,1,0.833046791202,01,02,60.0163040348,PLT_learning_01,B,2014_Feb_10_1512,P06,
stim_fb/ques.jpg,stim_fb/posf.jpg,stim_fb/negf.jpg,stim_01/f.jpg,stim_01/e.jpg,1,3,f,2,31,151,47,f,1,0.883050780631,01,02,60.0163040348,PLT_learning_01,B,2014_Feb_10_1512,P06,
stim_fb/ques.jpg,stim_fb/negf.jpg,stim_fb/posf.jpg,stim_01/d.jpg,stim_01/c.jpg,1,2,f,2,32,152,20,f,1,0.866424766638,01,02,60.0163040348,PLT_learning_01,B,2014_Feb_10_1512,P06,
stim_fb/ques.jpg,stim_fb/negf.jpg,stim_fb/posf.jpg,stim_01/d.jpg,stim_01/c.jpg,1,2,f,2,33,153,22,f,1,0.999702481551,01,02,60.0163040348,PLT_learning_01,B,2014_Feb_10_1512,P06,
stim_fb/ques.jpg,stim_fb/negf.jpg,stim_fb/posf.jpg,stim_01/a.jpg,stim_01/b.jpg,2,1,j,2,34,154,10,j,1,0.966401660132,01,02,60.0163040348,PLT_learning_01,B,2014_Feb_10_1512,P06,
stim_fb/ques.jpg,stim_fb/posf.jpg,stim_fb/negf.jpg,stim_01/c.jpg,stim_01/d.jpg,2,2,j,2,35,155,37,j,1,0.766470787172,01,02,60.0163040348,PLT_learning_01,B,2014_Feb_10_1512,P06,
stim_fb/ques.jpg,stim_fb/negf.jpg,stim_fb/posf.jpg,stim_01/f.jpg,stim_01/e.jpg,1,3,f,2,36,156,42,j,0,1.13301856896,01,02,60.0163040348,PLT_learning_01,B,2014_Feb_10_1512,P06,
stim_fb/ques.jpg,stim_fb/negf.jpg,stim_fb/posf.jpg,stim_01/b.jpg,stim_01/a.jpg,1,1,f,2,37,157,7,f,1,0.833124874531,01,02,60.0163040348,PLT_learning_01,B,2014_Feb_10_1512,P06,
stim_fb/ques.jpg,stim_fb/negf.jpg,stim_fb/posf.jpg,stim_01/e.jpg,stim_01/f.jpg,2,3,j,2,38,158,54,j,1,1.13297009733,01,02,60.0163040348,PLT_learning_01,B,2014_Feb_10_1512,P06,
stim_fb/ques.jpg,stim_fb/posf.jpg,stim_fb/negf.jpg,stim_01/d.jpg,stim_01/c.jpg,1,2,f,2,39,159,28,f,1,1.04969282903,01,02,60.0163040348,PLT_learning_01,B,2014_Feb_10_1512,P06,
stim_fb/ques.jpg,stim_fb/negf.jpg,stim_fb/posf.jpg,stim_01/b.jpg,stim_01/a.jpg,1,1,f,2,40,160,1,f,1,0.816482307343,01,02,60.0163040348,PLT_learning_01,B,2014_Feb_10_1512,P06,
stim_fb/ques.jpg,stim_fb/negf.jpg,stim_fb/posf.jpg,stim_01/f.jpg,stim_01/e.jpg,1,3,f,2,41,161,41,j,0,0.716239266475,01,02,60.0163040348,PLT_learning_01,B,2014_Feb_10_1512,P06,
stim_fb/ques.jpg,stim_fb/posf.jpg,stim_fb/negf.jpg,stim_01/b.jpg,stim_01/a.jpg,1,1,f,2,42,162,8,f,1,0.633166937215,01,02,60.0163040348,PLT_learning_01,B,2014_Feb_10_1512,P06,
stim_fb/ques.jpg,stim_fb/negf.jpg,stim_fb/posf.jpg,stim_01/e.jpg,stim_01/f.jpg,2,3,j,2,43,163,50,f,0,0.883072729255,01,02,60.0163040348,PLT_learning_01,B,2014_Feb_10_1512,P06,
stim_fb/ques.jpg,stim_fb/posf.jpg,stim_fb/negf.jpg,stim_01/e.jpg,stim_01/f.jpg,2,3,j,2,44,164,56,f,0,0.666489701244,01,02,60.0163040348,PLT_learning_01,B,2014_Feb_10_1512,P06,
stim_fb/ques.jpg,stim_fb/negf.jpg,stim_fb/posf.jpg,stim_01/e.jpg,stim_01/f.jpg,2,3,j,2,45,165,53,f,0,0.716489408014,01,02,60.0163040348,PLT_learning_01,B,2014_Feb_10_1512,P06,
stim_fb/ques.jpg,stim_fb/negf.jpg,stim_fb/posf.jpg,stim_01/a.jpg,stim_01/b.jpg,2,1,j,2,46,166,13,j,1,0.766463527103,01,02,60.0163040348,PLT_learning_01,B,2014_Feb_10_1512,P06,
stim_fb/ques.jpg,stim_fb/negf.jpg,stim_fb/posf.jpg,stim_01/c.jpg,stim_01/d.jpg,2,2,j,2,47,167,32,j,1,0.933081392315,01,02,60.0163040348,PLT_learning_01,B,2014_Feb_10_1512,P06,
stim_fb/ques.jpg,stim_fb/negf.jpg,stim_fb/posf.jpg,stim_01/c.jpg,stim_01/d.jpg,2,2,j,2,48,168,36,j,1,0.683173837889,01,02,60.0163040348,PLT_learning_01,B,2014_Feb_10_1512,P06,
stim_fb/ques.jpg,stim_fb/posf.jpg,stim_fb/negf.jpg,stim_01/e.jpg,stim_01/f.jpg,2,3,j,2,49,169,57,f,0,1.26630950779,01,02,60.0163040348,PLT_learning_01,B,2014_Feb_10_1512,P06,
stim_fb/ques.jpg,stim_fb/negf.jpg,stim_fb/posf.jpg,stim_01/f.jpg,stim_01/e.jpg,1,3,f,2,50,170,43,j,0,0.766508089006,01,02,60.0163040348,PLT_learning_01,B,2014_Feb_10_1512,P06,
stim_fb/ques.jpg,stim_fb/negf.jpg,stim_fb/posf.jpg,stim_01/d.jpg,stim_01/c.jpg,1,2,f,2,51,171,23,f,1,0.866431416187,01,02,60.0163040348,PLT_learning_01,B,2014_Feb_10_1512,P06,
stim_fb/ques.jpg,stim_fb/negf.jpg,stim_fb/posf.jpg,stim_01/b.jpg,stim_01/a.jpg,1,1,f,2,52,172,4,f,1,0.716493522253,01,02,60.0163040348,PLT_learning_01,B,2014_Feb_10_1512,P06,
stim_fb/ques.jpg,stim_fb/negf.jpg,stim_fb/posf.jpg,stim_01/f.jpg,stim_01/e.jpg,1,3,f,2,53,173,44,j,0,1.01639135799,01,02,60.0163040348,PLT_learning_01,B,2014_Feb_10_1512,P06,
stim_fb/ques.jpg,stim_fb/posf.jpg,stim_fb/negf.jpg,stim_01/d.jpg,stim_01/c.jpg,1,2,f,2,54,174,27,f,1,0.71654396379,01,02,60.0163040348,PLT_learning_01,B,2014_Feb_10_1512,P06,
stim_fb/ques.jpg,stim_fb/negf.jpg,stim_fb/posf.jpg,stim_01/d.jpg,stim_01/c.jpg,1,2,f,2,55,175,26,f,1,1.08296835449,01,02,60.0163040348,PLT_learning_01,B,2014_Feb_10_1512,P06,
stim_fb/ques.jpg,stim_fb/posf.jpg,stim_fb/negf.jpg,stim_01/d.jpg,stim_01/c.jpg,1,2,f,2,56,176,29,f,1,0.799789397864,01,02,60.0163040348,PLT_learning_01,B,2014_Feb_10_1512,P06,
stim_fb/ques.jpg,stim_fb/negf.jpg,stim_fb/posf.jpg,stim_01/d.jpg,stim_01/c.jpg,1,2,f,2,57,177,25,f,1,0.56652315049,01,02,60.0163040348,PLT_learning_01,B,2014_Feb_10_1512,P06,
stim_fb/ques.jpg,stim_fb/posf.jpg,stim_fb/negf.jpg,stim_01/e.jpg,stim_01/f.jpg,2,3,j,2,58,178,58,f,0,0.816452247531,01,02,60.0163040348,PLT_learning_01,B,2014_Feb_10_1512,P06,
stim_fb/ques.jpg,stim_fb/negf.jpg,stim_fb/posf.jpg,stim_01/e.jpg,stim_01/f.jpg,2,3,j,2,59,179,52,f,0,0.583180842321,01,02,60.0163040348,PLT_learning_01,B,2014_Feb_10_1512,P06,
stim_fb/ques.jpg,stim_fb/posf.jpg,stim_fb/negf.jpg,stim_01/d.jpg,stim_01/c.jpg,1,2,f,3,0,180,27,f,1,0.683179525043,01,02,60.0163040348,PLT_learning_01,B,2014_Feb_10_1512,P06,
stim_fb/ques.jpg,stim_fb/negf.jpg,stim_fb/posf.jpg,stim_01/b.jpg,stim_01/a.jpg,1,1,f,3,1,181,7,f,1,0.649816716353,01,02,60.0163040348,PLT_learning_01,B,2014_Feb_10_1512,P06,
stim_fb/ques.jpg,stim_fb/negf.jpg,stim_fb/posf.jpg,stim_01/c.jpg,stim_01/d.jpg,2,2,j,3,2,182,33,j,1,0.849661106078,01,02,60.0163040348,PLT_learning_01,B,2014_Feb_10_1512,P06,
stim_fb/ques.jpg,stim_fb/negf.jpg,stim_fb/posf.jpg,stim_01/b.jpg,stim_01/a.jpg,1,1,f,3,3,183,1,f,1,0.999694039541,01,02,60.0163040348,PLT_learning_01,B,2014_Feb_10_1512,P06,
stim_fb/ques.jpg,stim_fb/negf.jpg,stim_fb/posf.jpg,stim_01/f.jpg,stim_01/e.jpg,1,3,f,3,4,184,44,f,1,1.09967976301,01,02,60.0163040348,PLT_learning_01,B,2014_Feb_10_1512,P06,
stim_fb/ques.jpg,stim_fb/negf.jpg,stim_fb/posf.jpg,stim_01/d.jpg,stim_01/c.jpg,1,2,f,3,5,185,25,f,1,0.883066275193,01,02,60.0163040348,PLT_learning_01,B,2014_Feb_10_1512,P06,
stim_fb/ques.jpg,stim_fb/negf.jpg,stim_fb/posf.jpg,stim_01/f.jpg,stim_01/e.jpg,1,3,f,3,6,186,42,f,1,0.999765608659,01,02,60.0163040348,PLT_learning_01,B,2014_Feb_10_1512,P06,
stim_fb/ques.jpg,stim_fb/negf.jpg,stim_fb/posf.jpg,stim_01/f.jpg,stim_01/e.jpg,1,3,f,3,7,187,43,f,1,0.966396000045,01,02,60.0163040348,PLT_learning_01,B,2014_Feb_10_1512,P06,
stim_fb/ques.jpg,stim_fb/negf.jpg,stim_fb/posf.jpg,stim_01/a.jpg,stim_01/b.jpg,2,1,j,3,8,188,16,j,1,0.949745986323,01,02,60.0163040348,PLT_learning_01,B,2014_Feb_10_1512,P06,
stim_fb/ques.jpg,stim_fb/posf.jpg,stim_fb/negf.jpg,stim_01/a.jpg,stim_01/b.jpg,2,1,j,3,9,189,19,j,1,0.716472707451,01,02,60.0163040348,PLT_learning_01,B,2014_Feb_10_1512,P06,
stim_fb/ques.jpg,stim_fb/negf.jpg,stim_fb/posf.jpg,stim_01/c.jpg,stim_01/d.jpg,2,2,j,3,10,190,32,j,1,1.28296639963,01,02,60.0163040348,PLT_learning_01,B,2014_Feb_10_1512,P06,
stim_fb/ques.jpg,stim_fb/negf.jpg,stim_fb/posf.jpg,stim_01/e.jpg,stim_01/f.jpg,2,3,j,3,11,191,51,j,1,1.19964738744,01,02,60.0163040348,PLT_learning_01,B,2014_Feb_10_1512,P06,
stim_fb/ques.jpg,stim_fb/negf.jpg,stim_fb/posf.jpg,stim_01/b.jpg,stim_01/a.jpg,1,1,f,3,12,192,0,f,1,0.816442897261,01,02,60.0163040348,PLT_learning_01,B,2014_Feb_10_1512,P06,
stim_fb/ques.jpg,stim_fb/negf.jpg,stim_fb/posf.jpg,stim_01/d.jpg,stim_01/c.jpg,1,2,f,3,13,193,21,f,1,0.883096635752,01,02,60.0163040348,PLT_learning_01,B,2014_Feb_10_1512,P06,
stim_fb/ques.jpg,stim_fb/posf.jpg,stim_fb/negf.jpg,stim_01/b.jpg,stim_01/a.jpg,1,1,f,3,14,194,8,f,1,0.849753544133,01,02,60.0163040348,PLT_learning_01,B,2014_Feb_10_1512,P06,
stim_fb/ques.jpg,stim_fb/negf.jpg,stim_fb/posf.jpg,stim_01/b.jpg,stim_01/a.jpg,1,1,f,3,15,195,6,f,1,0.48321342842,01,02,60.0163040348,PLT_learning_01,B,2014_Feb_10_1512,P06,
stim_fb/ques.jpg,stim_fb/negf.jpg,stim_fb/posf.jpg,stim_01/c.jpg,stim_01/d.jpg,2,2,j,3,16,196,34,j,1,1.04969451021,01,02,60.0163040348,PLT_learning_01,B,2014_Feb_10_1512,P06,
stim_fb/ques.jpg,stim_fb/negf.jpg,stim_fb/posf.jpg,stim_01/d.jpg,stim_01/c.jpg,1,2,f,3,17,197,20,f,1,0.983064194013,01,02,60.0163040348,PLT_learning_01,B,2014_Feb_10_1512,P06,
stim_fb/ques.jpg,stim_fb/negf.jpg,stim_fb/posf.jpg,stim_01/e.jpg,stim_01/f.jpg,2,3,j,3,18,198,50,f,0,0.883118767833,01,02,60.0163040348,PLT_learning_01,B,2014_Feb_10_1512,P06,
stim_fb/ques.jpg,stim_fb/negf.jpg,stim_fb/posf.jpg,stim_01/b.jpg,stim_01/a.jpg,1,1,f,3,19,199,4,f,1,0.88306669624,01,02,60.0163040348,PLT_learning_01,B,2014_Feb_10_1512,P06,
stim_fb/ques.jpg,stim_fb/negf.jpg,stim_fb/posf.jpg,stim_01/c.jpg,stim_01/d.jpg,2,2,j,3,20,200,31,j,1,0.71646138427,01,02,60.0163040348,PLT_learning_01,B,2014_Feb_10_1512,P06,
stim_fb/ques.jpg,stim_fb/posf.jpg,stim_fb/negf.jpg,stim_01/e.jpg,stim_01/f.jpg,2,3,j,3,21,201,57,j,1,1.2329939948,01,02,60.0163040348,PLT_learning_01,B,2014_Feb_10_1512,P06,
stim_fb/ques.jpg,stim_fb/negf.jpg,stim_fb/posf.jpg,stim_01/a.jpg,stim_01/b.jpg,2,1,j,3,22,202,15,j,1,0.93306452634,01,02,60.0163040348,PLT_learning_01,B,2014_Feb_10_1512,P06,
stim_fb/ques.jpg,stim_fb/negf.jpg,stim_fb/posf.jpg,stim_01/e.jpg,stim_01/f.jpg,2,3,j,3,23,203,54,j,1,1.31632089262,01,02,60.0163040348,PLT_learning_01,B,2014_Feb_10_1512,P06,
stim_fb/ques.jpg,stim_fb/negf.jpg,stim_fb/posf.jpg,stim_01/a.jpg,stim_01/b.jpg,2,1,j,3,24,204,11,j,1,0.899755238851,01,02,60.0163040348,PLT_learning_01,B,2014_Feb_10_1512,P06,
stim_fb/ques.jpg,stim_fb/posf.jpg,stim_fb/negf.jpg,stim_01/e.jpg,stim_01/f.jpg,2,3,j,3,25,205,59,j,1,1.04970791156,01,02,60.0163040348,PLT_learning_01,B,2014_Feb_10_1512,P06,
stim_fb/ques.jpg,stim_fb/posf.jpg,stim_fb/negf.jpg,stim_01/e.jpg,stim_01/f.jpg,2,3,j,3,26,206,56,j,1,0.716479847219,01,02,60.0163040348,PLT_learning_01,B,2014_Feb_10_1512,P06,
stim_fb/ques.jpg,stim_fb/negf.jpg,stim_fb/posf.jpg,stim_01/a.jpg,stim_01/b.jpg,2,1,j,3,27,207,10,j,1,0.633173084514,01,02,60.0163040348,PLT_learning_01,B,2014_Feb_10_1512,P06,
stim_fb/ques.jpg,stim_fb/negf.jpg,stim_fb/posf.jpg,stim_01/e.jpg,stim_01/f.jpg,2,3,j,3,28,208,53,j,1,0.799788588851,01,02,60.0163040348,PLT_learning_01,B,2014_Feb_10_1512,P06,
stim_fb/ques.jpg,stim_fb/negf.jpg,stim_fb/posf.jpg,stim_01/b.jpg,stim_01/a.jpg,1,1,f,3,29,209,5,f,1,0.766476167562,01,02,60.0163040348,PLT_learning_01,B,2014_Feb_10_1512,P06,
stim_fb/ques.jpg,stim_fb/negf.jpg,stim_fb/posf.jpg,stim_01/e.jpg,stim_01/f.jpg,2,3,j,3,30,210,55,j,1,0.966239006327,01,02,60.0163040348,PLT_learning_01,B,2014_Feb_10_1512,P06,
stim_fb/ques.jpg,stim_fb/posf.jpg,stim_fb/negf.jpg,stim_01/d.jpg,stim_01/c.jpg,1,2,f,3,31,211,29,f,1,0.816441291263,01,02,60.0163040348,PLT_learning_01,B,2014_Feb_10_1512,P06,
stim_fb/ques.jpg,stim_fb/posf.jpg,stim_fb/negf.jpg,stim_01/c.jpg,stim_01/d.jpg,2,2,j,3,32,212,37,j,1,1.29961255775,01,02,60.0163040348,PLT_learning_01,B,2014_Feb_10_1512,P06,
stim_fb/ques.jpg,stim_fb/negf.jpg,stim_fb/posf.jpg,stim_01/c.jpg,stim_01/d.jpg,2,2,j,3,33,213,30,j,1,0.63312565347,01,02,60.0163040348,PLT_learning_01,B,2014_Feb_10_1512,P06,
stim_fb/ques.jpg,stim_fb/negf.jpg,stim_fb/posf.jpg,stim_01/f.jpg,stim_01/e.jpg,1,3,f,3,34,214,45,j,0,1.33294641639,01,02,60.0163040348,PLT_learning_01,B,2014_Feb_10_1512,P06,
stim_fb/ques.jpg,stim_fb/negf.jpg,stim_fb/posf.jpg,stim_01/a.jpg,stim_01/b.jpg,2,1,j,3,35,215,12,j,1,0.816408975838,01,02,60.0163040348,PLT_learning_01,B,2014_Feb_10_1512,P06,
stim_fb/ques.jpg,stim_fb/negf.jpg,stim_fb/posf.jpg,stim_01/b.jpg,stim_01/a.jpg,1,1,f,3,36,216,2,f,1,1.03301910129,01,02,60.0163040348,PLT_learning_01,B,2014_Feb_10_1512,P06,
stim_fb/ques.jpg,stim_fb/negf.jpg,stim_fb/posf.jpg,stim_01/e.jpg,stim_01/f.jpg,2,3,j,3,37,217,52,j,1,0.899754637354,01,02,60.0163040348,PLT_learning_01,B,2014_Feb_10_1512,P06,
stim_fb/ques.jpg,stim_fb/negf.jpg,stim_fb/posf.jpg,stim_01/d.jpg,stim_01/c.jpg,1,2,f,3,38,218,23,f,1,0.849780825029,01,02,60.0163040348,PLT_learning_01,B,2014_Feb_10_1512,P06,
stim_fb/ques.jpg,stim_fb/negf.jpg,stim_fb/posf.jpg,stim_01/c.jpg,stim_01/d.jpg,2,2,j,3,39,219,35,j,1,0.749730491762,01,02,60.0163040348,PLT_learning_01,B,2014_Feb_10_1512,P06,
stim_fb/ques.jpg,stim_fb/negf.jpg,stim_fb/posf.jpg,stim_01/d.jpg,stim_01/c.jpg,1,2,f,3,40,220,24,f,1,1.01639517148,01,02,60.0163040348,PLT_learning_01,B,2014_Feb_10_1512,P06,
stim_fb/ques.jpg,stim_fb/negf.jpg,stim_fb/posf.jpg,stim_01/f.jpg,stim_01/e.jpg,1,3,f,3,41,221,41,f,1,1.23297176348,01,02,60.0163040348,PLT_learning_01,B,2014_Feb_10_1512,P06,
stim_fb/ques.jpg,stim_fb/negf.jpg,stim_fb/posf.jpg,stim_01/d.jpg,stim_01/c.jpg,1,2,f,3,42,222,22,f,1,1.34961027958,01,02,60.0163040348,PLT_learning_01,B,2014_Feb_10_1512,P06,
stim_fb/ques.jpg,stim_fb/negf.jpg,stim_fb/posf.jpg,stim_01/f.jpg,stim_01/e.jpg,1,3,f,3,43,223,40,f,1,1.0830600106,01,02,60.0163040348,PLT_learning_01,B,2014_Feb_10_1512,P06,
stim_fb/ques.jpg,stim_fb/negf.jpg,stim_fb/posf.jpg,stim_01/d.jpg,stim_01/c.jpg,1,2,f,3,44,224,26,f,1,1.03304039729,01,02,60.0163040348,PLT_learning_01,B,2014_Feb_10_1512,P06,
stim_fb/ques.jpg,stim_fb/negf.jpg,stim_fb/posf.jpg,stim_01/a.jpg,stim_01/b.jpg,2,1,j,3,45,225,14,j,1,0.899755500502,01,02,60.0163040348,PLT_learning_01,B,2014_Feb_10_1512,P06,
stim_fb/ques.jpg,stim_fb/posf.jpg,stim_fb/negf.jpg,stim_01/a.jpg,stim_01/b.jpg,2,1,j,3,46,226,18,j,1,0.883091261377,01,02,60.0163040348,PLT_learning_01,B,2014_Feb_10_1512,P06,
stim_fb/ques.jpg,stim_fb/posf.jpg,stim_fb/negf.jpg,stim_01/c.jpg,stim_01/d.jpg,2,2,j,3,47,227,39,j,1,0.716420461423,01,02,60.0163040348,PLT_learning_01,B,2014_Feb_10_1512,P06,
stim_fb/ques.jpg,stim_fb/posf.jpg,stim_fb/negf.jpg,stim_01/f.jpg,stim_01/e.jpg,1,3,f,3,48,228,46,f,1,1.08302647714,01,02,60.0163040348,PLT_learning_01,B,2014_Feb_10_1512,P06,
stim_fb/ques.jpg,stim_fb/negf.jpg,stim_fb/posf.jpg,stim_01/a.jpg,stim_01/b.jpg,2,1,j,3,49,229,13,j,1,0.849763724469,01,02,60.0163040348,PLT_learning_01,B,2014_Feb_10_1512,P06,
stim_fb/ques.jpg,stim_fb/posf.jpg,stim_fb/negf.jpg,stim_01/f.jpg,stim_01/e.jpg,1,3,f,3,50,230,49,f,1,0.94975126446,01,02,60.0163040348,PLT_learning_01,B,2014_Feb_10_1512,P06,
stim_fb/ques.jpg,stim_fb/negf.jpg,stim_fb/posf.jpg,stim_01/a.jpg,stim_01/b.jpg,2,1,j,3,51,231,17,j,1,0.649843819807,01,02,60.0163040348,PLT_learning_01,B,2014_Feb_10_1512,P06,
stim_fb/ques.jpg,stim_fb/posf.jpg,stim_fb/negf.jpg,stim_01/f.jpg,stim_01/e.jpg,1,3,f,3,52,232,47,f,1,1.03305488134,01,02,60.0163040348,PLT_learning_01,B,2014_Feb_10_1512,P06,
stim_fb/ques.jpg,stim_fb/posf.jpg,stim_fb/negf.jpg,stim_01/e.jpg,stim_01/f.jpg,2,3,j,3,53,233,58,j,1,1.24968151788,01,02,60.0163040348,PLT_learning_01,B,2014_Feb_10_1512,P06,
stim_fb/ques.jpg,stim_fb/posf.jpg,stim_fb/negf.jpg,stim_01/c.jpg,stim_01/d.jpg,2,2,j,3,54,234,38,j,1,0.716473555562,01,02,60.0163040348,PLT_learning_01,B,2014_Feb_10_1512,P06,
stim_fb/ques.jpg,stim_fb/negf.jpg,stim_fb/posf.jpg,stim_01/b.jpg,stim_01/a.jpg,1,1,f,3,55,235,3,f,1,0.699805969105,01,02,60.0163040348,PLT_learning_01,B,2014_Feb_10_1512,P06,
stim_fb/ques.jpg,stim_fb/posf.jpg,stim_fb/negf.jpg,stim_01/b.jpg,stim_01/a.jpg,1,1,f,3,56,236,9,f,1,0.583194433146,01,02,60.0163040348,PLT_learning_01,B,2014_Feb_10_1512,P06,
stim_fb/ques.jpg,stim_fb/posf.jpg,stim_fb/negf.jpg,stim_01/f.jpg,stim_01/e.jpg,1,3,f,3,57,237,48,j,0,0.749801498479,01,02,60.0163040348,PLT_learning_01,B,2014_Feb_10_1512,P06,
stim_fb/ques.jpg,stim_fb/posf.jpg,stim_fb/negf.jpg,stim_01/d.jpg,stim_01/c.jpg,1,2,f,3,58,238,28,f,1,0.849780262629,01,02,60.0163040348,PLT_learning_01,B,2014_Feb_10_1512,P06,
stim_fb/ques.jpg,stim_fb/negf.jpg,stim_fb/posf.jpg,stim_01/c.jpg,stim_01/d.jpg,2,2,j,3,59,239,36,j,1,0.583194114352,01,02,60.0163040348,PLT_learning_01,B,2014_Feb_10_1512,P06,
stim_fb/ques.jpg,stim_fb/negf.jpg,stim_fb/posf.jpg,stim_01/c.jpg,stim_01/d.jpg,2,2,j,4,0,240,36,j,1,1.43290851607,01,02,60.0163040348,PLT_learning_01,B,2014_Feb_10_1512,P06,
stim_fb/ques.jpg,stim_fb/negf.jpg,stim_fb/posf.jpg,stim_01/a.jpg,stim_01/b.jpg,2,1,j,4,1,241,15,j,1,0.683156529813,01,02,60.0163040348,PLT_learning_01,B,2014_Feb_10_1512,P06,
stim_fb/ques.jpg,stim_fb/negf.jpg,stim_fb/posf.jpg,stim_01/c.jpg,stim_01/d.jpg,2,2,j,4,2,242,30,j,1,0.683136773645,01,02,60.0163040348,PLT_learning_01,B,2014_Feb_10_1512,P06,
stim_fb/ques.jpg,stim_fb/negf.jpg,stim_fb/posf.jpg,stim_01/b.jpg,stim_01/a.jpg,1,1,f,4,3,243,3,f,1,0.883072681135,01,02,60.0163040348,PLT_learning_01,B,2014_Feb_10_1512,P06,
stim_fb/ques.jpg,stim_fb/negf.jpg,stim_fb/posf.jpg,stim_01/e.jpg,stim_01/f.jpg,2,3,j,4,4,244,50,j,1,1.08297887768,01,02,60.0163040348,PLT_learning_01,B,2014_Feb_10_1512,P06,
stim_fb/ques.jpg,stim_fb/negf.jpg,stim_fb/posf.jpg,stim_01/b.jpg,stim_01/a.jpg,1,1,f,4,5,245,2,f,1,0.583205064604,01,02,60.0163040348,PLT_learning_01,B,2014_Feb_10_1512,P06,
stim_fb/ques.jpg,stim_fb/negf.jpg,stim_fb/posf.jpg,stim_01/f.jpg,stim_01/e.jpg,1,3,f,4,6,246,42,j,0,0.666465036861,01,02,60.0163040348,PLT_learning_01,B,2014_Feb_10_1512,P06,
stim_fb/ques.jpg,stim_fb/negf.jpg,stim_fb/posf.jpg,stim_01/c.jpg,stim_01/d.jpg,2,2,j,4,7,247,35,j,1,0.766443217558,01,02,60.0163040348,PLT_learning_01,B,2014_Feb_10_1512,P06,
stim_fb/ques.jpg,stim_fb/posf.jpg,stim_fb/negf.jpg,stim_01/f.jpg,stim_01/e.jpg,1,3,f,4,8,248,47,f,1,1.01637644688,01,02,60.0163040348,PLT_learning_01,B,2014_Feb_10_1512,P06,
stim_fb/ques.jpg,stim_fb/negf.jpg,stim_fb/posf.jpg,stim_01/d.jpg,stim_01/c.jpg,1,2,f,4,9,249,20,f,1,0.816445291219,01,02,60.0163040348,PLT_learning_01,B,2014_Feb_10_1512,P06,
stim_fb/ques.jpg,stim_fb/negf.jpg,stim_fb/posf.jpg,stim_01/a.jpg,stim_01/b.jpg,2,1,j,4,10,250,12,j,1,0.666500489092,01,02,60.0163040348,PLT_learning_01,B,2014_Feb_10_1512,P06,
stim_fb/ques.jpg,stim_fb/negf.jpg,stim_fb/posf.jpg,stim_01/a.jpg,stim_01/b.jpg,2,1,j,4,11,251,17,j,1,0.616531184987,01,02,60.0163040348,PLT_learning_01,B,2014_Feb_10_1512,P06,
stim_fb/ques.jpg,stim_fb/negf.jpg,stim_fb/posf.jpg,stim_01/b.jpg,stim_01/a.jpg,1,1,f,4,12,252,6,f,1,0.983024230554,01,02,60.0163040348,PLT_learning_01,B,2014_Feb_10_1512,P06,
stim_fb/ques.jpg,stim_fb/negf.jpg,stim_fb/posf.jpg,stim_01/d.jpg,stim_01/c.jpg,1,2,f,4,13,253,26,f,1,1.36628141788,01,02,60.0163040348,PLT_learning_01,B,2014_Feb_10_1512,P06,
stim_fb/ques.jpg,stim_fb/posf.jpg,stim_fb/negf.jpg,stim_01/d.jpg,stim_01/c.jpg,1,2,f,4,14,254,29,f,1,1.39955723206,01,02,60.0163040348,PLT_learning_01,B,2014_Feb_10_1512,P06,
stim_fb/ques.jpg,stim_fb/negf.jpg,stim_fb/posf.jpg,stim_01/f.jpg,stim_01/e.jpg,1,3,f,4,15,255,43,f,1,1.03303072221,01,02,60.0163040348,PLT_learning_01,B,2014_Feb_10_1512,P06,
stim_fb/ques.jpg,stim_fb/posf.jpg,stim_fb/negf.jpg,stim_01/a.jpg,stim_01/b.jpg,2,1,j,4,16,256,19,j,1,0.93309879663,01,02,60.0163040348,PLT_learning_01,B,2014_Feb_10_1512,P06,
stim_fb/ques.jpg,stim_fb/posf.jpg,stim_fb/negf.jpg,stim_01/e.jpg,stim_01/f.jpg,2,3,j,4,17,257,58,j,1,0.816476181096,01,02,60.0163040348,PLT_learning_01,B,2014_Feb_10_1512,P06,
stim_fb/ques.jpg,stim_fb/negf.jpg,stim_fb/posf.jpg,stim_01/f.jpg,stim_01/e.jpg,1,3,f,4,18,258,44,j,0,0.666499830453,01,02,60.0163040348,PLT_learning_01,B,2014_Feb_10_1512,P06,
stim_fb/ques.jpg,stim_fb/negf.jpg,stim_fb/posf.jpg,stim_01/e.jpg,stim_01/f.jpg,2,3,j,4,19,259,51,j,1,1.26627047966,01,02,60.0163040348,PLT_learning_01,B,2014_Feb_10_1512,P06,
stim_fb/ques.jpg,stim_fb/negf.jpg,stim_fb/posf.jpg,stim_01/e.jpg,stim_01/f.jpg,2,3,j,4,20,260,54,j,1,1.23297844009,01,02,60.0163040348,PLT_learning_01,B,2014_Feb_10_1512,P06,
stim_fb/ques.jpg,stim_fb/posf.jpg,stim_fb/negf.jpg,stim_01/e.jpg,stim_01/f.jpg,2,3,j,4,21,261,59,j,1,0.733129340646,01,02,60.0163040348,PLT_learning_01,B,2014_Feb_10_1512,P06,
stim_fb/ques.jpg,stim_fb/negf.jpg,stim_fb/posf.jpg,stim_01/f.jpg,stim_01/e.jpg,1,3,f,4,22,262,40,f,1,0.866436922892,01,02,60.0163040348,PLT_learning_01,B,2014_Feb_10_1512,P06,
stim_fb/ques.jpg,stim_fb/negf.jpg,stim_fb/posf.jpg,stim_01/e.jpg,stim_01/f.jpg,2,3,j,4,23,263,53,j,1,0.583199678199,01,02,60.0163040348,PLT_learning_01,B,2014_Feb_10_1512,P06,
stim_fb/ques.jpg,stim_fb/negf.jpg,stim_fb/posf.jpg,stim_01/d.jpg,stim_01/c.jpg,1,2,f,4,24,264,21,f,1,1.63284107924,01,02,60.0163040348,PLT_learning_01,B,2014_Feb_10_1512,P06,
stim_fb/ques.jpg,stim_fb/negf.jpg,stim_fb/posf.jpg,stim_01/d.jpg,stim_01/c.jpg,1,2,f,4,25,265,24,f,1,0.799776378462,01,02,60.0163040348,PLT_learning_01,B,2014_Feb_10_1512,P06,
stim_fb/ques.jpg,stim_fb/negf.jpg,stim_fb/posf.jpg,stim_01/b.jpg,stim_01/a.jpg,1,1,f,4,26,266,7,f,1,0.86641396676,01,02,60.0163040348,PLT_learning_01,B,2014_Feb_10_1512,P06,
stim_fb/ques.jpg,stim_fb/posf.jpg,stim_fb/negf.jpg,stim_01/d.jpg,stim_01/c.jpg,1,2,f,4,27,267,28,f,1,1.01638634752,01,02,60.0163040348,PLT_learning_01,B,2014_Feb_10_1512,P06,
stim_fb/ques.jpg,stim_fb/negf.jpg,stim_fb/posf.jpg,stim_01/b.jpg,stim_01/a.jpg,1,1,f,4,28,268,0,f,1,0.716462782751,01,02,60.0163040348,PLT_learning_01,B,2014_Feb_10_1512,P06,
stim_fb/ques.jpg,stim_fb/posf.jpg,stim_fb/negf.jpg,stim_01/e.jpg,stim_01/f.jpg,2,3,j,4,29,269,57,j,1,0.81643562817,01,02,60.0163040348,PLT_learning_01,B,2014_Feb_10_1512,P06,
stim_fb/ques.jpg,stim_fb/negf.jpg,stim_fb/posf.jpg,stim_01/c.jpg,stim_01/d.jpg,2,2,j,4,30,270,33,j,1,0.933082923125,01,02,60.0163040348,PLT_learning_01,B,2014_Feb_10_1512,P06,
stim_fb/ques.jpg,stim_fb/posf.jpg,stim_fb/negf.jpg,stim_01/f.jpg,stim_01/e.jpg,1,3,f,4,31,271,46,f,1,0.983077444991,01,02,60.0163040348,PLT_learning_01,B,2014_Feb_10_1512,P06,
stim_fb/ques.jpg,stim_fb/negf.jpg,stim_fb/posf.jpg,stim_01/e.jpg,stim_01/f.jpg,2,3,j,4,32,272,55,j,1,0.716487005034,01,02,60.0163040348,PLT_learning_01,B,2014_Feb_10_1512,P06,
stim_fb/ques.jpg,stim_fb/negf.jpg,stim_fb/posf.jpg,stim_01/f.jpg,stim_01/e.jpg,1,3,f,4,33,273,45,f,1,0.666494281644,01,02,60.0163040348,PLT_learning_01,B,2014_Feb_10_1512,P06,
stim_fb/ques.jpg,stim_fb/negf.jpg,stim_fb/posf.jpg,stim_01/b.jpg,stim_01/a.jpg,1,1,f,4,34,274,4,f,1,0.599853598644,01,02,60.0163040348,PLT_learning_01,B,2014_Feb_10_1512,P06,
stim_fb/ques.jpg,stim_fb/negf.jpg,stim_fb/posf.jpg,stim_01/a.jpg,stim_01/b.jpg,2,1,j,4,35,275,13,j,1,0.51654447807,01,02,60.0163040348,PLT_learning_01,B,2014_Feb_10_1512,P06,
stim_fb/ques.jpg,stim_fb/posf.jpg,stim_fb/negf.jpg,stim_01/b.jpg,stim_01/a.jpg,1,1,f,4,36,276,9,f,1,0.633177397247,01,02,60.0163040348,PLT_learning_01,B,2014_Feb_10_1512,P06,
stim_fb/ques.jpg,stim_fb/negf.jpg,stim_fb/posf.jpg,stim_01/a.jpg,stim_01/b.jpg,2,1,j,4,37,277,14,j,1,0.649825690688,01,02,60.0163040348,PLT_learning_01,B,2014_Feb_10_1512,P06,
stim_fb/ques.jpg,stim_fb/negf.jpg,stim_fb/posf.jpg,stim_01/a.jpg,stim_01/b.jpg,2,1,j,4,38,278,16,j,1,0.516550571234,01,02,60.0163040348,PLT_learning_01,B,2014_Feb_10_1512,P06,
stim_fb/ques.jpg,stim_fb/negf.jpg,stim_fb/posf.jpg,stim_01/c.jpg,stim_01/d.jpg,2,2,j,4,39,279,31,j,1,0.91636932215,01,02,60.0163040348,PLT_learning_01,B,2014_Feb_10_1512,P06,
stim_fb/ques.jpg,stim_fb/negf.jpg,stim_fb/posf.jpg,stim_01/c.jpg,stim_01/d.jpg,2,2,j,4,40,280,32,j,1,0.666498594377,01,02,60.0163040348,PLT_learning_01,B,2014_Feb_10_1512,P06,
stim_fb/ques.jpg,stim_fb/negf.jpg,stim_fb/posf.jpg,stim_01/d.jpg,stim_01/c.jpg,1,2,f,4,41,281,22,f,1,0.733166880073,01,02,60.0163040348,PLT_learning_01,B,2014_Feb_10_1512,P06,
stim_fb/ques.jpg,stim_fb/posf.jpg,stim_fb/negf.jpg,stim_01/e.jpg,stim_01/f.jpg,2,3,j,4,42,282,56,j,1,1.03305447833,01,02,60.0163040348,PLT_learning_01,B,2014_Feb_10_1512,P06,
stim_fb/ques.jpg,stim_fb/negf.jpg,stim_fb/posf.jpg,stim_01/c.jpg,stim_01/d.jpg,2,2,j,4,43,283,34,j,1,0.583180316012,01,02,60.0163040348,PLT_learning_01,B,2014_Feb_10_1512,P06,
stim_fb/ques.jpg,stim_fb/negf.jpg,stim_fb/posf.jpg,stim_01/b.jpg,stim_01/a.jpg,1,1,f,4,44,284,1,f,1,0.699759777145,01,02,60.0163040348,PLT_learning_01,B,2014_Feb_10_1512,P06,
stim_fb/ques.jpg,stim_fb/negf.jpg,stim_fb/posf.jpg,stim_01/f.jpg,stim_01/e.jpg,1,3,f,4,45,285,41,j,0,0.833111220551,01,02,60.0163040348,PLT_learning_01,B,2014_Feb_10_1512,P06,
stim_fb/ques.jpg,stim_fb/posf.jpg,stim_fb/negf.jpg,stim_01/b.jpg,stim_01/a.jpg,1,1,f,4,46,286,8,f,1,0.666466260907,01,02,60.0163040348,PLT_learning_01,B,2014_Feb_10_1512,P06,
stim_fb/ques.jpg,stim_fb/negf.jpg,stim_fb/posf.jpg,stim_01/d.jpg,stim_01/c.jpg,1,2,f,4,47,287,25,f,1,1.06633127897,01,02,60.0163040348,PLT_learning_01,B,2014_Feb_10_1512,P06,
stim_fb/ques.jpg,stim_fb/posf.jpg,stim_fb/negf.jpg,stim_01/c.jpg,stim_01/d.jpg,2,2,j,4,48,288,38,j,1,0.71642807036,01,02,60.0163040348,PLT_learning_01,B,2014_Feb_10_1512,P06,
stim_fb/ques.jpg,stim_fb/posf.jpg,stim_fb/negf.jpg,stim_01/d.jpg,stim_01/c.jpg,1,2,f,4,49,289,27,f,1,0.49987712319,01,02,60.0163040348,PLT_learning_01,B,2014_Feb_10_1512,P06,
stim_fb/ques.jpg,stim_fb/posf.jpg,stim_fb/negf.jpg,stim_01/c.jpg,stim_01/d.jpg,2,2,j,4,50,290,37,j,1,0.566540416461,01,02,60.0163040348,PLT_learning_01,B,2014_Feb_10_1512,P06,
stim_fb/ques.jpg,stim_fb/posf.jpg,stim_fb/negf.jpg,stim_01/f.jpg,stim_01/e.jpg,1,3,f,4,51,291,49,f,1,0.999792098585,01,02,60.0163040348,PLT_learning_01,B,2014_Feb_10_1512,P06,
stim_fb/ques.jpg,stim_fb/negf.jpg,stim_fb/posf.jpg,stim_01/e.jpg,stim_01/f.jpg,2,3,j,4,52,292,52,j,1,1.53289140649,01,02,60.0163040348,PLT_learning_01,B,2014_Feb_10_1512,P06,
stim_fb/ques.jpg,stim_fb/posf.jpg,stim_fb/negf.jpg,stim_01/c.jpg,stim_01/d.jpg,2,2,j,4,53,293,39,j,1,0.733134444348,01,02,60.0163040348,PLT_learning_01,B,2014_Feb_10_1512,P06,
stim_fb/ques.jpg,stim_fb/negf.jpg,stim_fb/posf.jpg,stim_01/a.jpg,stim_01/b.jpg,2,1,j,4,54,294,11,j,1,0.666364884607,01,02,60.0163040348,PLT_learning_01,B,2014_Feb_10_1512,P06,
stim_fb/ques.jpg,stim_fb/posf.jpg,stim_fb/negf.jpg,stim_01/a.jpg,stim_01/b.jpg,2,1,j,4,55,295,18,j,1,0.5831715522,01,02,60.0163040348,PLT_learning_01,B,2014_Feb_10_1512,P06,
stim_fb/ques.jpg,stim_fb/negf.jpg,stim_fb/posf.jpg,stim_01/d.jpg,stim_01/c.jpg,1,2,f,4,56,296,23,f,1,0.800758875652,01,02,60.0163040348,PLT_learning_01,B,2014_Feb_10_1512,P06,
stim_fb/ques.jpg,stim_fb/posf.jpg,stim_fb/negf.jpg,stim_01/f.jpg,stim_01/e.jpg,1,3,f,4,57,297,48,f,1,0.949732004526,01,02,60.0163040348,PLT_learning_01,B,2014_Feb_10_1512,P06,
stim_fb/ques.jpg,stim_fb/negf.jpg,stim_fb/posf.jpg,stim_01/a.jpg,stim_01/b.jpg,2,1,j,4,58,298,10,j,1,0.633183394173,01,02,60.0163040348,PLT_learning_01,B,2014_Feb_10_1512,P06,
stim_fb/ques.jpg,stim_fb/negf.jpg,stim_fb/posf.jpg,stim_01/b.jpg,stim_01/a.jpg,1,1,f,4,59,299,5,f,1,0.583208039007,01,02,60.0163040348,PLT_learning_01,B,2014_Feb_10_1512,P06,
stim_fb/ques.jpg,stim_fb/negf.jpg,stim_fb/posf.jpg,stim_01/e.jpg,stim_01/f.jpg,2,3,j,5,0,300,52,j,1,0.983068756367,01,02,60.0163040348,PLT_learning_01,B,2014_Feb_10_1512,P06,
stim_fb/ques.jpg,stim_fb/negf.jpg,stim_fb/posf.jpg,stim_01/c.jpg,stim_01/d.jpg,2,2,j,5,1,301,33,j,1,1.0997213475,01,02,60.0163040348,PLT_learning_01,B,2014_Feb_10_1512,P06,
stim_fb/ques.jpg,stim_fb/posf.jpg,stim_fb/negf.jpg,stim_01/d.jpg,stim_01/c.jpg,1,2,f,5,2,302,27,f,1,0.949730221088,01,02,60.0163040348,PLT_learning_01,B,2014_Feb_10_1512,P06,
stim_fb/ques.jpg,stim_fb/negf.jpg,stim_fb/posf.jpg,stim_01/c.jpg,stim_01/d.jpg,2,2,j,5,3,303,30,j,1,0.683134647354,01,02,60.0163040348,PLT_learning_01,B,2014_Feb_10_1512,P06,
stim_fb/ques.jpg,stim_fb/posf.jpg,stim_fb/negf.jpg,stim_01/e.jpg,stim_01/f.jpg,2,3,j,5,4,304,56,j,1,1.05000499092,01,02,60.0163040348,PLT_learning_01,B,2014_Feb_10_1512,P06,
stim_fb/ques.jpg,stim_fb/posf.jpg,stim_fb/negf.jpg,stim_01/b.jpg,stim_01/a.jpg,1,1,f,5,5,305,9,f,1,1.03303975369,01,02,60.0163040348,PLT_learning_01,B,2014_Feb_10_1512,P06,
stim_fb/ques.jpg,stim_fb/negf.jpg,stim_fb/posf.jpg,stim_01/b.jpg,stim_01/a.jpg,1,1,f,5,6,306,6,f,1,1.29960671722,01,02,60.0163040348,PLT_learning_01,B,2014_Feb_10_1512,P06,
stim_fb/ques.jpg,stim_fb/posf.jpg,stim_fb/negf.jpg,stim_01/d.jpg,stim_01/c.jpg,1,2,f,5,7,307,29,f,1,0.716471919489,01,02,60.0163040348,PLT_learning_01,B,2014_Feb_10_1512,P06,
stim_fb/ques.jpg,stim_fb/negf.jpg,stim_fb/posf.jpg,stim_01/c.jpg,stim_01/d.jpg,2,2,j,5,8,308,32,j,1,0.866434754495,01,02,60.0163040348,PLT_learning_01,B,2014_Feb_10_1512,P06,
stim_fb/ques.jpg,stim_fb/negf.jpg,stim_fb/posf.jpg,stim_01/a.jpg,stim_01/b.jpg,2,1,j,5,9,309,13,j,1,0.766491024538,01,02,60.0163040348,PLT_learning_01,B,2014_Feb_10_1512,P06,
stim_fb/ques.jpg,stim_fb/negf.jpg,stim_fb/posf.jpg,stim_01/b.jpg,stim_01/a.jpg,1,1,f,5,10,310,4,f,1,0.949729093281,01,02,60.0163040348,PLT_learning_01,B,2014_Feb_10_1512,P06,
stim_fb/ques.jpg,stim_fb/posf.jpg,stim_fb/negf.jpg,stim_01/a.jpg,stim_01/b.jpg,2,1,j,5,11,311,18,j,1,0.699825186934,01,02,60.0163040348,PLT_learning_01,B,2014_Feb_10_1512,P06,
stim_fb/ques.jpg,stim_fb/negf.jpg,stim_fb/posf.jpg,stim_01/c.jpg,stim_01/d.jpg,2,2,j,5,12,312,34,j,1,0.983039304068,01,02,60.0163040348,PLT_learning_01,B,2014_Feb_10_1512,P06,
stim_fb/ques.jpg,stim_fb/negf.jpg,stim_fb/posf.jpg,stim_01/e.jpg,stim_01/f.jpg,2,3,j,5,13,313,53,j,1,0.833079789326,01,02,60.0163040348,PLT_learning_01,B,2014_Feb_10_1512,P06,
stim_fb/ques.jpg,stim_fb/posf.jpg,stim_fb/negf.jpg,stim_01/e.jpg,stim_01/f.jpg,2,3,j,5,14,314,58,j,1,1.18300410146,01,02,60.0163040348,PLT_learning_01,B,2014_Feb_10_1512,P06,
stim_fb/ques.jpg,stim_fb/negf.jpg,stim_fb/posf.jpg,stim_01/d.jpg,stim_01/c.jpg,1,2,f,5,15,315,22,f,1,0.783103270264,01,02,60.0163040348,PLT_learning_01,B,2014_Feb_10_1512,P06,
stim_fb/ques.jpg,stim_fb/negf.jpg,stim_fb/posf.jpg,stim_01/a.jpg,stim_01/b.jpg,2,1,j,5,16,316,10,j,1,0.666504633406,01,02,60.0163040348,PLT_learning_01,B,2014_Feb_10_1512,P06,
stim_fb/ques.jpg,stim_fb/posf.jpg,stim_fb/negf.jpg,stim_01/f.jpg,stim_01/e.jpg,1,3,f,5,17,317,48,f,1,0.683148914862,01,02,60.0163040348,PLT_learning_01,B,2014_Feb_10_1512,P06,
stim_fb/ques.jpg,stim_fb/negf.jpg,stim_fb/posf.jpg,stim_01/e.jpg,stim_01/f.jpg,2,3,j,5,18,318,50,j,1,0.53315650425,01,02,60.0163040348,PLT_learning_01,B,2014_Feb_10_1512,P06,
stim_fb/ques.jpg,stim_fb/negf.jpg,stim_fb/posf.jpg,stim_01/b.jpg,stim_01/a.jpg,1,1,f,5,19,319,5,f,1,0.816446136322,01,02,60.0163040348,PLT_learning_01,B,2014_Feb_10_1512,P06,
stim_fb/ques.jpg,stim_fb/negf.jpg,stim_fb/posf.jpg,stim_01/f.jpg,stim_01/e.jpg,1,3,f,5,20,320,44,f,1,1.14965489863,01,02,60.0163040348,PLT_learning_01,B,2014_Feb_10_1512,P06,
stim_fb/ques.jpg,stim_fb/posf.jpg,stim_fb/negf.jpg,stim_01/f.jpg,stim_01/e.jpg,1,3,f,5,21,321,46,f,1,1.04972503919,01,02,60.0163040348,PLT_learning_01,B,2014_Feb_10_1512,P06,
stim_fb/ques.jpg,stim_fb/posf.jpg,stim_fb/negf.jpg,stim_01/f.jpg,stim_01/e.jpg,1,3,f,5,22,322,49,j,0,1.08307614275,01,02,60.0163040348,PLT_learning_01,B,2014_Feb_10_1512,P06,
stim_fb/ques.jpg,stim_fb/negf.jpg,stim_fb/posf.jpg,stim_01/b.jpg,stim_01/a.jpg,1,1,f,5,23,323,0,f,1,1.2995819987,01,02,60.0163040348,PLT_learning_01,B,2014_Feb_10_1512,P06,
stim_fb/ques.jpg,stim_fb/negf.jpg,stim_fb/posf.jpg,stim_01/d.jpg,stim_01/c.jpg,1,2,f,5,24,324,26,f,1,1.23298625053,01,02,60.0163040348,PLT_learning_01,B,2014_Feb_10_1512,P06,
stim_fb/ques.jpg,stim_fb/negf.jpg,stim_fb/posf.jpg,stim_01/b.jpg,stim_01/a.jpg,1,1,f,5,25,325,3,f,1,0.683164692127,01,02,60.0163040348,PLT_learning_01,B,2014_Feb_10_1512,P06,
stim_fb/ques.jpg,stim_fb/negf.jpg,stim_fb/posf.jpg,stim_01/a.jpg,stim_01/b.jpg,2,1,j,5,26,326,16,j,1,0.666494230516,01,02,60.0163040348,PLT_learning_01,B,2014_Feb_10_1512,P06,
stim_fb/ques.jpg,stim_fb/negf.jpg,stim_fb/posf.jpg,stim_01/a.jpg,stim_01/b.jpg,2,1,j,5,27,327,12,j,1,0.716497001913,01,02,60.0163040348,PLT_learning_01,B,2014_Feb_10_1512,P06,
stim_fb/ques.jpg,stim_fb/negf.jpg,stim_fb/posf.jpg,stim_01/d.jpg,stim_01/c.jpg,1,2,f,5,28,328,20,f,1,1.26624765886,01,02,60.0163040348,PLT_learning_01,B,2014_Feb_10_1512,P06,
stim_fb/ques.jpg,stim_fb/negf.jpg,stim_fb/posf.jpg,stim_01/b.jpg,stim_01/a.jpg,1,1,f,5,29,329,2,f,1,0.733109623576,01,02,60.0163040348,PLT_learning_01,B,2014_Feb_10_1512,P06,
stim_fb/ques.jpg,stim_fb/negf.jpg,stim_fb/posf.jpg,stim_01/d.jpg,stim_01/c.jpg,1,2,f,5,30,330,21,f,1,0.866440210073,01,02,60.0163040348,PLT_learning_01,B,2014_Feb_10_1512,P06,
stim_fb/ques.jpg,stim_fb/negf.jpg,stim_fb/posf.jpg,stim_01/d.jpg,stim_01/c.jpg,1,2,f,5,31,331,23,f,1,0.549851131002,01,02,60.0163040348,PLT_learning_01,B,2014_Feb_10_1512,P06,
stim_fb/ques.jpg,stim_fb/negf.jpg,stim_fb/posf.jpg,stim_01/e.jpg,stim_01/f.jpg,2,3,j,5,32,332,54,j,1,0.849765405654,01,02,60.0163040348,PLT_learning_01,B,2014_Feb_10_1512,P06,
stim_fb/ques.jpg,stim_fb/negf.jpg,stim_fb/posf.jpg,stim_01/f.jpg,stim_01/e.jpg,1,3,f,5,33,333,43,f,1,0.966449391924,01,02,60.0163040348,PLT_learning_01,B,2014_Feb_10_1512,P06,
stim_fb/ques.jpg,stim_fb/posf.jpg,stim_fb/negf.jpg,stim_01/a.jpg,stim_01/b.jpg,2,1,j,5,34,334,19,j,1,0.816451838513,01,02,60.0163040348,PLT_learning_01,B,2014_Feb_10_1512,P06,
stim_fb/ques.jpg,stim_fb/posf.jpg,stim_fb/negf.jpg,stim_01/c.jpg,stim_01/d.jpg,2,2,j,5,35,335,38,j,1,0.833096186133,01,02,60.0163040348,PLT_learning_01,B,2014_Feb_10_1512,P06,
stim_fb/ques.jpg,stim_fb/posf.jpg,stim_fb/negf.jpg,stim_01/c.jpg,stim_01/d.jpg,2,2,j,5,36,336,37,j,1,0.733156684699,01,02,60.0163040348,PLT_learning_01,B,2014_Feb_10_1512,P06,
stim_fb/ques.jpg,stim_fb/negf.jpg,stim_fb/posf.jpg,stim_01/b.jpg,stim_01/a.jpg,1,1,f,5,37,337,1,f,1,0.966390514393,01,02,60.0163040348,PLT_learning_01,B,2014_Feb_10_1512,P06,
stim_fb/ques.jpg,stim_fb/negf.jpg,stim_fb/posf.jpg,stim_01/e.jpg,stim_01/f.jpg,2,3,j,5,38,338,51,j,1,0.666498086112,01,02,60.0163040348,PLT_learning_01,B,2014_Feb_10_1512,P06,
stim_fb/ques.jpg,stim_fb/negf.jpg,stim_fb/posf.jpg,stim_01/c.jpg,stim_01/d.jpg,2,2,j,5,39,339,31,j,1,0.616512824291,01,02,60.0163040348,PLT_learning_01,B,2014_Feb_10_1512,P06,
stim_fb/ques.jpg,stim_fb/negf.jpg,stim_fb/posf.jpg,stim_01/d.jpg,stim_01/c.jpg,1,2,f,5,40,340,24,f,1,0.933070688676,01,02,60.0163040348,PLT_learning_01,B,2014_Feb_10_1512,P06,
stim_fb/ques.jpg,stim_fb/posf.jpg,stim_fb/negf.jpg,stim_01/e.jpg,stim_01/f.jpg,2,3,j,5,41,341,59,j,1,0.583162021481,01,02,60.0163040348,PLT_learning_01,B,2014_Feb_10_1512,P06,
stim_fb/ques.jpg,stim_fb/posf.jpg,stim_fb/negf.jpg,stim_01/c.jpg,stim_01/d.jpg,2,2,j,5,42,342,39,j,1,0.566538076638,01,02,60.0163040348,PLT_learning_01,B,2014_Feb_10_1512,P06,
stim_fb/ques.jpg,stim_fb/negf.jpg,stim_fb/posf.jpg,stim_01/c.jpg,stim_01/d.jpg,2,2,j,5,43,343,35,j,1,0.733109157416,01,02,60.0163040348,PLT_learning_01,B,2014_Feb_10_1512,P06,
stim_fb/ques.jpg,stim_fb/negf.jpg,stim_fb/posf.jpg,stim_01/f.jpg,stim_01/e.jpg,1,3,f,5,44,344,41,f,1,0.916366056022,01,02,60.0163040348,PLT_learning_01,B,2014_Feb_10_1512,P06,
stim_fb/ques.jpg,stim_fb/posf.jpg,stim_fb/negf.jpg,stim_01/f.jpg,stim_01/e.jpg,1,3,f,5,45,345,47,f,1,1.13301677049,01,02,60.0163040348,PLT_learning_01,B,2014_Feb_10_1512,P06,
stim_fb/ques.jpg,stim_fb/negf.jpg,stim_fb/posf.jpg,stim_01/a.jpg,stim_01/b.jpg,2,1,j,5,46,346,15,j,1,0.766446489701,01,02,60.0163040348,PLT_learning_01,B,2014_Feb_10_1512,P06,
stim_fb/ques.jpg,stim_fb/negf.jpg,stim_fb/posf.jpg,stim_01/a.jpg,stim_01/b.jpg,2,1,j,5,47,347,17,j,1,0.833115818994,01,02,60.0163040348,PLT_learning_01,B,2014_Feb_10_1512,P06,
stim_fb/ques.jpg,stim_fb/negf.jpg,stim_fb/posf.jpg,stim_01/a.jpg,stim_01/b.jpg,2,1,j,5,48,348,11,j,1,0.566524353485,01,02,60.0163040348,PLT_learning_01,B,2014_Feb_10_1512,P06,
stim_fb/ques.jpg,stim_fb/negf.jpg,stim_fb/posf.jpg,stim_01/a.jpg,stim_01/b.jpg,2,1,j,5,49,349,14,j,1,0.616483486277,01,02,60.0163040348,PLT_learning_01,B,2014_Feb_10_1512,P06,
stim_fb/ques.jpg,stim_fb/posf.jpg,stim_fb/negf.jpg,stim_01/b.jpg,stim_01/a.jpg,1,1,f,5,50,350,8,f,1,0.733154197509,01,02,60.0163040348,PLT_learning_01,B,2014_Feb_10_1512,P06,
stim_fb/ques.jpg,stim_fb/negf.jpg,stim_fb/posf.jpg,stim_01/f.jpg,stim_01/e.jpg,1,3,f,5,51,351,45,j,0,0.533155199001,01,02,60.0163040348,PLT_learning_01,B,2014_Feb_10_1512,P06,
stim_fb/ques.jpg,stim_fb/posf.jpg,stim_fb/negf.jpg,stim_01/d.jpg,stim_01/c.jpg,1,2,f,5,52,352,28,f,1,0.783112440085,01,02,60.0163040348,PLT_learning_01,B,2014_Feb_10_1512,P06,
stim_fb/ques.jpg,stim_fb/posf.jpg,stim_fb/negf.jpg,stim_01/e.jpg,stim_01/f.jpg,2,3,j,5,53,353,57,j,1,0.666469656357,01,02,60.0163040348,PLT_learning_01,B,2014_Feb_10_1512,P06,
stim_fb/ques.jpg,stim_fb/negf.jpg,stim_fb/posf.jpg,stim_01/f.jpg,stim_01/e.jpg,1,3,f,5,54,354,42,None,0,,01,02,60.0163040348,PLT_learning_01,B,2014_Feb_10_1512,P06,
stim_fb/ques.jpg,stim_fb/negf.jpg,stim_fb/posf.jpg,stim_01/c.jpg,stim_01/d.jpg,2,2,j,5,55,355,36,j,1,0.849814265253,01,02,60.0163040348,PLT_learning_01,B,2014_Feb_10_1512,P06,
stim_fb/ques.jpg,stim_fb/negf.jpg,stim_fb/posf.jpg,stim_01/e.jpg,stim_01/f.jpg,2,3,j,5,56,356,55,f,0,0.549862854178,01,02,60.0163040348,PLT_learning_01,B,2014_Feb_10_1512,P06,
stim_fb/ques.jpg,stim_fb/negf.jpg,stim_fb/posf.jpg,stim_01/f.jpg,stim_01/e.jpg,1,3,f,5,57,357,40,j,0,0.766452149788,01,02,60.0163040348,PLT_learning_01,B,2014_Feb_10_1512,P06,
stim_fb/ques.jpg,stim_fb/negf.jpg,stim_fb/posf.jpg,stim_01/b.jpg,stim_01/a.jpg,1,1,f,5,58,358,7,f,1,0.683018765954,01,02,60.0163040348,PLT_learning_01,B,2014_Feb_10_1512,P06,
stim_fb/ques.jpg,stim_fb/negf.jpg,stim_fb/posf.jpg,stim_01/d.jpg,stim_01/c.jpg,1,2,f,5,59,359,25,f,1,0.966391464758,01,02,60.0163040348,PLT_learning_01,B,2014_Feb_10_1512,P06,
