Fb3,Fb2,Fb1,Symbol2,Symbol1,PosCond,Pair,Correct,trials.thisRepN,trials.thisTrialN,trials.thisN,trials.thisIndex,Response.keys,Response.corr,Response.rt,Version,Session Number,frameRate,expName,StimCondition,date,Participant,
stim_fb/ques.jpg,stim_fb/posf.jpg,stim_fb/negf.jpg,stim_01/e.jpg,stim_01/f.jpg,2,3,j,0,0,0,59,j,1,1.48289578575,01,03,60.0189069868,PLT_learning_01,B,2014_Feb_26_1818,P07,
stim_fb/ques.jpg,stim_fb/negf.jpg,stim_fb/posf.jpg,stim_01/d.jpg,stim_01/c.jpg,1,2,f,0,1,1,26,f,1,0.933082876069,01,03,60.0189069868,PLT_learning_01,B,2014_Feb_26_1818,P07,
stim_fb/ques.jpg,stim_fb/posf.jpg,stim_fb/negf.jpg,stim_01/e.jpg,stim_01/f.jpg,2,3,j,0,2,2,56,j,1,1.13300344809,01,03,60.0189069868,PLT_learning_01,B,2014_Feb_26_1818,P07,
stim_fb/ques.jpg,stim_fb/negf.jpg,stim_fb/posf.jpg,stim_01/e.jpg,stim_01/f.jpg,2,3,j,0,3,3,52,j,1,0.599813252532,01,03,60.0189069868,PLT_learning_01,B,2014_Feb_26_1818,P07,
stim_fb/ques.jpg,stim_fb/posf.jpg,stim_fb/negf.jpg,stim_01/d.jpg,stim_01/c.jpg,1,2,f,0,4,4,27,f,1,0.816432099006,01,03,60.0189069868,PLT_learning_01,B,2014_Feb_26_1818,P07,
stim_fb/ques.jpg,stim_fb/negf.jpg,stim_fb/posf.jpg,stim_01/d.jpg,stim_01/c.jpg,1,2,f,0,5,5,23,f,1,1.13301870813,01,03,60.0189069868,PLT_learning_01,B,2014_Feb_26_1818,P07,
stim_fb/ques.jpg,stim_fb/negf.jpg,stim_fb/posf.jpg,stim_01/f.jpg,stim_01/e.jpg,1,3,f,0,6,6,40,j,0,1.26631765475,01,03,60.0189069868,PLT_learning_01,B,2014_Feb_26_1818,P07,
stim_fb/ques.jpg,stim_fb/negf.jpg,stim_fb/posf.jpg,stim_01/c.jpg,stim_01/d.jpg,2,2,j,0,7,7,34,f,0,0.86642813212,01,03,60.0189069868,PLT_learning_01,B,2014_Feb_26_1818,P07,
stim_fb/ques.jpg,stim_fb/negf.jpg,stim_fb/posf.jpg,stim_01/c.jpg,stim_01/d.jpg,2,2,j,0,8,8,35,j,1,0.383261431118,01,03,60.0189069868,PLT_learning_01,B,2014_Feb_26_1818,P07,
stim_fb/ques.jpg,stim_fb/negf.jpg,stim_fb/posf.jpg,stim_01/f.jpg,stim_01/e.jpg,1,3,f,0,9,9,43,f,1,0.833121017135,01,03,60.0189069868,PLT_learning_01,B,2014_Feb_26_1818,P07,
stim_fb/ques.jpg,stim_fb/negf.jpg,stim_fb/posf.jpg,stim_01/f.jpg,stim_01/e.jpg,1,3,f,0,10,10,41,j,0,1.06633278847,01,03,60.0189069868,PLT_learning_01,B,2014_Feb_26_1818,P07,
stim_fb/ques.jpg,stim_fb/negf.jpg,stim_fb/posf.jpg,stim_01/e.jpg,stim_01/f.jpg,2,3,j,0,11,11,55,j,1,0.466534359892,01,03,60.0189069868,PLT_learning_01,B,2014_Feb_26_1818,P07,
stim_fb/ques.jpg,stim_fb/negf.jpg,stim_fb/posf.jpg,stim_01/f.jpg,stim_01/e.jpg,1,3,f,0,12,12,45,f,1,0.61650684431,01,03,60.0189069868,PLT_learning_01,B,2014_Feb_26_1818,P07,
stim_fb/ques.jpg,stim_fb/negf.jpg,stim_fb/posf.jpg,stim_01/b.jpg,stim_01/a.jpg,1,1,f,0,13,13,0,j,0,0.599859489778,01,03,60.0189069868,PLT_learning_01,B,2014_Feb_26_1818,P07,
stim_fb/ques.jpg,stim_fb/posf.jpg,stim_fb/negf.jpg,stim_01/d.jpg,stim_01/c.jpg,1,2,f,0,14,14,29,f,1,0.583157642423,01,03,60.0189069868,PLT_learning_01,B,2014_Feb_26_1818,P07,
stim_fb/ques.jpg,stim_fb/negf.jpg,stim_fb/posf.jpg,stim_01/e.jpg,stim_01/f.jpg,2,3,j,0,15,15,51,j,1,0.766448453771,01,03,60.0189069868,PLT_learning_01,B,2014_Feb_26_1818,P07,
stim_fb/ques.jpg,stim_fb/negf.jpg,stim_fb/posf.jpg,stim_01/a.jpg,stim_01/b.jpg,2,1,j,0,16,16,17,f,0,0.816449280833,01,03,60.0189069868,PLT_learning_01,B,2014_Feb_26_1818,P07,
stim_fb/ques.jpg,stim_fb/posf.jpg,stim_fb/negf.jpg,stim_01/f.jpg,stim_01/e.jpg,1,3,f,0,17,17,47,j,0,0.883054187563,01,03,60.0189069868,PLT_learning_01,B,2014_Feb_26_1818,P07,
stim_fb/ques.jpg,stim_fb/negf.jpg,stim_fb/posf.jpg,stim_01/b.jpg,stim_01/a.jpg,1,1,f,0,18,18,4,j,0,0.799784317412,01,03,60.0189069868,PLT_learning_01,B,2014_Feb_26_1818,P07,
stim_fb/ques.jpg,stim_fb/negf.jpg,stim_fb/posf.jpg,stim_01/a.jpg,stim_01/b.jpg,2,1,j,0,19,19,16,f,0,0.483225265975,01,03,60.0189069868,PLT_learning_01,B,2014_Feb_26_1818,P07,
stim_fb/ques.jpg,stim_fb/posf.jpg,stim_fb/negf.jpg,stim_01/f.jpg,stim_01/e.jpg,1,3,f,0,20,20,48,f,1,1.2829732799,01,03,60.0189069868,PLT_learning_01,B,2014_Feb_26_1818,P07,
stim_fb/ques.jpg,stim_fb/posf.jpg,stim_fb/negf.jpg,stim_01/e.jpg,stim_01/f.jpg,2,3,j,0,21,21,58,f,0,1.36625960106,01,03,60.0189069868,PLT_learning_01,B,2014_Feb_26_1818,P07,
stim_fb/ques.jpg,stim_fb/negf.jpg,stim_fb/posf.jpg,stim_01/f.jpg,stim_01/e.jpg,1,3,f,0,22,22,42,j,0,1.34960104962,01,03,60.0189069868,PLT_learning_01,B,2014_Feb_26_1818,P07,
stim_fb/ques.jpg,stim_fb/negf.jpg,stim_fb/posf.jpg,stim_01/a.jpg,stim_01/b.jpg,2,1,j,0,23,23,10,f,0,0.79981665401,01,03,60.0189069868,PLT_learning_01,B,2014_Feb_26_1818,P07,
stim_fb/ques.jpg,stim_fb/posf.jpg,stim_fb/negf.jpg,stim_01/f.jpg,stim_01/e.jpg,1,3,f,0,24,24,49,f,1,0.983057992045,01,03,60.0189069868,PLT_learning_01,B,2014_Feb_26_1818,P07,
stim_fb/ques.jpg,stim_fb/negf.jpg,stim_fb/posf.jpg,stim_01/b.jpg,stim_01/a.jpg,1,1,f,0,25,25,7,j,0,0.699820151728,01,03,60.0189069868,PLT_learning_01,B,2014_Feb_26_1818,P07,
stim_fb/ques.jpg,stim_fb/negf.jpg,stim_fb/posf.jpg,stim_01/a.jpg,stim_01/b.jpg,2,1,j,0,26,26,11,j,1,0.916407933775,01,03,60.0189069868,PLT_learning_01,B,2014_Feb_26_1818,P07,
stim_fb/ques.jpg,stim_fb/posf.jpg,stim_fb/negf.jpg,stim_01/d.jpg,stim_01/c.jpg,1,2,f,0,27,27,28,f,1,1.38291048037,01,03,60.0189069868,PLT_learning_01,B,2014_Feb_26_1818,P07,
stim_fb/ques.jpg,stim_fb/negf.jpg,stim_fb/posf.jpg,stim_01/c.jpg,stim_01/d.jpg,2,2,j,0,28,28,30,j,1,0.799782678326,01,03,60.0189069868,PLT_learning_01,B,2014_Feb_26_1818,P07,
stim_fb/ques.jpg,stim_fb/negf.jpg,stim_fb/posf.jpg,stim_01/a.jpg,stim_01/b.jpg,2,1,j,0,29,29,15,f,0,0.849781066308,01,03,60.0189069868,PLT_learning_01,B,2014_Feb_26_1818,P07,
stim_fb/ques.jpg,stim_fb/posf.jpg,stim_fb/negf.jpg,stim_01/c.jpg,stim_01/d.jpg,2,2,j,0,30,30,39,j,1,0.999714444252,01,03,60.0189069868,PLT_learning_01,B,2014_Feb_26_1818,P07,
stim_fb/ques.jpg,stim_fb/negf.jpg,stim_fb/posf.jpg,stim_01/d.jpg,stim_01/c.jpg,1,2,f,0,31,31,22,f,1,0.799780723453,01,03,60.0189069868,PLT_learning_01,B,2014_Feb_26_1818,P07,
stim_fb/ques.jpg,stim_fb/negf.jpg,stim_fb/posf.jpg,stim_01/d.jpg,stim_01/c.jpg,1,2,f,0,32,32,21,f,1,1.09971935249,01,03,60.0189069868,PLT_learning_01,B,2014_Feb_26_1818,P07,
stim_fb/ques.jpg,stim_fb/posf.jpg,stim_fb/negf.jpg,stim_01/a.jpg,stim_01/b.jpg,2,1,j,0,33,33,18,j,1,0.849756197322,01,03,60.0189069868,PLT_learning_01,B,2014_Feb_26_1818,P07,
stim_fb/ques.jpg,stim_fb/posf.jpg,stim_fb/negf.jpg,stim_01/a.jpg,stim_01/b.jpg,2,1,j,0,34,34,19,f,0,1.26631467733,01,03,60.0189069868,PLT_learning_01,B,2014_Feb_26_1818,P07,
stim_fb/ques.jpg,stim_fb/negf.jpg,stim_fb/posf.jpg,stim_01/e.jpg,stim_01/f.jpg,2,3,j,0,35,35,53,j,1,1.33295087105,01,03,60.0189069868,PLT_learning_01,B,2014_Feb_26_1818,P07,
stim_fb/ques.jpg,stim_fb/negf.jpg,stim_fb/posf.jpg,stim_01/b.jpg,stim_01/a.jpg,1,1,f,0,36,36,6,j,0,1.34960055639,01,03,60.0189069868,PLT_learning_01,B,2014_Feb_26_1818,P07,
stim_fb/ques.jpg,stim_fb/negf.jpg,stim_fb/posf.jpg,stim_01/d.jpg,stim_01/c.jpg,1,2,f,0,37,37,25,f,1,0.949692438403,01,03,60.0189069868,PLT_learning_01,B,2014_Feb_26_1818,P07,
stim_fb/ques.jpg,stim_fb/negf.jpg,stim_fb/posf.jpg,stim_01/e.jpg,stim_01/f.jpg,2,3,j,0,38,38,54,j,1,1.11638993391,01,03,60.0189069868,PLT_learning_01,B,2014_Feb_26_1818,P07,
stim_fb/ques.jpg,stim_fb/posf.jpg,stim_fb/negf.jpg,stim_01/e.jpg,stim_01/f.jpg,2,3,j,0,39,39,57,j,1,0.916443605687,01,03,60.0189069868,PLT_learning_01,B,2014_Feb_26_1818,P07,
stim_fb/ques.jpg,stim_fb/negf.jpg,stim_fb/posf.jpg,stim_01/b.jpg,stim_01/a.jpg,1,1,f,0,40,40,1,f,1,1.01639448124,01,03,60.0189069868,PLT_learning_01,B,2014_Feb_26_1818,P07,
stim_fb/ques.jpg,stim_fb/posf.jpg,stim_fb/negf.jpg,stim_01/b.jpg,stim_01/a.jpg,1,1,f,0,41,41,8,j,0,1.34961781942,01,03,60.0189069868,PLT_learning_01,B,2014_Feb_26_1818,P07,
stim_fb/ques.jpg,stim_fb/negf.jpg,stim_fb/posf.jpg,stim_01/c.jpg,stim_01/d.jpg,2,2,j,0,42,42,36,f,0,1.11633863204,01,03,60.0189069868,PLT_learning_01,B,2014_Feb_26_1818,P07,
stim_fb/ques.jpg,stim_fb/posf.jpg,stim_fb/negf.jpg,stim_01/f.jpg,stim_01/e.jpg,1,3,f,0,43,43,46,f,1,0.783096259425,01,03,60.0189069868,PLT_learning_01,B,2014_Feb_26_1818,P07,
stim_fb/ques.jpg,stim_fb/negf.jpg,stim_fb/posf.jpg,stim_01/d.jpg,stim_01/c.jpg,1,2,f,0,44,44,20,f,1,0.916372728025,01,03,60.0189069868,PLT_learning_01,B,2014_Feb_26_1818,P07,
stim_fb/ques.jpg,stim_fb/negf.jpg,stim_fb/posf.jpg,stim_01/b.jpg,stim_01/a.jpg,1,1,f,0,45,45,5,j,0,0.666492558703,01,03,60.0189069868,PLT_learning_01,B,2014_Feb_26_1818,P07,
stim_fb/ques.jpg,stim_fb/posf.jpg,stim_fb/negf.jpg,stim_01/b.jpg,stim_01/a.jpg,1,1,f,0,46,46,9,f,1,0.666480537739,01,03,60.0189069868,PLT_learning_01,B,2014_Feb_26_1818,P07,
stim_fb/ques.jpg,stim_fb/posf.jpg,stim_fb/negf.jpg,stim_01/c.jpg,stim_01/d.jpg,2,2,j,0,47,47,38,j,1,0.416555607853,01,03,60.0189069868,PLT_learning_01,B,2014_Feb_26_1818,P07,
stim_fb/ques.jpg,stim_fb/negf.jpg,stim_fb/posf.jpg,stim_01/b.jpg,stim_01/a.jpg,1,1,f,0,48,48,3,j,0,0.966367167164,01,03,60.0189069868,PLT_learning_01,B,2014_Feb_26_1818,P07,
stim_fb/ques.jpg,stim_fb/posf.jpg,stim_fb/negf.jpg,stim_01/c.jpg,stim_01/d.jpg,2,2,j,0,49,49,37,j,1,0.98304555605,01,03,60.0189069868,PLT_learning_01,B,2014_Feb_26_1818,P07,
stim_fb/ques.jpg,stim_fb/negf.jpg,stim_fb/posf.jpg,stim_01/c.jpg,stim_01/d.jpg,2,2,j,0,50,50,33,f,0,1.3162788761,01,03,60.0189069868,PLT_learning_01,B,2014_Feb_26_1818,P07,
stim_fb/ques.jpg,stim_fb/negf.jpg,stim_fb/posf.jpg,stim_01/b.jpg,stim_01/a.jpg,1,1,f,0,51,51,2,f,1,1.01644172901,01,03,60.0189069868,PLT_learning_01,B,2014_Feb_26_1818,P07,
stim_fb/ques.jpg,stim_fb/negf.jpg,stim_fb/posf.jpg,stim_01/c.jpg,stim_01/d.jpg,2,2,j,0,52,52,31,f,0,1.1663476425,01,03,60.0189069868,PLT_learning_01,B,2014_Feb_26_1818,P07,
stim_fb/ques.jpg,stim_fb/negf.jpg,stim_fb/posf.jpg,stim_01/a.jpg,stim_01/b.jpg,2,1,j,0,53,53,12,j,1,0.799806389425,01,03,60.0189069868,PLT_learning_01,B,2014_Feb_26_1818,P07,
stim_fb/ques.jpg,stim_fb/negf.jpg,stim_fb/posf.jpg,stim_01/a.jpg,stim_01/b.jpg,2,1,j,0,54,54,14,j,1,0.649884614402,01,03,60.0189069868,PLT_learning_01,B,2014_Feb_26_1818,P07,
stim_fb/ques.jpg,stim_fb/negf.jpg,stim_fb/posf.jpg,stim_01/e.jpg,stim_01/f.jpg,2,3,j,0,55,55,50,j,1,0.899768801737,01,03,60.0189069868,PLT_learning_01,B,2014_Feb_26_1818,P07,
stim_fb/ques.jpg,stim_fb/negf.jpg,stim_fb/posf.jpg,stim_01/d.jpg,stim_01/c.jpg,1,2,f,0,56,56,24,j,0,1.04971430892,01,03,60.0189069868,PLT_learning_01,B,2014_Feb_26_1818,P07,
stim_fb/ques.jpg,stim_fb/negf.jpg,stim_fb/posf.jpg,stim_01/c.jpg,stim_01/d.jpg,2,2,j,0,57,57,32,j,1,1.34959315193,01,03,60.0189069868,PLT_learning_01,B,2014_Feb_26_1818,P07,
stim_fb/ques.jpg,stim_fb/negf.jpg,stim_fb/posf.jpg,stim_01/f.jpg,stim_01/e.jpg,1,3,f,0,58,58,44,f,1,0.933044801166,01,03,60.0189069868,PLT_learning_01,B,2014_Feb_26_1818,P07,
stim_fb/ques.jpg,stim_fb/negf.jpg,stim_fb/posf.jpg,stim_01/a.jpg,stim_01/b.jpg,2,1,j,0,59,59,13,j,1,0.983067267163,01,03,60.0189069868,PLT_learning_01,B,2014_Feb_26_1818,P07,
stim_fb/ques.jpg,stim_fb/negf.jpg,stim_fb/posf.jpg,stim_01/b.jpg,stim_01/a.jpg,1,1,f,1,0,60,0,f,1,0.666507120999,01,03,60.0189069868,PLT_learning_01,B,2014_Feb_26_1818,P07,
stim_fb/ques.jpg,stim_fb/posf.jpg,stim_fb/negf.jpg,stim_01/d.jpg,stim_01/c.jpg,1,2,f,1,1,61,28,f,1,1.13302122841,01,03,60.0189069868,PLT_learning_01,B,2014_Feb_26_1818,P07,
stim_fb/ques.jpg,stim_fb/negf.jpg,stim_fb/posf.jpg,stim_01/e.jpg,stim_01/f.jpg,2,3,j,1,2,62,53,j,1,0.783101423296,01,03,60.0189069868,PLT_learning_01,B,2014_Feb_26_1818,P07,
stim_fb/ques.jpg,stim_fb/negf.jpg,stim_fb/posf.jpg,stim_01/c.jpg,stim_01/d.jpg,2,2,j,1,3,63,34,f,0,0.999684724175,01,03,60.0189069868,PLT_learning_01,B,2014_Feb_26_1818,P07,
stim_fb/ques.jpg,stim_fb/negf.jpg,stim_fb/posf.jpg,stim_01/a.jpg,stim_01/b.jpg,2,1,j,1,4,64,15,j,1,0.916412017954,01,03,60.0189069868,PLT_learning_01,B,2014_Feb_26_1818,P07,
stim_fb/ques.jpg,stim_fb/negf.jpg,stim_fb/posf.jpg,stim_01/d.jpg,stim_01/c.jpg,1,2,f,1,5,65,21,f,1,1.44955306201,01,03,60.0189069868,PLT_learning_01,B,2014_Feb_26_1818,P07,
stim_fb/ques.jpg,stim_fb/negf.jpg,stim_fb/posf.jpg,stim_01/b.jpg,stim_01/a.jpg,1,1,f,1,6,66,3,f,1,0.916419269028,01,03,60.0189069868,PLT_learning_01,B,2014_Feb_26_1818,P07,
stim_fb/ques.jpg,stim_fb/posf.jpg,stim_fb/negf.jpg,stim_01/b.jpg,stim_01/a.jpg,1,1,f,1,7,67,8,f,1,0.649841234275,01,03,60.0189069868,PLT_learning_01,B,2014_Feb_26_1818,P07,
stim_fb/ques.jpg,stim_fb/posf.jpg,stim_fb/negf.jpg,stim_01/e.jpg,stim_01/f.jpg,2,3,j,1,8,68,59,j,1,0.59985589582,01,03,60.0189069868,PLT_learning_01,B,2014_Feb_26_1818,P07,
stim_fb/ques.jpg,stim_fb/negf.jpg,stim_fb/posf.jpg,stim_01/b.jpg,stim_01/a.jpg,1,1,f,1,9,69,7,f,1,0.666502516522,01,03,60.0189069868,PLT_learning_01,B,2014_Feb_26_1818,P07,
stim_fb/ques.jpg,stim_fb/posf.jpg,stim_fb/negf.jpg,stim_01/c.jpg,stim_01/d.jpg,2,2,j,1,10,70,37,j,1,0.999717987082,01,03,60.0189069868,PLT_learning_01,B,2014_Feb_26_1818,P07,
stim_fb/ques.jpg,stim_fb/negf.jpg,stim_fb/posf.jpg,stim_01/b.jpg,stim_01/a.jpg,1,1,f,1,11,71,2,f,1,0.883077330245,01,03,60.0189069868,PLT_learning_01,B,2014_Feb_26_1818,P07,
stim_fb/ques.jpg,stim_fb/negf.jpg,stim_fb/posf.jpg,stim_01/d.jpg,stim_01/c.jpg,1,2,f,1,12,72,25,j,0,0.649857330396,01,03,60.0189069868,PLT_learning_01,B,2014_Feb_26_1818,P07,
stim_fb/ques.jpg,stim_fb/negf.jpg,stim_fb/posf.jpg,stim_01/f.jpg,stim_01/e.jpg,1,3,f,1,13,73,41,f,1,0.999735689205,01,03,60.0189069868,PLT_learning_01,B,2014_Feb_26_1818,P07,
stim_fb/ques.jpg,stim_fb/negf.jpg,stim_fb/posf.jpg,stim_01/e.jpg,stim_01/f.jpg,2,3,j,1,14,74,51,j,1,1.24963258321,01,03,60.0189069868,PLT_learning_01,B,2014_Feb_26_1818,P07,
stim_fb/ques.jpg,stim_fb/posf.jpg,stim_fb/negf.jpg,stim_01/f.jpg,stim_01/e.jpg,1,3,f,1,15,75,48,f,1,1.18298848881,01,03,60.0189069868,PLT_learning_01,B,2014_Feb_26_1818,P07,
stim_fb/ques.jpg,stim_fb/negf.jpg,stim_fb/posf.jpg,stim_01/a.jpg,stim_01/b.jpg,2,1,j,1,16,76,12,f,0,1.56617238066,01,03,60.0189069868,PLT_learning_01,B,2014_Feb_26_1818,P07,
stim_fb/ques.jpg,stim_fb/negf.jpg,stim_fb/posf.jpg,stim_01/a.jpg,stim_01/b.jpg,2,1,j,1,17,77,14,j,1,0.799790777513,01,03,60.0189069868,PLT_learning_01,B,2014_Feb_26_1818,P07,
stim_fb/ques.jpg,stim_fb/posf.jpg,stim_fb/negf.jpg,stim_01/a.jpg,stim_01/b.jpg,2,1,j,1,18,78,18,j,1,0.699799162412,01,03,60.0189069868,PLT_learning_01,B,2014_Feb_26_1818,P07,
stim_fb/ques.jpg,stim_fb/posf.jpg,stim_fb/negf.jpg,stim_01/c.jpg,stim_01/d.jpg,2,2,j,1,19,79,38,f,0,1.1663216427,01,03,60.0189069868,PLT_learning_01,B,2014_Feb_26_1818,P07,
stim_fb/ques.jpg,stim_fb/negf.jpg,stim_fb/posf.jpg,stim_01/c.jpg,stim_01/d.jpg,2,2,j,1,20,80,35,j,1,1.08301659988,01,03,60.0189069868,PLT_learning_01,B,2014_Feb_26_1818,P07,
stim_fb/ques.jpg,stim_fb/negf.jpg,stim_fb/posf.jpg,stim_01/b.jpg,stim_01/a.jpg,1,1,f,1,21,81,4,f,1,1.31623767039,01,03,60.0189069868,PLT_learning_01,B,2014_Feb_26_1818,P07,
stim_fb/ques.jpg,stim_fb/posf.jpg,stim_fb/negf.jpg,stim_01/a.jpg,stim_01/b.jpg,2,1,j,1,22,82,19,j,1,1.1663137029,01,03,60.0189069868,PLT_learning_01,B,2014_Feb_26_1818,P07,
stim_fb/ques.jpg,stim_fb/negf.jpg,stim_fb/posf.jpg,stim_01/f.jpg,stim_01/e.jpg,1,3,f,1,23,83,44,f,1,1.03307523703,01,03,60.0189069868,PLT_learning_01,B,2014_Feb_26_1818,P07,
stim_fb/ques.jpg,stim_fb/posf.jpg,stim_fb/negf.jpg,stim_01/f.jpg,stim_01/e.jpg,1,3,f,1,24,84,49,f,1,0.966353140202,01,03,60.0189069868,PLT_learning_01,B,2014_Feb_26_1818,P07,
stim_fb/ques.jpg,stim_fb/negf.jpg,stim_fb/posf.jpg,stim_01/d.jpg,stim_01/c.jpg,1,2,f,1,25,85,22,j,0,0.966412270585,01,03,60.0189069868,PLT_learning_01,B,2014_Feb_26_1818,P07,
stim_fb/ques.jpg,stim_fb/negf.jpg,stim_fb/posf.jpg,stim_01/d.jpg,stim_01/c.jpg,1,2,f,1,26,86,20,f,1,0.666473292682,01,03,60.0189069868,PLT_learning_01,B,2014_Feb_26_1818,P07,
stim_fb/ques.jpg,stim_fb/negf.jpg,stim_fb/posf.jpg,stim_01/d.jpg,stim_01/c.jpg,1,2,f,1,27,87,26,j,0,1.43297885881,01,03,60.0189069868,PLT_learning_01,B,2014_Feb_26_1818,P07,
stim_fb/ques.jpg,stim_fb/posf.jpg,stim_fb/negf.jpg,stim_01/b.jpg,stim_01/a.jpg,1,1,f,1,28,88,9,j,0,0.999702516523,01,03,60.0189069868,PLT_learning_01,B,2014_Feb_26_1818,P07,
stim_fb/ques.jpg,stim_fb/posf.jpg,stim_fb/negf.jpg,stim_01/d.jpg,stim_01/c.jpg,1,2,f,1,29,89,29,j,0,1.36624426583,01,03,60.0189069868,PLT_learning_01,B,2014_Feb_26_1818,P07,
stim_fb/ques.jpg,stim_fb/negf.jpg,stim_fb/posf.jpg,stim_01/c.jpg,stim_01/d.jpg,2,2,j,1,30,90,32,j,1,0.699862440133,01,03,60.0189069868,PLT_learning_01,B,2014_Feb_26_1818,P07,
stim_fb/ques.jpg,stim_fb/posf.jpg,stim_fb/negf.jpg,stim_01/e.jpg,stim_01/f.jpg,2,3,j,1,31,91,58,j,1,1.08303069,01,03,60.0189069868,PLT_learning_01,B,2014_Feb_26_1818,P07,
stim_fb/ques.jpg,stim_fb/negf.jpg,stim_fb/posf.jpg,stim_01/a.jpg,stim_01/b.jpg,2,1,j,1,32,92,11,j,1,1.0330410418,01,03,60.0189069868,PLT_learning_01,B,2014_Feb_26_1818,P07,
stim_fb/ques.jpg,stim_fb/negf.jpg,stim_fb/posf.jpg,stim_01/f.jpg,stim_01/e.jpg,1,3,f,1,33,93,43,f,1,1.08307108368,01,03,60.0189069868,PLT_learning_01,B,2014_Feb_26_1818,P07,
stim_fb/ques.jpg,stim_fb/negf.jpg,stim_fb/posf.jpg,stim_01/a.jpg,stim_01/b.jpg,2,1,j,1,34,94,17,j,1,1.31628948354,01,03,60.0189069868,PLT_learning_01,B,2014_Feb_26_1818,P07,
stim_fb/ques.jpg,stim_fb/negf.jpg,stim_fb/posf.jpg,stim_01/f.jpg,stim_01/e.jpg,1,3,f,1,35,95,42,f,1,1.26629323088,01,03,60.0189069868,PLT_learning_01,B,2014_Feb_26_1818,P07,
stim_fb/ques.jpg,stim_fb/negf.jpg,stim_fb/posf.jpg,stim_01/f.jpg,stim_01/e.jpg,1,3,f,1,36,96,45,j,0,1.44958980459,01,03,60.0189069868,PLT_learning_01,B,2014_Feb_26_1818,P07,
stim_fb/ques.jpg,stim_fb/negf.jpg,stim_fb/posf.jpg,stim_01/c.jpg,stim_01/d.jpg,2,2,j,1,37,97,31,j,1,1.23299006173,01,03,60.0189069868,PLT_learning_01,B,2014_Feb_26_1818,P07,
stim_fb/ques.jpg,stim_fb/negf.jpg,stim_fb/posf.jpg,stim_01/d.jpg,stim_01/c.jpg,1,2,f,1,38,98,24,j,0,1.01639133841,01,03,60.0189069868,PLT_learning_01,B,2014_Feb_26_1818,P07,
stim_fb/ques.jpg,stim_fb/posf.jpg,stim_fb/negf.jpg,stim_01/d.jpg,stim_01/c.jpg,1,2,f,1,39,99,27,f,1,0.899765502514,01,03,60.0189069868,PLT_learning_01,B,2014_Feb_26_1818,P07,
stim_fb/ques.jpg,stim_fb/posf.jpg,stim_fb/negf.jpg,stim_01/c.jpg,stim_01/d.jpg,2,2,j,1,40,100,39,f,0,1.29959721807,01,03,60.0189069868,PLT_learning_01,B,2014_Feb_26_1818,P07,
stim_fb/ques.jpg,stim_fb/negf.jpg,stim_fb/posf.jpg,stim_01/e.jpg,stim_01/f.jpg,2,3,j,1,41,101,54,j,1,0.999727412576,01,03,60.0189069868,PLT_learning_01,B,2014_Feb_26_1818,P07,
stim_fb/ques.jpg,stim_fb/negf.jpg,stim_fb/posf.jpg,stim_01/f.jpg,stim_01/e.jpg,1,3,f,1,42,102,40,j,0,1.13308242795,01,03,60.0189069868,PLT_learning_01,B,2014_Feb_26_1818,P07,
stim_fb/ques.jpg,stim_fb/negf.jpg,stim_fb/posf.jpg,stim_01/e.jpg,stim_01/f.jpg,2,3,j,1,43,103,50,j,1,1.3496013233,01,03,60.0189069868,PLT_learning_01,B,2014_Feb_26_1818,P07,
stim_fb/ques.jpg,stim_fb/negf.jpg,stim_fb/posf.jpg,stim_01/a.jpg,stim_01/b.jpg,2,1,j,1,44,104,13,f,0,1.54951646679,01,03,60.0189069868,PLT_learning_01,B,2014_Feb_26_1818,P07,
stim_fb/ques.jpg,stim_fb/negf.jpg,stim_fb/posf.jpg,stim_01/c.jpg,stim_01/d.jpg,2,2,j,1,45,105,33,j,1,1.24963981624,01,03,60.0189069868,PLT_learning_01,B,2014_Feb_26_1818,P07,
stim_fb/ques.jpg,stim_fb/negf.jpg,stim_fb/posf.jpg,stim_01/a.jpg,stim_01/b.jpg,2,1,j,1,46,106,16,j,1,1.3162775137,01,03,60.0189069868,PLT_learning_01,B,2014_Feb_26_1818,P07,
stim_fb/ques.jpg,stim_fb/posf.jpg,stim_fb/negf.jpg,stim_01/f.jpg,stim_01/e.jpg,1,3,f,1,47,107,47,f,1,0.966379413689,01,03,60.0189069868,PLT_learning_01,B,2014_Feb_26_1818,P07,
stim_fb/ques.jpg,stim_fb/posf.jpg,stim_fb/negf.jpg,stim_01/e.jpg,stim_01/f.jpg,2,3,j,1,48,108,57,None,0,,01,03,60.0189069868,PLT_learning_01,B,2014_Feb_26_1818,P07,
stim_fb/ques.jpg,stim_fb/posf.jpg,stim_fb/negf.jpg,stim_01/f.jpg,stim_01/e.jpg,1,3,f,1,49,109,46,f,1,1.3829338817,01,03,60.0189069868,PLT_learning_01,B,2014_Feb_26_1818,P07,
stim_fb/ques.jpg,stim_fb/negf.jpg,stim_fb/posf.jpg,stim_01/a.jpg,stim_01/b.jpg,2,1,j,1,50,110,10,j,1,1.11634657484,01,03,60.0189069868,PLT_learning_01,B,2014_Feb_26_1818,P07,
stim_fb/ques.jpg,stim_fb/negf.jpg,stim_fb/posf.jpg,stim_01/e.jpg,stim_01/f.jpg,2,3,j,1,51,111,55,j,1,0.933060779995,01,03,60.0189069868,PLT_learning_01,B,2014_Feb_26_1818,P07,
stim_fb/ques.jpg,stim_fb/negf.jpg,stim_fb/posf.jpg,stim_01/b.jpg,stim_01/a.jpg,1,1,f,1,52,112,5,f,1,1.2996142405,01,03,60.0189069868,PLT_learning_01,B,2014_Feb_26_1818,P07,
stim_fb/ques.jpg,stim_fb/negf.jpg,stim_fb/posf.jpg,stim_01/d.jpg,stim_01/c.jpg,1,2,f,1,53,113,23,j,0,1.23296320479,01,03,60.0189069868,PLT_learning_01,B,2014_Feb_26_1818,P07,
stim_fb/ques.jpg,stim_fb/negf.jpg,stim_fb/posf.jpg,stim_01/e.jpg,stim_01/f.jpg,2,3,j,1,54,114,52,j,1,0.799785761008,01,03,60.0189069868,PLT_learning_01,B,2014_Feb_26_1818,P07,
stim_fb/ques.jpg,stim_fb/negf.jpg,stim_fb/posf.jpg,stim_01/b.jpg,stim_01/a.jpg,1,1,f,1,55,115,6,f,1,0.833107351073,01,03,60.0189069868,PLT_learning_01,B,2014_Feb_26_1818,P07,
stim_fb/ques.jpg,stim_fb/negf.jpg,stim_fb/posf.jpg,stim_01/b.jpg,stim_01/a.jpg,1,1,f,1,56,116,1,j,0,1.01625493944,01,03,60.0189069868,PLT_learning_01,B,2014_Feb_26_1818,P07,
stim_fb/ques.jpg,stim_fb/posf.jpg,stim_fb/negf.jpg,stim_01/e.jpg,stim_01/f.jpg,2,3,j,1,57,117,56,j,1,1.09966947316,01,03,60.0189069868,PLT_learning_01,B,2014_Feb_26_1818,P07,
stim_fb/ques.jpg,stim_fb/negf.jpg,stim_fb/posf.jpg,stim_01/c.jpg,stim_01/d.jpg,2,2,j,1,58,118,30,f,0,0.749799812031,01,03,60.0189069868,PLT_learning_01,B,2014_Feb_26_1818,P07,
stim_fb/ques.jpg,stim_fb/negf.jpg,stim_fb/posf.jpg,stim_01/c.jpg,stim_01/d.jpg,2,2,j,1,59,119,36,j,1,0.698829016323,01,03,60.0189069868,PLT_learning_01,B,2014_Feb_26_1818,P07,
stim_fb/ques.jpg,stim_fb/posf.jpg,stim_fb/negf.jpg,stim_01/f.jpg,stim_01/e.jpg,1,3,f,2,0,120,49,f,1,0.94971880813,01,03,60.0189069868,PLT_learning_01,B,2014_Feb_26_1818,P07,
stim_fb/ques.jpg,stim_fb/negf.jpg,stim_fb/posf.jpg,stim_01/d.jpg,stim_01/c.jpg,1,2,f,2,1,121,24,f,1,1.33294426959,01,03,60.0189069868,PLT_learning_01,B,2014_Feb_26_1818,P07,
stim_fb/ques.jpg,stim_fb/posf.jpg,stim_fb/negf.jpg,stim_01/a.jpg,stim_01/b.jpg,2,1,j,2,2,122,18,j,1,1.31627397689,01,03,60.0189069868,PLT_learning_01,B,2014_Feb_26_1818,P07,
stim_fb/ques.jpg,stim_fb/negf.jpg,stim_fb/posf.jpg,stim_01/e.jpg,stim_01/f.jpg,2,3,j,2,3,123,55,f,0,1.14966471831,01,03,60.0189069868,PLT_learning_01,B,2014_Feb_26_1818,P07,
stim_fb/ques.jpg,stim_fb/negf.jpg,stim_fb/posf.jpg,stim_01/a.jpg,stim_01/b.jpg,2,1,j,2,4,124,11,j,1,0.949734380943,01,03,60.0189069868,PLT_learning_01,B,2014_Feb_26_1818,P07,
stim_fb/ques.jpg,stim_fb/negf.jpg,stim_fb/posf.jpg,stim_01/a.jpg,stim_01/b.jpg,2,1,j,2,5,125,12,f,0,0.816450411652,01,03,60.0189069868,PLT_learning_01,B,2014_Feb_26_1818,P07,
stim_fb/ques.jpg,stim_fb/negf.jpg,stim_fb/posf.jpg,stim_01/f.jpg,stim_01/e.jpg,1,3,f,2,6,126,42,f,1,0.633123717867,01,03,60.0189069868,PLT_learning_01,B,2014_Feb_26_1818,P07,
stim_fb/ques.jpg,stim_fb/posf.jpg,stim_fb/negf.jpg,stim_01/e.jpg,stim_01/f.jpg,2,3,j,2,7,127,58,j,1,1.06637813249,01,03,60.0189069868,PLT_learning_01,B,2014_Feb_26_1818,P07,
stim_fb/ques.jpg,stim_fb/posf.jpg,stim_fb/negf.jpg,stim_01/c.jpg,stim_01/d.jpg,2,2,j,2,8,128,37,j,1,0.766467058143,01,03,60.0189069868,PLT_learning_01,B,2014_Feb_26_1818,P07,
stim_fb/ques.jpg,stim_fb/posf.jpg,stim_fb/negf.jpg,stim_01/a.jpg,stim_01/b.jpg,2,1,j,2,9,129,19,j,1,0.733129092261,01,03,60.0189069868,PLT_learning_01,B,2014_Feb_26_1818,P07,
stim_fb/ques.jpg,stim_fb/posf.jpg,stim_fb/negf.jpg,stim_01/d.jpg,stim_01/c.jpg,1,2,f,2,10,130,28,j,0,1.11652785167,01,03,60.0189069868,PLT_learning_01,B,2014_Feb_26_1818,P07,
stim_fb/ques.jpg,stim_fb/negf.jpg,stim_fb/posf.jpg,stim_01/d.jpg,stim_01/c.jpg,1,2,f,2,11,131,21,f,1,1.03304666882,01,03,60.0189069868,PLT_learning_01,B,2014_Feb_26_1818,P07,
stim_fb/ques.jpg,stim_fb/negf.jpg,stim_fb/posf.jpg,stim_01/c.jpg,stim_01/d.jpg,2,2,j,2,12,132,31,f,0,1.16634943497,01,03,60.0189069868,PLT_learning_01,B,2014_Feb_26_1818,P07,
stim_fb/ques.jpg,stim_fb/negf.jpg,stim_fb/posf.jpg,stim_01/f.jpg,stim_01/e.jpg,1,3,f,2,13,133,43,j,0,1.09968800836,01,03,60.0189069868,PLT_learning_01,B,2014_Feb_26_1818,P07,
stim_fb/ques.jpg,stim_fb/negf.jpg,stim_fb/posf.jpg,stim_01/c.jpg,stim_01/d.jpg,2,2,j,2,14,134,30,f,0,1.34961725701,01,03,60.0189069868,PLT_learning_01,B,2014_Feb_26_1818,P07,
stim_fb/ques.jpg,stim_fb/negf.jpg,stim_fb/posf.jpg,stim_01/f.jpg,stim_01/e.jpg,1,3,f,2,15,135,41,f,1,0.583208595423,01,03,60.0189069868,PLT_learning_01,B,2014_Feb_26_1818,P07,
stim_fb/ques.jpg,stim_fb/posf.jpg,stim_fb/negf.jpg,stim_01/e.jpg,stim_01/f.jpg,2,3,j,2,16,136,59,j,1,0.849759433388,01,03,60.0189069868,PLT_learning_01,B,2014_Feb_26_1818,P07,
stim_fb/ques.jpg,stim_fb/negf.jpg,stim_fb/posf.jpg,stim_01/e.jpg,stim_01/f.jpg,2,3,j,2,17,137,53,f,0,0.983073862602,01,03,60.0189069868,PLT_learning_01,B,2014_Feb_26_1818,P07,
stim_fb/ques.jpg,stim_fb/negf.jpg,stim_fb/posf.jpg,stim_01/e.jpg,stim_01/f.jpg,2,3,j,2,18,138,51,j,1,0.799812639003,01,03,60.0189069868,PLT_learning_01,B,2014_Feb_26_1818,P07,
stim_fb/ques.jpg,stim_fb/posf.jpg,stim_fb/negf.jpg,stim_01/e.jpg,stim_01/f.jpg,2,3,j,2,19,139,57,j,1,1.01639362712,01,03,60.0189069868,PLT_learning_01,B,2014_Feb_26_1818,P07,
stim_fb/ques.jpg,stim_fb/negf.jpg,stim_fb/posf.jpg,stim_01/a.jpg,stim_01/b.jpg,2,1,j,2,20,140,13,f,0,0.633084322673,01,03,60.0189069868,PLT_learning_01,B,2014_Feb_26_1818,P07,
stim_fb/ques.jpg,stim_fb/posf.jpg,stim_fb/negf.jpg,stim_01/b.jpg,stim_01/a.jpg,1,1,f,2,21,141,9,f,1,0.933056746941,01,03,60.0189069868,PLT_learning_01,B,2014_Feb_26_1818,P07,
stim_fb/ques.jpg,stim_fb/negf.jpg,stim_fb/posf.jpg,stim_01/a.jpg,stim_01/b.jpg,2,1,j,2,22,142,14,f,0,1.03305626875,01,03,60.0189069868,PLT_learning_01,B,2014_Feb_26_1818,P07,
stim_fb/ques.jpg,stim_fb/negf.jpg,stim_fb/posf.jpg,stim_01/b.jpg,stim_01/a.jpg,1,1,f,2,23,143,2,j,0,1.03305069586,01,03,60.0189069868,PLT_learning_01,B,2014_Feb_26_1818,P07,
stim_fb/ques.jpg,stim_fb/negf.jpg,stim_fb/posf.jpg,stim_01/a.jpg,stim_01/b.jpg,2,1,j,2,24,144,15,j,1,0.783165858904,01,03,60.0189069868,PLT_learning_01,B,2014_Feb_26_1818,P07,
stim_fb/ques.jpg,stim_fb/negf.jpg,stim_fb/posf.jpg,stim_01/b.jpg,stim_01/a.jpg,1,1,f,2,25,145,3,f,1,0.899764723574,01,03,60.0189069868,PLT_learning_01,B,2014_Feb_26_1818,P07,
stim_fb/ques.jpg,stim_fb/negf.jpg,stim_fb/posf.jpg,stim_01/d.jpg,stim_01/c.jpg,1,2,f,2,26,146,26,f,1,1.29961730213,01,03,60.0189069868,PLT_learning_01,B,2014_Feb_26_1818,P07,
stim_fb/ques.jpg,stim_fb/posf.jpg,stim_fb/negf.jpg,stim_01/d.jpg,stim_01/c.jpg,1,2,f,2,27,147,29,j,0,1.23296857618,01,03,60.0189069868,PLT_learning_01,B,2014_Feb_26_1818,P07,
stim_fb/ques.jpg,stim_fb/negf.jpg,stim_fb/posf.jpg,stim_01/f.jpg,stim_01/e.jpg,1,3,f,2,28,148,45,f,1,0.783121005104,01,03,60.0189069868,PLT_learning_01,B,2014_Feb_26_1818,P07,
stim_fb/ques.jpg,stim_fb/negf.jpg,stim_fb/posf.jpg,stim_01/a.jpg,stim_01/b.jpg,2,1,j,2,29,149,10,f,0,1.29957425283,01,03,60.0189069868,PLT_learning_01,B,2014_Feb_26_1818,P07,
stim_fb/ques.jpg,stim_fb/negf.jpg,stim_fb/posf.jpg,stim_01/a.jpg,stim_01/b.jpg,2,1,j,2,30,150,17,j,1,0.816462685243,01,03,60.0189069868,PLT_learning_01,B,2014_Feb_26_1818,P07,
stim_fb/ques.jpg,stim_fb/posf.jpg,stim_fb/negf.jpg,stim_01/f.jpg,stim_01/e.jpg,1,3,f,2,31,151,46,f,1,0.89975468756,01,03,60.0189069868,PLT_learning_01,B,2014_Feb_26_1818,P07,
stim_fb/ques.jpg,stim_fb/posf.jpg,stim_fb/negf.jpg,stim_01/e.jpg,stim_01/f.jpg,2,3,j,2,32,152,56,j,1,1.14963787039,01,03,60.0189069868,PLT_learning_01,B,2014_Feb_26_1818,P07,
stim_fb/ques.jpg,stim_fb/posf.jpg,stim_fb/negf.jpg,stim_01/c.jpg,stim_01/d.jpg,2,2,j,2,33,153,39,f,0,1.59949905038,01,03,60.0189069868,PLT_learning_01,B,2014_Feb_26_1818,P07,
stim_fb/ques.jpg,stim_fb/negf.jpg,stim_fb/posf.jpg,stim_01/c.jpg,stim_01/d.jpg,2,2,j,2,34,154,34,j,1,1.59953156442,01,03,60.0189069868,PLT_learning_01,B,2014_Feb_26_1818,P07,
stim_fb/ques.jpg,stim_fb/posf.jpg,stim_fb/negf.jpg,stim_01/f.jpg,stim_01/e.jpg,1,3,f,2,35,155,47,f,1,1.23297695807,01,03,60.0189069868,PLT_learning_01,B,2014_Feb_26_1818,P07,
stim_fb/ques.jpg,stim_fb/posf.jpg,stim_fb/negf.jpg,stim_01/d.jpg,stim_01/c.jpg,1,2,f,2,36,156,27,j,0,1.5162428102,01,03,60.0189069868,PLT_learning_01,B,2014_Feb_26_1818,P07,
stim_fb/ques.jpg,stim_fb/negf.jpg,stim_fb/posf.jpg,stim_01/b.jpg,stim_01/a.jpg,1,1,f,2,37,157,0,f,1,1.13308193472,01,03,60.0189069868,PLT_learning_01,B,2014_Feb_26_1818,P07,
stim_fb/ques.jpg,stim_fb/negf.jpg,stim_fb/posf.jpg,stim_01/f.jpg,stim_01/e.jpg,1,3,f,2,38,158,40,f,1,0.966397446635,01,03,60.0189069868,PLT_learning_01,B,2014_Feb_26_1818,P07,
stim_fb/ques.jpg,stim_fb/posf.jpg,stim_fb/negf.jpg,stim_01/f.jpg,stim_01/e.jpg,1,3,f,2,39,159,48,j,0,1.06637246938,01,03,60.0189069868,PLT_learning_01,B,2014_Feb_26_1818,P07,
stim_fb/ques.jpg,stim_fb/negf.jpg,stim_fb/posf.jpg,stim_01/b.jpg,stim_01/a.jpg,1,1,f,2,40,160,6,f,1,0.783107305959,01,03,60.0189069868,PLT_learning_01,B,2014_Feb_26_1818,P07,
stim_fb/ques.jpg,stim_fb/negf.jpg,stim_fb/posf.jpg,stim_01/c.jpg,stim_01/d.jpg,2,2,j,2,41,161,33,j,1,0.966401184953,01,03,60.0189069868,PLT_learning_01,B,2014_Feb_26_1818,P07,
stim_fb/ques.jpg,stim_fb/negf.jpg,stim_fb/posf.jpg,stim_01/c.jpg,stim_01/d.jpg,2,2,j,2,42,162,32,j,1,0.716478125727,01,03,60.0189069868,PLT_learning_01,B,2014_Feb_26_1818,P07,
stim_fb/ques.jpg,stim_fb/negf.jpg,stim_fb/posf.jpg,stim_01/b.jpg,stim_01/a.jpg,1,1,f,2,43,163,4,f,1,0.549859396546,01,03,60.0189069868,PLT_learning_01,B,2014_Feb_26_1818,P07,
stim_fb/ques.jpg,stim_fb/negf.jpg,stim_fb/posf.jpg,stim_01/e.jpg,stim_01/f.jpg,2,3,j,2,44,164,50,j,1,0.566578341515,01,03,60.0189069868,PLT_learning_01,B,2014_Feb_26_1818,P07,
stim_fb/ques.jpg,stim_fb/negf.jpg,stim_fb/posf.jpg,stim_01/d.jpg,stim_01/c.jpg,1,2,f,2,45,165,23,f,1,0.416549568799,01,03,60.0189069868,PLT_learning_01,B,2014_Feb_26_1818,P07,
stim_fb/ques.jpg,stim_fb/negf.jpg,stim_fb/posf.jpg,stim_01/c.jpg,stim_01/d.jpg,2,2,j,2,46,166,35,j,1,0.516549650003,01,03,60.0189069868,PLT_learning_01,B,2014_Feb_26_1818,P07,
stim_fb/ques.jpg,stim_fb/negf.jpg,stim_fb/posf.jpg,stim_01/d.jpg,stim_01/c.jpg,1,2,f,2,47,167,20,f,1,0.449893125617,01,03,60.0189069868,PLT_learning_01,B,2014_Feb_26_1818,P07,
stim_fb/ques.jpg,stim_fb/negf.jpg,stim_fb/posf.jpg,stim_01/d.jpg,stim_01/c.jpg,1,2,f,2,48,168,25,j,0,0.266620882549,01,03,60.0189069868,PLT_learning_01,B,2014_Feb_26_1818,P07,
stim_fb/ques.jpg,stim_fb/negf.jpg,stim_fb/posf.jpg,stim_01/b.jpg,stim_01/a.jpg,1,1,f,2,49,169,5,f,1,0.399920881797,01,03,60.0189069868,PLT_learning_01,B,2014_Feb_26_1818,P07,
stim_fb/ques.jpg,stim_fb/negf.jpg,stim_fb/posf.jpg,stim_01/b.jpg,stim_01/a.jpg,1,1,f,2,50,170,1,f,1,0.31659946617,01,03,60.0189069868,PLT_learning_01,B,2014_Feb_26_1818,P07,
stim_fb/ques.jpg,stim_fb/negf.jpg,stim_fb/posf.jpg,stim_01/d.jpg,stim_01/c.jpg,1,2,f,2,51,171,22,j,0,0.56652689228,01,03,60.0189069868,PLT_learning_01,B,2014_Feb_26_1818,P07,
stim_fb/ques.jpg,stim_fb/posf.jpg,stim_fb/negf.jpg,stim_01/c.jpg,stim_01/d.jpg,2,2,j,2,52,172,38,f,0,0.533190207592,01,03,60.0189069868,PLT_learning_01,B,2014_Feb_26_1818,P07,
stim_fb/ques.jpg,stim_fb/negf.jpg,stim_fb/posf.jpg,stim_01/e.jpg,stim_01/f.jpg,2,3,j,2,53,173,52,f,0,0.216645980106,01,03,60.0189069868,PLT_learning_01,B,2014_Feb_26_1818,P07,
stim_fb/ques.jpg,stim_fb/negf.jpg,stim_fb/posf.jpg,stim_01/b.jpg,stim_01/a.jpg,1,1,f,2,54,174,7,f,1,0.699808103698,01,03,60.0189069868,PLT_learning_01,B,2014_Feb_26_1818,P07,
stim_fb/ques.jpg,stim_fb/negf.jpg,stim_fb/posf.jpg,stim_01/f.jpg,stim_01/e.jpg,1,3,f,2,55,175,44,j,0,0.766474585906,01,03,60.0189069868,PLT_learning_01,B,2014_Feb_26_1818,P07,
stim_fb/ques.jpg,stim_fb/negf.jpg,stim_fb/posf.jpg,stim_01/c.jpg,stim_01/d.jpg,2,2,j,2,56,176,36,j,1,0.749807183403,01,03,60.0189069868,PLT_learning_01,B,2014_Feb_26_1818,P07,
stim_fb/ques.jpg,stim_fb/negf.jpg,stim_fb/posf.jpg,stim_01/a.jpg,stim_01/b.jpg,2,1,j,2,57,177,16,j,1,1.08301374877,01,03,60.0189069868,PLT_learning_01,B,2014_Feb_26_1818,P07,
stim_fb/ques.jpg,stim_fb/negf.jpg,stim_fb/posf.jpg,stim_01/e.jpg,stim_01/f.jpg,2,3,j,2,58,178,54,f,0,0.799777986631,01,03,60.0189069868,PLT_learning_01,B,2014_Feb_26_1818,P07,
stim_fb/ques.jpg,stim_fb/posf.jpg,stim_fb/negf.jpg,stim_01/b.jpg,stim_01/a.jpg,1,1,f,2,59,179,8,j,0,1.06637956707,01,03,60.0189069868,PLT_learning_01,B,2014_Feb_26_1818,P07,
stim_fb/ques.jpg,stim_fb/negf.jpg,stim_fb/posf.jpg,stim_01/e.jpg,stim_01/f.jpg,2,3,j,3,0,180,55,j,1,0.783091886527,01,03,60.0189069868,PLT_learning_01,B,2014_Feb_26_1818,P07,
stim_fb/ques.jpg,stim_fb/posf.jpg,stim_fb/negf.jpg,stim_01/d.jpg,stim_01/c.jpg,1,2,f,3,1,181,27,j,0,0.933048897377,01,03,60.0189069868,PLT_learning_01,B,2014_Feb_26_1818,P07,
stim_fb/ques.jpg,stim_fb/negf.jpg,stim_fb/posf.jpg,stim_01/f.jpg,stim_01/e.jpg,1,3,f,3,2,182,44,f,1,0.766475415974,01,03,60.0189069868,PLT_learning_01,B,2014_Feb_26_1818,P07,
stim_fb/ques.jpg,stim_fb/posf.jpg,stim_fb/negf.jpg,stim_01/a.jpg,stim_01/b.jpg,2,1,j,3,3,183,19,j,1,1.14967209269,01,03,60.0189069868,PLT_learning_01,B,2014_Feb_26_1818,P07,
stim_fb/ques.jpg,stim_fb/negf.jpg,stim_fb/posf.jpg,stim_01/a.jpg,stim_01/b.jpg,2,1,j,3,4,184,15,f,0,1.03306262359,01,03,60.0189069868,PLT_learning_01,B,2014_Feb_26_1818,P07,
stim_fb/ques.jpg,stim_fb/negf.jpg,stim_fb/posf.jpg,stim_01/d.jpg,stim_01/c.jpg,1,2,f,3,5,185,23,j,0,1.24963453809,01,03,60.0189069868,PLT_learning_01,B,2014_Feb_26_1818,P07,
stim_fb/ques.jpg,stim_fb/negf.jpg,stim_fb/posf.jpg,stim_01/d.jpg,stim_01/c.jpg,1,2,f,3,6,186,24,j,0,1.31620562853,01,03,60.0189069868,PLT_learning_01,B,2014_Feb_26_1818,P07,
stim_fb/ques.jpg,stim_fb/negf.jpg,stim_fb/posf.jpg,stim_01/d.jpg,stim_01/c.jpg,1,2,f,3,7,187,21,j,0,1.16635760333,01,03,60.0189069868,PLT_learning_01,B,2014_Feb_26_1818,P07,
stim_fb/ques.jpg,stim_fb/negf.jpg,stim_fb/posf.jpg,stim_01/a.jpg,stim_01/b.jpg,2,1,j,3,8,188,12,f,0,1.13301146608,01,03,60.0189069868,PLT_learning_01,B,2014_Feb_26_1818,P07,
stim_fb/ques.jpg,stim_fb/negf.jpg,stim_fb/posf.jpg,stim_01/c.jpg,stim_01/d.jpg,2,2,j,3,9,189,34,j,1,1.24964388539,01,03,60.0189069868,PLT_learning_01,B,2014_Feb_26_1818,P07,
stim_fb/ques.jpg,stim_fb/negf.jpg,stim_fb/posf.jpg,stim_01/f.jpg,stim_01/e.jpg,1,3,f,3,10,190,40,f,1,0.816482973813,01,03,60.0189069868,PLT_learning_01,B,2014_Feb_26_1818,P07,
stim_fb/ques.jpg,stim_fb/negf.jpg,stim_fb/posf.jpg,stim_01/e.jpg,stim_01/f.jpg,2,3,j,3,11,191,51,j,1,0.833114148014,01,03,60.0189069868,PLT_learning_01,B,2014_Feb_26_1818,P07,
stim_fb/ques.jpg,stim_fb/negf.jpg,stim_fb/posf.jpg,stim_01/b.jpg,stim_01/a.jpg,1,1,f,3,12,192,7,j,0,1.08299839851,01,03,60.0189069868,PLT_learning_01,B,2014_Feb_26_1818,P07,
stim_fb/ques.jpg,stim_fb/negf.jpg,stim_fb/posf.jpg,stim_01/a.jpg,stim_01/b.jpg,2,1,j,3,13,193,10,j,1,0.999731920812,01,03,60.0189069868,PLT_learning_01,B,2014_Feb_26_1818,P07,
stim_fb/ques.jpg,stim_fb/negf.jpg,stim_fb/posf.jpg,stim_01/b.jpg,stim_01/a.jpg,1,1,f,3,14,194,5,f,1,1.18300936685,01,03,60.0189069868,PLT_learning_01,B,2014_Feb_26_1818,P07,
stim_fb/ques.jpg,stim_fb/posf.jpg,stim_fb/negf.jpg,stim_01/d.jpg,stim_01/c.jpg,1,2,f,3,15,195,28,f,1,1.03303589296,01,03,60.0189069868,PLT_learning_01,B,2014_Feb_26_1818,P07,
stim_fb/ques.jpg,stim_fb/negf.jpg,stim_fb/posf.jpg,stim_01/d.jpg,stim_01/c.jpg,1,2,f,3,16,196,26,j,0,0.549877967835,01,03,60.0189069868,PLT_learning_01,B,2014_Feb_26_1818,P07,
stim_fb/ques.jpg,stim_fb/posf.jpg,stim_fb/negf.jpg,stim_01/e.jpg,stim_01/f.jpg,2,3,j,3,17,197,57,j,1,0.5498658777,01,03,60.0189069868,PLT_learning_01,B,2014_Feb_26_1818,P07,
stim_fb/ques.jpg,stim_fb/negf.jpg,stim_fb/posf.jpg,stim_01/c.jpg,stim_01/d.jpg,2,2,j,3,18,198,36,f,0,0.68314842144,01,03,60.0189069868,PLT_learning_01,B,2014_Feb_26_1818,P07,
stim_fb/ques.jpg,stim_fb/negf.jpg,stim_fb/posf.jpg,stim_01/c.jpg,stim_01/d.jpg,2,2,j,3,19,199,33,j,1,0.733170231804,01,03,60.0189069868,PLT_learning_01,B,2014_Feb_26_1818,P07,
stim_fb/ques.jpg,stim_fb/negf.jpg,stim_fb/posf.jpg,stim_01/a.jpg,stim_01/b.jpg,2,1,j,3,20,200,13,j,1,0.716466910775,01,03,60.0189069868,PLT_learning_01,B,2014_Feb_26_1818,P07,
stim_fb/ques.jpg,stim_fb/posf.jpg,stim_fb/negf.jpg,stim_01/f.jpg,stim_01/e.jpg,1,3,f,3,21,201,49,f,1,0.683148063548,01,03,60.0189069868,PLT_learning_01,B,2014_Feb_26_1818,P07,
stim_fb/ques.jpg,stim_fb/negf.jpg,stim_fb/posf.jpg,stim_01/d.jpg,stim_01/c.jpg,1,2,f,3,22,202,20,f,1,0.96636833708,01,03,60.0189069868,PLT_learning_01,B,2014_Feb_26_1818,P07,
stim_fb/ques.jpg,stim_fb/negf.jpg,stim_fb/posf.jpg,stim_01/b.jpg,stim_01/a.jpg,1,1,f,3,23,203,2,j,0,0.949752819903,01,03,60.0189069868,PLT_learning_01,B,2014_Feb_26_1818,P07,
stim_fb/ques.jpg,stim_fb/posf.jpg,stim_fb/negf.jpg,stim_01/d.jpg,stim_01/c.jpg,1,2,f,3,24,204,29,f,1,0.749818266027,01,03,60.0189069868,PLT_learning_01,B,2014_Feb_26_1818,P07,
stim_fb/ques.jpg,stim_fb/negf.jpg,stim_fb/posf.jpg,stim_01/e.jpg,stim_01/f.jpg,2,3,j,3,25,205,54,j,1,0.69981457583,01,03,60.0189069868,PLT_learning_01,B,2014_Feb_26_1818,P07,
stim_fb/ques.jpg,stim_fb/negf.jpg,stim_fb/posf.jpg,stim_01/b.jpg,stim_01/a.jpg,1,1,f,3,26,206,3,f,1,0.7498292073,01,03,60.0189069868,PLT_learning_01,B,2014_Feb_26_1818,P07,
stim_fb/ques.jpg,stim_fb/posf.jpg,stim_fb/negf.jpg,stim_01/c.jpg,stim_01/d.jpg,2,2,j,3,27,207,37,f,0,0.849753683055,01,03,60.0189069868,PLT_learning_01,B,2014_Feb_26_1818,P07,
stim_fb/ques.jpg,stim_fb/negf.jpg,stim_fb/posf.jpg,stim_01/a.jpg,stim_01/b.jpg,2,1,j,3,28,208,14,j,1,0.416583147497,01,03,60.0189069868,PLT_learning_01,B,2014_Feb_26_1818,P07,
stim_fb/ques.jpg,stim_fb/negf.jpg,stim_fb/posf.jpg,stim_01/e.jpg,stim_01/f.jpg,2,3,j,3,29,209,50,j,1,0.499882743739,01,03,60.0189069868,PLT_learning_01,B,2014_Feb_26_1818,P07,
stim_fb/ques.jpg,stim_fb/negf.jpg,stim_fb/posf.jpg,stim_01/c.jpg,stim_01/d.jpg,2,2,j,3,30,210,32,f,0,0.44988682491,01,03,60.0189069868,PLT_learning_01,B,2014_Feb_26_1818,P07,
stim_fb/ques.jpg,stim_fb/posf.jpg,stim_fb/negf.jpg,stim_01/f.jpg,stim_01/e.jpg,1,3,f,3,31,211,46,j,0,0.583173690424,01,03,60.0189069868,PLT_learning_01,B,2014_Feb_26_1818,P07,
stim_fb/ques.jpg,stim_fb/negf.jpg,stim_fb/posf.jpg,stim_01/b.jpg,stim_01/a.jpg,1,1,f,3,32,212,4,f,1,0.699805015001,01,03,60.0189069868,PLT_learning_01,B,2014_Feb_26_1818,P07,
stim_fb/ques.jpg,stim_fb/negf.jpg,stim_fb/posf.jpg,stim_01/f.jpg,stim_01/e.jpg,1,3,f,3,33,213,41,f,1,0.333275879129,01,03,60.0189069868,PLT_learning_01,B,2014_Feb_26_1818,P07,
stim_fb/ques.jpg,stim_fb/negf.jpg,stim_fb/posf.jpg,stim_01/d.jpg,stim_01/c.jpg,1,2,f,3,34,214,25,f,1,0.0832911120979,01,03,60.0189069868,PLT_learning_01,B,2014_Feb_26_1818,P07,
stim_fb/ques.jpg,stim_fb/negf.jpg,stim_fb/posf.jpg,stim_01/c.jpg,stim_01/d.jpg,2,2,j,3,35,215,31,j,1,0.299930722325,01,03,60.0189069868,PLT_learning_01,B,2014_Feb_26_1818,P07,
stim_fb/ques.jpg,stim_fb/negf.jpg,stim_fb/posf.jpg,stim_01/e.jpg,stim_01/f.jpg,2,3,j,3,36,216,52,f,0,0.299957383779,01,03,60.0189069868,PLT_learning_01,B,2014_Feb_26_1818,P07,
stim_fb/ques.jpg,stim_fb/negf.jpg,stim_fb/posf.jpg,stim_01/b.jpg,stim_01/a.jpg,1,1,f,3,37,217,0,f,1,0.599890048947,01,03,60.0189069868,PLT_learning_01,B,2014_Feb_26_1818,P07,
stim_fb/ques.jpg,stim_fb/posf.jpg,stim_fb/negf.jpg,stim_01/f.jpg,stim_01/e.jpg,1,3,f,3,38,218,48,f,1,0.683154971768,01,03,60.0189069868,PLT_learning_01,B,2014_Feb_26_1818,P07,
stim_fb/ques.jpg,stim_fb/negf.jpg,stim_fb/posf.jpg,stim_01/f.jpg,stim_01/e.jpg,1,3,f,3,39,219,43,j,0,0.549872025023,01,03,60.0189069868,PLT_learning_01,B,2014_Feb_26_1818,P07,
stim_fb/ques.jpg,stim_fb/negf.jpg,stim_fb/posf.jpg,stim_01/e.jpg,stim_01/f.jpg,2,3,j,3,40,220,53,j,1,0.516555761234,01,03,60.0189069868,PLT_learning_01,B,2014_Feb_26_1818,P07,
stim_fb/ques.jpg,stim_fb/negf.jpg,stim_fb/posf.jpg,stim_01/c.jpg,stim_01/d.jpg,2,2,j,3,41,221,35,j,1,0.766463846137,01,03,60.0189069868,PLT_learning_01,B,2014_Feb_26_1818,P07,
stim_fb/ques.jpg,stim_fb/posf.jpg,stim_fb/negf.jpg,stim_01/b.jpg,stim_01/a.jpg,1,1,f,3,42,222,8,f,1,0.766465659657,01,03,60.0189069868,PLT_learning_01,B,2014_Feb_26_1818,P07,
stim_fb/ques.jpg,stim_fb/negf.jpg,stim_fb/posf.jpg,stim_01/b.jpg,stim_01/a.jpg,1,1,f,3,43,223,6,j,0,1.34961557282,01,03,60.0189069868,PLT_learning_01,B,2014_Feb_26_1818,P07,
stim_fb/ques.jpg,stim_fb/posf.jpg,stim_fb/negf.jpg,stim_01/c.jpg,stim_01/d.jpg,2,2,j,3,44,224,39,j,1,1.46626359501,01,03,60.0189069868,PLT_learning_01,B,2014_Feb_26_1818,P07,
stim_fb/ques.jpg,stim_fb/negf.jpg,stim_fb/posf.jpg,stim_01/b.jpg,stim_01/a.jpg,1,1,f,3,45,225,1,j,0,1.64950269848,01,03,60.0189069868,PLT_learning_01,B,2014_Feb_26_1818,P07,
stim_fb/ques.jpg,stim_fb/negf.jpg,stim_fb/posf.jpg,stim_01/a.jpg,stim_01/b.jpg,2,1,j,3,46,226,16,j,1,1.31629141435,01,03,60.0189069868,PLT_learning_01,B,2014_Feb_26_1818,P07,
stim_fb/ques.jpg,stim_fb/posf.jpg,stim_fb/negf.jpg,stim_01/b.jpg,stim_01/a.jpg,1,1,f,3,47,227,9,f,1,1.18299318351,01,03,60.0189069868,PLT_learning_01,B,2014_Feb_26_1818,P07,
stim_fb/ques.jpg,stim_fb/posf.jpg,stim_fb/negf.jpg,stim_01/f.jpg,stim_01/e.jpg,1,3,f,3,48,228,47,j,0,0.366604912744,01,03,60.0189069868,PLT_learning_01,B,2014_Feb_26_1818,P07,
stim_fb/ques.jpg,stim_fb/negf.jpg,stim_fb/posf.jpg,stim_01/f.jpg,stim_01/e.jpg,1,3,f,3,49,229,42,f,1,0.333316435215,01,03,60.0189069868,PLT_learning_01,B,2014_Feb_26_1818,P07,
stim_fb/ques.jpg,stim_fb/posf.jpg,stim_fb/negf.jpg,stim_01/c.jpg,stim_01/d.jpg,2,2,j,3,50,230,38,j,1,0.566573962602,01,03,60.0189069868,PLT_learning_01,B,2014_Feb_26_1818,P07,
stim_fb/ques.jpg,stim_fb/posf.jpg,stim_fb/negf.jpg,stim_01/e.jpg,stim_01/f.jpg,2,3,j,3,51,231,59,f,0,0.433326266721,01,03,60.0189069868,PLT_learning_01,B,2014_Feb_26_1818,P07,
stim_fb/ques.jpg,stim_fb/negf.jpg,stim_fb/posf.jpg,stim_01/a.jpg,stim_01/b.jpg,2,1,j,3,52,232,11,j,1,0.633148433471,01,03,60.0189069868,PLT_learning_01,B,2014_Feb_26_1818,P07,
stim_fb/ques.jpg,stim_fb/negf.jpg,stim_fb/posf.jpg,stim_01/d.jpg,stim_01/c.jpg,1,2,f,3,53,233,22,j,0,0.699817899113,01,03,60.0189069868,PLT_learning_01,B,2014_Feb_26_1818,P07,
stim_fb/ques.jpg,stim_fb/negf.jpg,stim_fb/posf.jpg,stim_01/c.jpg,stim_01/d.jpg,2,2,j,3,54,234,30,j,1,0.816400887212,01,03,60.0189069868,PLT_learning_01,B,2014_Feb_26_1818,P07,
stim_fb/ques.jpg,stim_fb/negf.jpg,stim_fb/posf.jpg,stim_01/a.jpg,stim_01/b.jpg,2,1,j,3,55,235,17,j,1,0.683143877115,01,03,60.0189069868,PLT_learning_01,B,2014_Feb_26_1818,P07,
stim_fb/ques.jpg,stim_fb/posf.jpg,stim_fb/negf.jpg,stim_01/e.jpg,stim_01/f.jpg,2,3,j,3,56,236,58,j,1,0.783131414049,01,03,60.0189069868,PLT_learning_01,B,2014_Feb_26_1818,P07,
stim_fb/ques.jpg,stim_fb/negf.jpg,stim_fb/posf.jpg,stim_01/f.jpg,stim_01/e.jpg,1,3,f,3,57,237,45,f,1,0.816486113639,01,03,60.0189069868,PLT_learning_01,B,2014_Feb_26_1818,P07,
stim_fb/ques.jpg,stim_fb/posf.jpg,stim_fb/negf.jpg,stim_01/a.jpg,stim_01/b.jpg,2,1,j,3,58,238,18,j,1,0.816459082263,01,03,60.0189069868,PLT_learning_01,B,2014_Feb_26_1818,P07,
stim_fb/ques.jpg,stim_fb/posf.jpg,stim_fb/negf.jpg,stim_01/e.jpg,stim_01/f.jpg,2,3,j,3,59,239,56,f,0,0.633166562657,01,03,60.0189069868,PLT_learning_01,B,2014_Feb_26_1818,P07,
stim_fb/ques.jpg,stim_fb/negf.jpg,stim_fb/posf.jpg,stim_01/b.jpg,stim_01/a.jpg,1,1,f,4,0,240,4,f,1,1.04975777626,01,03,60.0189069868,PLT_learning_01,B,2014_Feb_26_1818,P07,
stim_fb/ques.jpg,stim_fb/negf.jpg,stim_fb/posf.jpg,stim_01/b.jpg,stim_01/a.jpg,1,1,f,4,1,241,5,j,0,1.13297792648,01,03,60.0189069868,PLT_learning_01,B,2014_Feb_26_1818,P07,
stim_fb/ques.jpg,stim_fb/negf.jpg,stim_fb/posf.jpg,stim_01/c.jpg,stim_01/d.jpg,2,2,j,4,2,242,34,j,1,0.999697376712,01,03,60.0189069868,PLT_learning_01,B,2014_Feb_26_1818,P07,
stim_fb/ques.jpg,stim_fb/negf.jpg,stim_fb/posf.jpg,stim_01/e.jpg,stim_01/f.jpg,2,3,j,4,3,243,52,f,0,0.166663149901,01,03,60.0189069868,PLT_learning_01,B,2014_Feb_26_1818,P07,
stim_fb/ques.jpg,stim_fb/posf.jpg,stim_fb/negf.jpg,stim_01/d.jpg,stim_01/c.jpg,1,2,f,4,4,244,29,f,1,0.816446574087,01,03,60.0189069868,PLT_learning_01,B,2014_Feb_26_1818,P07,
stim_fb/ques.jpg,stim_fb/posf.jpg,stim_fb/negf.jpg,stim_01/c.jpg,stim_01/d.jpg,2,2,j,4,5,245,38,j,1,0.899702197728,01,03,60.0189069868,PLT_learning_01,B,2014_Feb_26_1818,P07,
stim_fb/ques.jpg,stim_fb/negf.jpg,stim_fb/posf.jpg,stim_01/a.jpg,stim_01/b.jpg,2,1,j,4,6,246,16,f,0,1.01636614461,01,03,60.0189069868,PLT_learning_01,B,2014_Feb_26_1818,P07,
stim_fb/ques.jpg,stim_fb/negf.jpg,stim_fb/posf.jpg,stim_01/d.jpg,stim_01/c.jpg,1,2,f,4,7,247,20,f,1,0.749795096277,01,03,60.0189069868,PLT_learning_01,B,2014_Feb_26_1818,P07,
stim_fb/ques.jpg,stim_fb/negf.jpg,stim_fb/posf.jpg,stim_01/f.jpg,stim_01/e.jpg,1,3,f,4,8,248,45,f,1,1.01643052609,01,03,60.0189069868,PLT_learning_01,B,2014_Feb_26_1818,P07,
stim_fb/ques.jpg,stim_fb/negf.jpg,stim_fb/posf.jpg,stim_01/c.jpg,stim_01/d.jpg,2,2,j,4,9,249,30,j,1,0.583202935317,01,03,60.0189069868,PLT_learning_01,B,2014_Feb_26_1818,P07,
stim_fb/ques.jpg,stim_fb/negf.jpg,stim_fb/posf.jpg,stim_01/e.jpg,stim_01/f.jpg,2,3,j,4,10,250,51,f,0,0.499865549882,01,03,60.0189069868,PLT_learning_01,B,2014_Feb_26_1818,P07,
stim_fb/ques.jpg,stim_fb/negf.jpg,stim_fb/posf.jpg,stim_01/b.jpg,stim_01/a.jpg,1,1,f,4,11,251,1,j,0,0.466583355012,01,03,60.0189069868,PLT_learning_01,B,2014_Feb_26_1818,P07,
stim_fb/ques.jpg,stim_fb/negf.jpg,stim_fb/posf.jpg,stim_01/d.jpg,stim_01/c.jpg,1,2,f,4,12,252,25,f,1,0.483223187795,01,03,60.0189069868,PLT_learning_01,B,2014_Feb_26_1818,P07,
stim_fb/ques.jpg,stim_fb/negf.jpg,stim_fb/posf.jpg,stim_01/a.jpg,stim_01/b.jpg,2,1,j,4,13,253,11,f,0,0.966406709724,01,03,60.0189069868,PLT_learning_01,B,2014_Feb_26_1818,P07,
stim_fb/ques.jpg,stim_fb/negf.jpg,stim_fb/posf.jpg,stim_01/a.jpg,stim_01/b.jpg,2,1,j,4,14,254,15,f,0,0.983075910706,01,03,60.0189069868,PLT_learning_01,B,2014_Feb_26_1818,P07,
stim_fb/ques.jpg,stim_fb/negf.jpg,stim_fb/posf.jpg,stim_01/a.jpg,stim_01/b.jpg,2,1,j,4,15,255,17,f,0,0.816447449268,01,03,60.0189069868,PLT_learning_01,B,2014_Feb_26_1818,P07,
stim_fb/ques.jpg,stim_fb/negf.jpg,stim_fb/posf.jpg,stim_01/e.jpg,stim_01/f.jpg,2,3,j,4,16,256,50,j,1,0.699790488792,01,03,60.0189069868,PLT_learning_01,B,2014_Feb_26_1818,P07,
stim_fb/ques.jpg,stim_fb/posf.jpg,stim_fb/negf.jpg,stim_01/d.jpg,stim_01/c.jpg,1,2,f,4,17,257,27,j,0,1.21634581093,01,03,60.0189069868,PLT_learning_01,B,2014_Feb_26_1818,P07,
stim_fb/ques.jpg,stim_fb/negf.jpg,stim_fb/posf.jpg,stim_01/a.jpg,stim_01/b.jpg,2,1,j,4,18,258,10,j,1,1.48289220682,01,03,60.0189069868,PLT_learning_01,B,2014_Feb_26_1818,P07,
stim_fb/ques.jpg,stim_fb/posf.jpg,stim_fb/negf.jpg,stim_01/a.jpg,stim_01/b.jpg,2,1,j,4,19,259,18,j,1,0.766501587206,01,03,60.0189069868,PLT_learning_01,B,2014_Feb_26_1818,P07,
stim_fb/ques.jpg,stim_fb/negf.jpg,stim_fb/posf.jpg,stim_01/d.jpg,stim_01/c.jpg,1,2,f,4,20,260,26,f,1,1.44961365704,01,03,60.0189069868,PLT_learning_01,B,2014_Feb_26_1818,P07,
stim_fb/ques.jpg,stim_fb/negf.jpg,stim_fb/posf.jpg,stim_01/f.jpg,stim_01/e.jpg,1,3,f,4,21,261,41,f,1,1.09969677521,01,03,60.0189069868,PLT_learning_01,B,2014_Feb_26_1818,P07,
stim_fb/ques.jpg,stim_fb/negf.jpg,stim_fb/posf.jpg,stim_01/f.jpg,stim_01/e.jpg,1,3,f,4,22,262,44,j,0,1.36627837685,01,03,60.0189069868,PLT_learning_01,B,2014_Feb_26_1818,P07,
stim_fb/ques.jpg,stim_fb/negf.jpg,stim_fb/posf.jpg,stim_01/c.jpg,stim_01/d.jpg,2,2,j,4,23,263,36,f,0,1.24964466733,01,03,60.0189069868,PLT_learning_01,B,2014_Feb_26_1818,P07,
stim_fb/ques.jpg,stim_fb/posf.jpg,stim_fb/negf.jpg,stim_01/a.jpg,stim_01/b.jpg,2,1,j,4,24,264,19,j,1,1.19966390929,01,03,60.0189069868,PLT_learning_01,B,2014_Feb_26_1818,P07,
stim_fb/ques.jpg,stim_fb/posf.jpg,stim_fb/negf.jpg,stim_01/f.jpg,stim_01/e.jpg,1,3,f,4,25,265,48,f,1,0.866426327622,01,03,60.0189069868,PLT_learning_01,B,2014_Feb_26_1818,P07,
stim_fb/ques.jpg,stim_fb/negf.jpg,stim_fb/posf.jpg,stim_01/b.jpg,stim_01/a.jpg,1,1,f,4,26,266,6,f,1,0.949735944843,01,03,60.0189069868,PLT_learning_01,B,2014_Feb_26_1818,P07,
stim_fb/ques.jpg,stim_fb/posf.jpg,stim_fb/negf.jpg,stim_01/f.jpg,stim_01/e.jpg,1,3,f,4,27,267,49,j,0,1.21630168495,01,03,60.0189069868,PLT_learning_01,B,2014_Feb_26_1818,P07,
stim_fb/ques.jpg,stim_fb/posf.jpg,stim_fb/negf.jpg,stim_01/e.jpg,stim_01/f.jpg,2,3,j,4,28,268,57,j,1,1.41627107466,01,03,60.0189069868,PLT_learning_01,B,2014_Feb_26_1818,P07,
stim_fb/ques.jpg,stim_fb/posf.jpg,stim_fb/negf.jpg,stim_01/e.jpg,stim_01/f.jpg,2,3,j,4,29,269,56,j,1,1.1829576319,01,03,60.0189069868,PLT_learning_01,B,2014_Feb_26_1818,P07,
stim_fb/ques.jpg,stim_fb/negf.jpg,stim_fb/posf.jpg,stim_01/b.jpg,stim_01/a.jpg,1,1,f,4,30,270,2,j,0,1.51625287329,01,03,60.0189069868,PLT_learning_01,B,2014_Feb_26_1818,P07,
stim_fb/ques.jpg,stim_fb/posf.jpg,stim_fb/negf.jpg,stim_01/d.jpg,stim_01/c.jpg,1,2,f,4,31,271,28,f,1,1.16631995248,01,03,60.0189069868,PLT_learning_01,B,2014_Feb_26_1818,P07,
stim_fb/ques.jpg,stim_fb/negf.jpg,stim_fb/posf.jpg,stim_01/a.jpg,stim_01/b.jpg,2,1,j,4,32,272,12,j,1,1.53288136781,01,03,60.0189069868,PLT_learning_01,B,2014_Feb_26_1818,P07,
stim_fb/ques.jpg,stim_fb/negf.jpg,stim_fb/posf.jpg,stim_01/e.jpg,stim_01/f.jpg,2,3,j,4,33,273,53,j,1,1.38295002293,01,03,60.0189069868,PLT_learning_01,B,2014_Feb_26_1818,P07,
stim_fb/ques.jpg,stim_fb/negf.jpg,stim_fb/posf.jpg,stim_01/c.jpg,stim_01/d.jpg,2,2,j,4,34,274,32,f,0,1.08301118037,01,03,60.0189069868,PLT_learning_01,B,2014_Feb_26_1818,P07,
stim_fb/ques.jpg,stim_fb/negf.jpg,stim_fb/posf.jpg,stim_01/b.jpg,stim_01/a.jpg,1,1,f,4,35,275,3,j,0,1.64949363087,01,03,60.0189069868,PLT_learning_01,B,2014_Feb_26_1818,P07,
stim_fb/ques.jpg,stim_fb/negf.jpg,stim_fb/posf.jpg,stim_01/d.jpg,stim_01/c.jpg,1,2,f,4,36,276,24,f,1,1.59949994662,01,03,60.0189069868,PLT_learning_01,B,2014_Feb_26_1818,P07,
stim_fb/ques.jpg,stim_fb/posf.jpg,stim_fb/negf.jpg,stim_01/f.jpg,stim_01/e.jpg,1,3,f,4,37,277,47,f,1,1.03305485222,01,03,60.0189069868,PLT_learning_01,B,2014_Feb_26_1818,P07,
stim_fb/ques.jpg,stim_fb/negf.jpg,stim_fb/posf.jpg,stim_01/e.jpg,stim_01/f.jpg,2,3,j,4,38,278,55,j,1,0.849739301208,01,03,60.0189069868,PLT_learning_01,B,2014_Feb_26_1818,P07,
stim_fb/ques.jpg,stim_fb/negf.jpg,stim_fb/posf.jpg,stim_01/c.jpg,stim_01/d.jpg,2,2,j,4,39,279,31,j,1,0.999728988503,01,03,60.0189069868,PLT_learning_01,B,2014_Feb_26_1818,P07,
stim_fb/ques.jpg,stim_fb/negf.jpg,stim_fb/posf.jpg,stim_01/e.jpg,stim_01/f.jpg,2,3,j,4,40,280,54,j,1,0.983070028045,01,03,60.0189069868,PLT_learning_01,B,2014_Feb_26_1818,P07,
stim_fb/ques.jpg,stim_fb/negf.jpg,stim_fb/posf.jpg,stim_01/a.jpg,stim_01/b.jpg,2,1,j,4,41,281,13,j,1,0.58320113984,01,03,60.0189069868,PLT_learning_01,B,2014_Feb_26_1818,P07,
stim_fb/ques.jpg,stim_fb/negf.jpg,stim_fb/posf.jpg,stim_01/f.jpg,stim_01/e.jpg,1,3,f,4,42,282,40,j,0,1.23295850106,01,03,60.0189069868,PLT_learning_01,B,2014_Feb_26_1818,P07,
stim_fb/ques.jpg,stim_fb/negf.jpg,stim_fb/posf.jpg,stim_01/a.jpg,stim_01/b.jpg,2,1,j,4,43,283,14,j,1,0.999666985963,01,03,60.0189069868,PLT_learning_01,B,2014_Feb_26_1818,P07,
stim_fb/ques.jpg,stim_fb/negf.jpg,stim_fb/posf.jpg,stim_01/d.jpg,stim_01/c.jpg,1,2,f,4,44,284,23,j,0,1.1996521981,01,03,60.0189069868,PLT_learning_01,B,2014_Feb_26_1818,P07,
stim_fb/ques.jpg,stim_fb/posf.jpg,stim_fb/negf.jpg,stim_01/e.jpg,stim_01/f.jpg,2,3,j,4,45,285,58,f,0,0.683099290982,01,03,60.0189069868,PLT_learning_01,B,2014_Feb_26_1818,P07,
stim_fb/ques.jpg,stim_fb/negf.jpg,stim_fb/posf.jpg,stim_01/f.jpg,stim_01/e.jpg,1,3,f,4,46,286,43,j,0,0.73310705634,01,03,60.0189069868,PLT_learning_01,B,2014_Feb_26_1818,P07,
stim_fb/ques.jpg,stim_fb/posf.jpg,stim_fb/negf.jpg,stim_01/e.jpg,stim_01/f.jpg,2,3,j,4,47,287,59,j,1,0.899731147887,01,03,60.0189069868,PLT_learning_01,B,2014_Feb_26_1818,P07,
stim_fb/ques.jpg,stim_fb/posf.jpg,stim_fb/negf.jpg,stim_01/c.jpg,stim_01/d.jpg,2,2,j,4,48,288,39,f,0,0.949745905669,01,03,60.0189069868,PLT_learning_01,B,2014_Feb_26_1818,P07,
stim_fb/ques.jpg,stim_fb/negf.jpg,stim_fb/posf.jpg,stim_01/d.jpg,stim_01/c.jpg,1,2,f,4,49,289,21,j,0,0.683142923739,01,03,60.0189069868,PLT_learning_01,B,2014_Feb_26_1818,P07,
stim_fb/ques.jpg,stim_fb/posf.jpg,stim_fb/negf.jpg,stim_01/b.jpg,stim_01/a.jpg,1,1,f,4,50,290,9,j,0,0.866452688326,01,03,60.0189069868,PLT_learning_01,B,2014_Feb_26_1818,P07,
stim_fb/ques.jpg,stim_fb/negf.jpg,stim_fb/posf.jpg,stim_01/b.jpg,stim_01/a.jpg,1,1,f,4,51,291,7,f,1,0.833030557666,01,03,60.0189069868,PLT_learning_01,B,2014_Feb_26_1818,P07,
stim_fb/ques.jpg,stim_fb/posf.jpg,stim_fb/negf.jpg,stim_01/f.jpg,stim_01/e.jpg,1,3,f,4,52,292,46,f,1,0.799773586665,01,03,60.0189069868,PLT_learning_01,B,2014_Feb_26_1818,P07,
stim_fb/ques.jpg,stim_fb/negf.jpg,stim_fb/posf.jpg,stim_01/c.jpg,stim_01/d.jpg,2,2,j,4,53,293,35,j,1,0.783147501146,01,03,60.0189069868,PLT_learning_01,B,2014_Feb_26_1818,P07,
stim_fb/ques.jpg,stim_fb/posf.jpg,stim_fb/negf.jpg,stim_01/c.jpg,stim_01/d.jpg,2,2,j,4,54,294,37,j,1,0.983135495222,01,03,60.0189069868,PLT_learning_01,B,2014_Feb_26_1818,P07,
stim_fb/ques.jpg,stim_fb/negf.jpg,stim_fb/posf.jpg,stim_01/d.jpg,stim_01/c.jpg,1,2,f,4,55,295,22,f,1,0.616546437997,01,03,60.0189069868,PLT_learning_01,B,2014_Feb_26_1818,P07,
stim_fb/ques.jpg,stim_fb/posf.jpg,stim_fb/negf.jpg,stim_01/b.jpg,stim_01/a.jpg,1,1,f,4,56,296,8,f,1,0.699812590883,01,03,60.0189069868,PLT_learning_01,B,2014_Feb_26_1818,P07,
stim_fb/ques.jpg,stim_fb/negf.jpg,stim_fb/posf.jpg,stim_01/b.jpg,stim_01/a.jpg,1,1,f,4,57,297,0,j,0,0.783116818671,01,03,60.0189069868,PLT_learning_01,B,2014_Feb_26_1818,P07,
stim_fb/ques.jpg,stim_fb/negf.jpg,stim_fb/posf.jpg,stim_01/f.jpg,stim_01/e.jpg,1,3,f,4,58,298,42,f,1,0.566540940294,01,03,60.0189069868,PLT_learning_01,B,2014_Feb_26_1818,P07,
stim_fb/ques.jpg,stim_fb/negf.jpg,stim_fb/posf.jpg,stim_01/c.jpg,stim_01/d.jpg,2,2,j,4,59,299,33,j,1,0.91644313351,01,03,60.0189069868,PLT_learning_01,B,2014_Feb_26_1818,P07,
stim_fb/ques.jpg,stim_fb/posf.jpg,stim_fb/negf.jpg,stim_01/e.jpg,stim_01/f.jpg,2,3,j,5,0,300,57,j,1,0.81642135623,01,03,60.0189069868,PLT_learning_01,B,2014_Feb_26_1818,P07,
stim_fb/ques.jpg,stim_fb/negf.jpg,stim_fb/posf.jpg,stim_01/e.jpg,stim_01/f.jpg,2,3,j,5,1,301,51,j,1,0.883033923054,01,03,60.0189069868,PLT_learning_01,B,2014_Feb_26_1818,P07,
stim_fb/ques.jpg,stim_fb/posf.jpg,stim_fb/negf.jpg,stim_01/c.jpg,stim_01/d.jpg,2,2,j,5,2,302,38,j,1,0.699809517222,01,03,60.0189069868,PLT_learning_01,B,2014_Feb_26_1818,P07,
stim_fb/ques.jpg,stim_fb/posf.jpg,stim_fb/negf.jpg,stim_01/b.jpg,stim_01/a.jpg,1,1,f,5,3,303,8,j,0,0.549824010346,01,03,60.0189069868,PLT_learning_01,B,2014_Feb_26_1818,P07,
stim_fb/ques.jpg,stim_fb/posf.jpg,stim_fb/negf.jpg,stim_01/d.jpg,stim_01/c.jpg,1,2,f,5,4,304,29,f,1,0.583241148563,01,03,60.0189069868,PLT_learning_01,B,2014_Feb_26_1818,P07,
stim_fb/ques.jpg,stim_fb/negf.jpg,stim_fb/posf.jpg,stim_01/f.jpg,stim_01/e.jpg,1,3,f,5,5,305,42,f,1,0.583186613634,01,03,60.0189069868,PLT_learning_01,B,2014_Feb_26_1818,P07,
stim_fb/ques.jpg,stim_fb/negf.jpg,stim_fb/posf.jpg,stim_01/c.jpg,stim_01/d.jpg,2,2,j,5,6,306,31,f,0,0.416590684281,01,03,60.0189069868,PLT_learning_01,B,2014_Feb_26_1818,P07,
stim_fb/ques.jpg,stim_fb/negf.jpg,stim_fb/posf.jpg,stim_01/b.jpg,stim_01/a.jpg,1,1,f,5,7,307,0,f,1,0.483230399772,01,03,60.0189069868,PLT_learning_01,B,2014_Feb_26_1818,P07,
stim_fb/ques.jpg,stim_fb/posf.jpg,stim_fb/negf.jpg,stim_01/e.jpg,stim_01/f.jpg,2,3,j,5,8,308,59,j,1,0.399915817174,01,03,60.0189069868,PLT_learning_01,B,2014_Feb_26_1818,P07,
stim_fb/ques.jpg,stim_fb/posf.jpg,stim_fb/negf.jpg,stim_01/e.jpg,stim_01/f.jpg,2,3,j,5,9,309,58,j,1,0.349938156856,01,03,60.0189069868,PLT_learning_01,B,2014_Feb_26_1818,P07,
stim_fb/ques.jpg,stim_fb/negf.jpg,stim_fb/posf.jpg,stim_01/a.jpg,stim_01/b.jpg,2,1,j,5,10,310,11,j,1,0.349938719257,01,03,60.0189069868,PLT_learning_01,B,2014_Feb_26_1818,P07,
stim_fb/ques.jpg,stim_fb/negf.jpg,stim_fb/posf.jpg,stim_01/a.jpg,stim_01/b.jpg,2,1,j,5,11,311,15,j,1,0.349918313397,01,03,60.0189069868,PLT_learning_01,B,2014_Feb_26_1818,P07,
stim_fb/ques.jpg,stim_fb/posf.jpg,stim_fb/negf.jpg,stim_01/e.jpg,stim_01/f.jpg,2,3,j,5,12,312,56,j,1,0.433090951197,01,03,60.0189069868,PLT_learning_01,B,2014_Feb_26_1818,P07,
stim_fb/ques.jpg,stim_fb/negf.jpg,stim_fb/posf.jpg,stim_01/d.jpg,stim_01/c.jpg,1,2,f,5,13,313,20,f,1,0.299990246691,01,03,60.0189069868,PLT_learning_01,B,2014_Feb_26_1818,P07,
stim_fb/ques.jpg,stim_fb/posf.jpg,stim_fb/negf.jpg,stim_01/a.jpg,stim_01/b.jpg,2,1,j,5,14,314,18,j,1,0.166668247606,01,03,60.0189069868,PLT_learning_01,B,2014_Feb_26_1818,P07,
stim_fb/ques.jpg,stim_fb/negf.jpg,stim_fb/posf.jpg,stim_01/a.jpg,stim_01/b.jpg,2,1,j,5,15,315,14,f,0,0.383283488094,01,03,60.0189069868,PLT_learning_01,B,2014_Feb_26_1818,P07,
stim_fb/ques.jpg,stim_fb/negf.jpg,stim_fb/posf.jpg,stim_01/d.jpg,stim_01/c.jpg,1,2,f,5,16,316,23,f,1,1.09967433628,01,03,60.0189069868,PLT_learning_01,B,2014_Feb_26_1818,P07,
stim_fb/ques.jpg,stim_fb/negf.jpg,stim_fb/posf.jpg,stim_01/c.jpg,stim_01/d.jpg,2,2,j,5,17,317,36,j,1,0.433242519981,01,03,60.0189069868,PLT_learning_01,B,2014_Feb_26_1818,P07,
stim_fb/ques.jpg,stim_fb/posf.jpg,stim_fb/negf.jpg,stim_01/c.jpg,stim_01/d.jpg,2,2,j,5,18,318,39,f,0,0.666475791912,01,03,60.0189069868,PLT_learning_01,B,2014_Feb_26_1818,P07,
stim_fb/ques.jpg,stim_fb/negf.jpg,stim_fb/posf.jpg,stim_01/a.jpg,stim_01/b.jpg,2,1,j,5,19,319,13,f,0,0.416635838828,01,03,60.0189069868,PLT_learning_01,B,2014_Feb_26_1818,P07,
stim_fb/ques.jpg,stim_fb/negf.jpg,stim_fb/posf.jpg,stim_01/a.jpg,stim_01/b.jpg,2,1,j,5,20,320,16,f,0,0.499924821617,01,03,60.0189069868,PLT_learning_01,B,2014_Feb_26_1818,P07,
stim_fb/ques.jpg,stim_fb/posf.jpg,stim_fb/negf.jpg,stim_01/d.jpg,stim_01/c.jpg,1,2,f,5,21,321,28,j,0,0.233299881955,01,03,60.0189069868,PLT_learning_01,B,2014_Feb_26_1818,P07,
stim_fb/ques.jpg,stim_fb/negf.jpg,stim_fb/posf.jpg,stim_01/d.jpg,stim_01/c.jpg,1,2,f,5,22,322,24,f,1,0.483216971301,01,03,60.0189069868,PLT_learning_01,B,2014_Feb_26_1818,P07,
stim_fb/ques.jpg,stim_fb/negf.jpg,stim_fb/posf.jpg,stim_01/f.jpg,stim_01/e.jpg,1,3,f,5,23,323,40,f,1,0.699829802783,01,03,60.0189069868,PLT_learning_01,B,2014_Feb_26_1818,P07,
stim_fb/ques.jpg,stim_fb/posf.jpg,stim_fb/negf.jpg,stim_01/f.jpg,stim_01/e.jpg,1,3,f,5,24,324,49,f,1,0.81645555447,01,03,60.0189069868,PLT_learning_01,B,2014_Feb_26_1818,P07,
stim_fb/ques.jpg,stim_fb/negf.jpg,stim_fb/posf.jpg,stim_01/f.jpg,stim_01/e.jpg,1,3,f,5,25,325,45,f,1,1.13300496086,01,03,60.0189069868,PLT_learning_01,B,2014_Feb_26_1818,P07,
stim_fb/ques.jpg,stim_fb/negf.jpg,stim_fb/posf.jpg,stim_01/a.jpg,stim_01/b.jpg,2,1,j,5,26,326,12,j,1,1.24964841167,01,03,60.0189069868,PLT_learning_01,B,2014_Feb_26_1818,P07,
stim_fb/ques.jpg,stim_fb/negf.jpg,stim_fb/posf.jpg,stim_01/b.jpg,stim_01/a.jpg,1,1,f,5,27,327,1,j,0,1.54952863512,01,03,60.0189069868,PLT_learning_01,B,2014_Feb_26_1818,P07,
stim_fb/ques.jpg,stim_fb/negf.jpg,stim_fb/posf.jpg,stim_01/d.jpg,stim_01/c.jpg,1,2,f,5,28,328,25,f,1,0.783059477748,01,03,60.0189069868,PLT_learning_01,B,2014_Feb_26_1818,P07,
stim_fb/ques.jpg,stim_fb/negf.jpg,stim_fb/posf.jpg,stim_01/e.jpg,stim_01/f.jpg,2,3,j,5,29,329,50,j,1,1.09966497094,01,03,60.0189069868,PLT_learning_01,B,2014_Feb_26_1818,P07,
stim_fb/ques.jpg,stim_fb/negf.jpg,stim_fb/posf.jpg,stim_01/f.jpg,stim_01/e.jpg,1,3,f,5,30,330,43,f,1,1.11634600341,01,03,60.0189069868,PLT_learning_01,B,2014_Feb_26_1818,P07,
stim_fb/ques.jpg,stim_fb/negf.jpg,stim_fb/posf.jpg,stim_01/c.jpg,stim_01/d.jpg,2,2,j,5,31,331,30,j,1,1.24962902234,01,03,60.0189069868,PLT_learning_01,B,2014_Feb_26_1818,P07,
stim_fb/ques.jpg,stim_fb/negf.jpg,stim_fb/posf.jpg,stim_01/e.jpg,stim_01/f.jpg,2,3,j,5,32,332,54,j,1,0.883100211277,01,03,60.0189069868,PLT_learning_01,B,2014_Feb_26_1818,P07,
stim_fb/ques.jpg,stim_fb/negf.jpg,stim_fb/posf.jpg,stim_01/b.jpg,stim_01/a.jpg,1,1,f,5,33,333,7,j,0,1.09966265216,01,03,60.0189069868,PLT_learning_01,B,2014_Feb_26_1818,P07,
stim_fb/ques.jpg,stim_fb/negf.jpg,stim_fb/posf.jpg,stim_01/d.jpg,stim_01/c.jpg,1,2,f,5,34,334,26,f,1,0.833119735942,01,03,60.0189069868,PLT_learning_01,B,2014_Feb_26_1818,P07,
stim_fb/ques.jpg,stim_fb/negf.jpg,stim_fb/posf.jpg,stim_01/f.jpg,stim_01/e.jpg,1,3,f,5,35,335,44,f,1,0.666498432343,01,03,60.0189069868,PLT_learning_01,B,2014_Feb_26_1818,P07,
stim_fb/ques.jpg,stim_fb/negf.jpg,stim_fb/posf.jpg,stim_01/e.jpg,stim_01/f.jpg,2,3,j,5,36,336,55,j,1,0.449854939436,01,03,60.0189069868,PLT_learning_01,B,2014_Feb_26_1818,P07,
stim_fb/ques.jpg,stim_fb/posf.jpg,stim_fb/negf.jpg,stim_01/c.jpg,stim_01/d.jpg,2,2,j,5,37,337,37,j,1,1.01638966324,01,03,60.0189069868,PLT_learning_01,B,2014_Feb_26_1818,P07,
stim_fb/ques.jpg,stim_fb/negf.jpg,stim_fb/posf.jpg,stim_01/b.jpg,stim_01/a.jpg,1,1,f,5,38,338,4,j,0,1.51622586296,01,03,60.0189069868,PLT_learning_01,B,2014_Feb_26_1818,P07,
stim_fb/ques.jpg,stim_fb/negf.jpg,stim_fb/posf.jpg,stim_01/d.jpg,stim_01/c.jpg,1,2,f,5,39,339,22,f,1,0.533204619514,01,03,60.0189069868,PLT_learning_01,B,2014_Feb_26_1818,P07,
stim_fb/ques.jpg,stim_fb/negf.jpg,stim_fb/posf.jpg,stim_01/d.jpg,stim_01/c.jpg,1,2,f,5,40,340,21,f,1,0.516534976428,01,03,60.0189069868,PLT_learning_01,B,2014_Feb_26_1818,P07,
stim_fb/ques.jpg,stim_fb/negf.jpg,stim_fb/posf.jpg,stim_01/b.jpg,stim_01/a.jpg,1,1,f,5,41,341,5,j,0,0.366596136872,01,03,60.0189069868,PLT_learning_01,B,2014_Feb_26_1818,P07,
stim_fb/ques.jpg,stim_fb/negf.jpg,stim_fb/posf.jpg,stim_01/c.jpg,stim_01/d.jpg,2,2,j,5,42,342,32,j,1,0.599806548822,01,03,60.0189069868,PLT_learning_01,B,2014_Feb_26_1818,P07,
stim_fb/ques.jpg,stim_fb/posf.jpg,stim_fb/negf.jpg,stim_01/a.jpg,stim_01/b.jpg,2,1,j,5,43,343,19,f,0,0.449915741987,01,03,60.0189069868,PLT_learning_01,B,2014_Feb_26_1818,P07,
stim_fb/ques.jpg,stim_fb/negf.jpg,stim_fb/posf.jpg,stim_01/c.jpg,stim_01/d.jpg,2,2,j,5,44,344,33,j,1,0.533198493245,01,03,60.0189069868,PLT_learning_01,B,2014_Feb_26_1818,P07,
stim_fb/ques.jpg,stim_fb/posf.jpg,stim_fb/negf.jpg,stim_01/f.jpg,stim_01/e.jpg,1,3,f,5,45,345,47,j,0,0.29993269825,01,03,60.0189069868,PLT_learning_01,B,2014_Feb_26_1818,P07,
stim_fb/ques.jpg,stim_fb/negf.jpg,stim_fb/posf.jpg,stim_01/e.jpg,stim_01/f.jpg,2,3,j,5,46,346,53,f,0,0.533200893227,01,03,60.0189069868,PLT_learning_01,B,2014_Feb_26_1818,P07,
stim_fb/ques.jpg,stim_fb/negf.jpg,stim_fb/posf.jpg,stim_01/b.jpg,stim_01/a.jpg,1,1,f,5,47,347,2,j,0,0.516556266493,01,03,60.0189069868,PLT_learning_01,B,2014_Feb_26_1818,P07,
stim_fb/ques.jpg,stim_fb/negf.jpg,stim_fb/posf.jpg,stim_01/a.jpg,stim_01/b.jpg,2,1,j,5,48,348,10,j,1,0.699832383216,01,03,60.0189069868,PLT_learning_01,B,2014_Feb_26_1818,P07,
stim_fb/ques.jpg,stim_fb/posf.jpg,stim_fb/negf.jpg,stim_01/f.jpg,stim_01/e.jpg,1,3,f,5,49,349,48,f,1,0.466571788182,01,03,60.0189069868,PLT_learning_01,B,2014_Feb_26_1818,P07,
stim_fb/ques.jpg,stim_fb/posf.jpg,stim_fb/negf.jpg,stim_01/b.jpg,stim_01/a.jpg,1,1,f,5,50,350,9,j,0,0.649832780206,01,03,60.0189069868,PLT_learning_01,B,2014_Feb_26_1818,P07,
stim_fb/ques.jpg,stim_fb/negf.jpg,stim_fb/posf.jpg,stim_01/c.jpg,stim_01/d.jpg,2,2,j,5,51,351,35,j,1,0.816492474492,01,03,60.0189069868,PLT_learning_01,B,2014_Feb_26_1818,P07,
stim_fb/ques.jpg,stim_fb/posf.jpg,stim_fb/negf.jpg,stim_01/d.jpg,stim_01/c.jpg,1,2,f,5,52,352,27,f,1,0.666529081736,01,03,60.0189069868,PLT_learning_01,B,2014_Feb_26_1818,P07,
stim_fb/ques.jpg,stim_fb/negf.jpg,stim_fb/posf.jpg,stim_01/a.jpg,stim_01/b.jpg,2,1,j,5,53,353,17,j,1,0.699810723227,01,03,60.0189069868,PLT_learning_01,B,2014_Feb_26_1818,P07,
stim_fb/ques.jpg,stim_fb/negf.jpg,stim_fb/posf.jpg,stim_01/e.jpg,stim_01/f.jpg,2,3,j,5,54,354,52,f,0,0.433268658131,01,03,60.0189069868,PLT_learning_01,B,2014_Feb_26_1818,P07,
stim_fb/ques.jpg,stim_fb/negf.jpg,stim_fb/posf.jpg,stim_01/b.jpg,stim_01/a.jpg,1,1,f,5,55,355,3,j,0,0.266627414831,01,03,60.0189069868,PLT_learning_01,B,2014_Feb_26_1818,P07,
stim_fb/ques.jpg,stim_fb/negf.jpg,stim_fb/posf.jpg,stim_01/c.jpg,stim_01/d.jpg,2,2,j,5,56,356,34,f,0,0.933072064121,01,03,60.0189069868,PLT_learning_01,B,2014_Feb_26_1818,P07,
stim_fb/ques.jpg,stim_fb/negf.jpg,stim_fb/posf.jpg,stim_01/f.jpg,stim_01/e.jpg,1,3,f,5,57,357,41,j,0,0.616498441364,01,03,60.0189069868,PLT_learning_01,B,2014_Feb_26_1818,P07,
stim_fb/ques.jpg,stim_fb/posf.jpg,stim_fb/negf.jpg,stim_01/f.jpg,stim_01/e.jpg,1,3,f,5,58,358,46,f,1,0.783117814151,01,03,60.0189069868,PLT_learning_01,B,2014_Feb_26_1818,P07,
stim_fb/ques.jpg,stim_fb/negf.jpg,stim_fb/posf.jpg,stim_01/b.jpg,stim_01/a.jpg,1,1,f,5,59,359,6,f,1,0.833118794597,01,03,60.0189069868,PLT_learning_01,B,2014_Feb_26_1818,P07,
