Fb3,Fb2,Fb1,Symbol2,Symbol1,PosCond,Pair,Correct,trials.thisRepN,trials.thisTrialN,trials.thisN,trials.thisIndex,Response.keys,Response.corr,Response.rt,Version,Session Number,frameRate,expName,StimCondition,date,Participant,
stim_fb/ques.jpg,stim_fb/negf.jpg,stim_fb/posf.jpg,stim_03/a.jpg,stim_03/b.jpg,2,1,j,0,0,0,14,j,1,1.38289377975,03,02,60.0187314796,PLT_learning_3,B,2014_Feb_17_1350,P08,
stim_fb/ques.jpg,stim_fb/negf.jpg,stim_fb/posf.jpg,stim_03/b.jpg,stim_03/a.jpg,1,1,f,0,1,1,6,f,1,1.31628635273,03,02,60.0187314796,PLT_learning_3,B,2014_Feb_17_1350,P08,
stim_fb/ques.jpg,stim_fb/negf.jpg,stim_fb/posf.jpg,stim_03/f.jpg,stim_03/e.jpg,1,3,f,0,2,2,43,f,1,1.03303870798,03,02,60.0187314796,PLT_learning_3,B,2014_Feb_17_1350,P08,
stim_fb/ques.jpg,stim_fb/posf.jpg,stim_fb/negf.jpg,stim_03/c.jpg,stim_03/d.jpg,2,2,j,0,3,3,37,None,0,,03,02,60.0187314796,PLT_learning_3,B,2014_Feb_17_1350,P08,
stim_fb/ques.jpg,stim_fb/negf.jpg,stim_fb/posf.jpg,stim_03/b.jpg,stim_03/a.jpg,1,1,f,0,4,4,3,f,1,0.899761541642,03,02,60.0187314796,PLT_learning_3,B,2014_Feb_17_1350,P08,
stim_fb/ques.jpg,stim_fb/negf.jpg,stim_fb/posf.jpg,stim_03/b.jpg,stim_03/a.jpg,1,1,f,0,5,5,4,f,1,0.783090151202,03,02,60.0187314796,PLT_learning_3,B,2014_Feb_17_1350,P08,
stim_fb/ques.jpg,stim_fb/negf.jpg,stim_fb/posf.jpg,stim_03/d.jpg,stim_03/c.jpg,1,2,f,0,6,6,22,f,1,0.98306994985,03,02,60.0187314796,PLT_learning_3,B,2014_Feb_17_1350,P08,
stim_fb/ques.jpg,stim_fb/negf.jpg,stim_fb/posf.jpg,stim_03/d.jpg,stim_03/c.jpg,1,2,f,0,7,7,24,f,1,1.01636077022,03,02,60.0187314796,PLT_learning_3,B,2014_Feb_17_1350,P08,
stim_fb/ques.jpg,stim_fb/posf.jpg,stim_fb/negf.jpg,stim_03/b.jpg,stim_03/a.jpg,1,1,f,0,8,8,9,f,1,1.1662955677,03,02,60.0187314796,PLT_learning_3,B,2014_Feb_17_1350,P08,
stim_fb/ques.jpg,stim_fb/negf.jpg,stim_fb/posf.jpg,stim_03/a.jpg,stim_03/b.jpg,2,1,j,0,9,9,10,j,1,1.16632300208,03,02,60.0187314796,PLT_learning_3,B,2014_Feb_17_1350,P08,
stim_fb/ques.jpg,stim_fb/negf.jpg,stim_fb/posf.jpg,stim_03/d.jpg,stim_03/c.jpg,1,2,f,0,10,10,23,f,1,0.866430339622,03,02,60.0187314796,PLT_learning_3,B,2014_Feb_17_1350,P08,
stim_fb/ques.jpg,stim_fb/posf.jpg,stim_fb/negf.jpg,stim_03/b.jpg,stim_03/a.jpg,1,1,f,0,11,11,8,f,1,0.766463614559,03,02,60.0187314796,PLT_learning_3,B,2014_Feb_17_1350,P08,
stim_fb/ques.jpg,stim_fb/posf.jpg,stim_fb/negf.jpg,stim_03/a.jpg,stim_03/b.jpg,2,1,j,0,12,12,19,j,1,1.34956780776,03,02,60.0187314796,PLT_learning_3,B,2014_Feb_17_1350,P08,
stim_fb/ques.jpg,stim_fb/negf.jpg,stim_fb/posf.jpg,stim_03/c.jpg,stim_03/d.jpg,2,2,j,0,13,13,33,j,1,1.532887061,03,02,60.0187314796,PLT_learning_3,B,2014_Feb_17_1350,P08,
stim_fb/ques.jpg,stim_fb/negf.jpg,stim_fb/posf.jpg,stim_03/a.jpg,stim_03/b.jpg,2,1,j,0,14,14,12,f,0,1.66615158984,03,02,60.0187314796,PLT_learning_3,B,2014_Feb_17_1350,P08,
stim_fb/ques.jpg,stim_fb/posf.jpg,stim_fb/negf.jpg,stim_03/e.jpg,stim_03/f.jpg,2,3,j,0,15,15,56,j,1,1.13302104796,03,02,60.0187314796,PLT_learning_3,B,2014_Feb_17_1350,P08,
stim_fb/ques.jpg,stim_fb/posf.jpg,stim_fb/negf.jpg,stim_03/d.jpg,stim_03/c.jpg,1,2,f,0,16,16,28,f,1,1.03307989263,03,02,60.0187314796,PLT_learning_3,B,2014_Feb_17_1350,P08,
stim_fb/ques.jpg,stim_fb/negf.jpg,stim_fb/posf.jpg,stim_03/d.jpg,stim_03/c.jpg,1,2,f,0,17,17,25,j,0,1.3162849362,03,02,60.0187314796,PLT_learning_3,B,2014_Feb_17_1350,P08,
stim_fb/ques.jpg,stim_fb/negf.jpg,stim_fb/posf.jpg,stim_03/e.jpg,stim_03/f.jpg,2,3,j,0,18,18,51,j,1,0.849786203111,03,02,60.0187314796,PLT_learning_3,B,2014_Feb_17_1350,P08,
stim_fb/ques.jpg,stim_fb/negf.jpg,stim_fb/posf.jpg,stim_03/f.jpg,stim_03/e.jpg,1,3,f,0,19,19,42,f,1,0.999719283314,03,02,60.0187314796,PLT_learning_3,B,2014_Feb_17_1350,P08,
stim_fb/ques.jpg,stim_fb/negf.jpg,stim_fb/posf.jpg,stim_03/a.jpg,stim_03/b.jpg,2,1,j,0,20,20,15,j,1,0.899761123601,03,02,60.0187314796,PLT_learning_3,B,2014_Feb_17_1350,P08,
stim_fb/ques.jpg,stim_fb/negf.jpg,stim_fb/posf.jpg,stim_03/a.jpg,stim_03/b.jpg,2,1,j,0,21,21,17,j,1,0.933059122864,03,02,60.0187314796,PLT_learning_3,B,2014_Feb_17_1350,P08,
stim_fb/ques.jpg,stim_fb/negf.jpg,stim_fb/posf.jpg,stim_03/e.jpg,stim_03/f.jpg,2,3,j,0,22,22,55,j,1,1.01637924226,03,02,60.0187314796,PLT_learning_3,B,2014_Feb_17_1350,P08,
stim_fb/ques.jpg,stim_fb/negf.jpg,stim_fb/posf.jpg,stim_03/b.jpg,stim_03/a.jpg,1,1,f,0,23,23,2,f,1,0.683146484613,03,02,60.0187314796,PLT_learning_3,B,2014_Feb_17_1350,P08,
stim_fb/ques.jpg,stim_fb/posf.jpg,stim_fb/negf.jpg,stim_03/e.jpg,stim_03/f.jpg,2,3,j,0,24,24,59,j,1,0.599881802392,03,02,60.0187314796,PLT_learning_3,B,2014_Feb_17_1350,P08,
stim_fb/ques.jpg,stim_fb/posf.jpg,stim_fb/negf.jpg,stim_03/f.jpg,stim_03/e.jpg,1,3,f,0,25,25,46,f,1,0.833112331486,03,02,60.0187314796,PLT_learning_3,B,2014_Feb_17_1350,P08,
stim_fb/ques.jpg,stim_fb/negf.jpg,stim_fb/posf.jpg,stim_03/b.jpg,stim_03/a.jpg,1,1,f,0,26,26,5,f,1,0.799781965549,03,02,60.0187314796,PLT_learning_3,B,2014_Feb_17_1350,P08,
stim_fb/ques.jpg,stim_fb/negf.jpg,stim_fb/posf.jpg,stim_03/a.jpg,stim_03/b.jpg,2,1,j,0,27,27,16,j,1,0.799781929459,03,02,60.0187314796,PLT_learning_3,B,2014_Feb_17_1350,P08,
stim_fb/ques.jpg,stim_fb/negf.jpg,stim_fb/posf.jpg,stim_03/c.jpg,stim_03/d.jpg,2,2,j,0,28,28,32,f,0,0.916370096465,03,02,60.0187314796,PLT_learning_3,B,2014_Feb_17_1350,P08,
stim_fb/ques.jpg,stim_fb/negf.jpg,stim_fb/posf.jpg,stim_03/c.jpg,stim_03/d.jpg,2,2,j,0,29,29,35,j,1,1.46625065676,03,02,60.0187314796,PLT_learning_3,B,2014_Feb_17_1350,P08,
stim_fb/ques.jpg,stim_fb/negf.jpg,stim_fb/posf.jpg,stim_03/c.jpg,stim_03/d.jpg,2,2,j,0,30,30,30,j,1,0.999673542304,03,02,60.0187314796,PLT_learning_3,B,2014_Feb_17_1350,P08,
stim_fb/ques.jpg,stim_fb/negf.jpg,stim_fb/posf.jpg,stim_03/b.jpg,stim_03/a.jpg,1,1,f,0,31,31,0,f,1,1.41624299667,03,02,60.0187314796,PLT_learning_3,B,2014_Feb_17_1350,P08,
stim_fb/ques.jpg,stim_fb/negf.jpg,stim_fb/posf.jpg,stim_03/e.jpg,stim_03/f.jpg,2,3,j,0,32,32,54,j,1,0.749864816054,03,02,60.0187314796,PLT_learning_3,B,2014_Feb_17_1350,P08,
stim_fb/ques.jpg,stim_fb/negf.jpg,stim_fb/posf.jpg,stim_03/c.jpg,stim_03/d.jpg,2,2,j,0,33,33,31,j,1,1.11633268923,03,02,60.0187314796,PLT_learning_3,B,2014_Feb_17_1350,P08,
stim_fb/ques.jpg,stim_fb/negf.jpg,stim_fb/posf.jpg,stim_03/a.jpg,stim_03/b.jpg,2,1,j,0,34,34,13,j,1,0.949729770453,03,02,60.0187314796,PLT_learning_3,B,2014_Feb_17_1350,P08,
stim_fb/ques.jpg,stim_fb/posf.jpg,stim_fb/negf.jpg,stim_03/c.jpg,stim_03/d.jpg,2,2,j,0,35,35,38,j,1,0.849769018278,03,02,60.0187314796,PLT_learning_3,B,2014_Feb_17_1350,P08,
stim_fb/ques.jpg,stim_fb/negf.jpg,stim_fb/posf.jpg,stim_03/d.jpg,stim_03/c.jpg,1,2,f,0,36,36,20,j,0,1.63285513342,03,02,60.0187314796,PLT_learning_3,B,2014_Feb_17_1350,P08,
stim_fb/ques.jpg,stim_fb/negf.jpg,stim_fb/posf.jpg,stim_03/f.jpg,stim_03/e.jpg,1,3,f,0,37,37,44,f,1,0.633171476906,03,02,60.0187314796,PLT_learning_3,B,2014_Feb_17_1350,P08,
stim_fb/ques.jpg,stim_fb/posf.jpg,stim_fb/negf.jpg,stim_03/e.jpg,stim_03/f.jpg,2,3,j,0,38,38,58,j,1,0.766508988654,03,02,60.0187314796,PLT_learning_3,B,2014_Feb_17_1350,P08,
stim_fb/ques.jpg,stim_fb/negf.jpg,stim_fb/posf.jpg,stim_03/c.jpg,stim_03/d.jpg,2,2,j,0,39,39,36,j,1,0.683151657506,03,02,60.0187314796,PLT_learning_3,B,2014_Feb_17_1350,P08,
stim_fb/ques.jpg,stim_fb/negf.jpg,stim_fb/posf.jpg,stim_03/e.jpg,stim_03/f.jpg,2,3,j,0,40,40,53,j,1,0.616500570672,03,02,60.0187314796,PLT_learning_3,B,2014_Feb_17_1350,P08,
stim_fb/ques.jpg,stim_fb/negf.jpg,stim_fb/posf.jpg,stim_03/f.jpg,stim_03/e.jpg,1,3,f,0,41,41,41,f,1,0.583197416561,03,02,60.0187314796,PLT_learning_3,B,2014_Feb_17_1350,P08,
stim_fb/ques.jpg,stim_fb/negf.jpg,stim_fb/posf.jpg,stim_03/e.jpg,stim_03/f.jpg,2,3,j,0,42,42,52,j,1,0.699813718694,03,02,60.0187314796,PLT_learning_3,B,2014_Feb_17_1350,P08,
stim_fb/ques.jpg,stim_fb/negf.jpg,stim_fb/posf.jpg,stim_03/f.jpg,stim_03/e.jpg,1,3,f,0,43,43,45,f,1,0.533188210615,03,02,60.0187314796,PLT_learning_3,B,2014_Feb_17_1350,P08,
stim_fb/ques.jpg,stim_fb/negf.jpg,stim_fb/posf.jpg,stim_03/f.jpg,stim_03/e.jpg,1,3,f,0,44,44,40,f,1,0.48324367486,03,02,60.0187314796,PLT_learning_3,B,2014_Feb_17_1350,P08,
stim_fb/ques.jpg,stim_fb/posf.jpg,stim_fb/negf.jpg,stim_03/e.jpg,stim_03/f.jpg,2,3,j,0,45,45,57,f,0,1.03303941173,03,02,60.0187314796,PLT_learning_3,B,2014_Feb_17_1350,P08,
stim_fb/ques.jpg,stim_fb/posf.jpg,stim_fb/negf.jpg,stim_03/f.jpg,stim_03/e.jpg,1,3,f,0,46,46,49,f,1,0.799812464568,03,02,60.0187314796,PLT_learning_3,B,2014_Feb_17_1350,P08,
stim_fb/ques.jpg,stim_fb/negf.jpg,stim_fb/posf.jpg,stim_03/c.jpg,stim_03/d.jpg,2,2,j,0,47,47,34,j,1,1.08305494244,03,02,60.0187314796,PLT_learning_3,B,2014_Feb_17_1350,P08,
stim_fb/ques.jpg,stim_fb/negf.jpg,stim_fb/posf.jpg,stim_03/b.jpg,stim_03/a.jpg,1,1,f,0,48,48,1,f,1,1.04970718115,03,02,60.0187314796,PLT_learning_3,B,2014_Feb_17_1350,P08,
stim_fb/ques.jpg,stim_fb/posf.jpg,stim_fb/negf.jpg,stim_03/a.jpg,stim_03/b.jpg,2,1,j,0,49,49,18,j,1,0.7498086661,03,02,60.0187314796,PLT_learning_3,B,2014_Feb_17_1350,P08,
stim_fb/ques.jpg,stim_fb/posf.jpg,stim_fb/negf.jpg,stim_03/c.jpg,stim_03/d.jpg,2,2,j,0,50,50,39,f,0,1.29955939579,03,02,60.0187314796,PLT_learning_3,B,2014_Feb_17_1350,P08,
stim_fb/ques.jpg,stim_fb/negf.jpg,stim_fb/posf.jpg,stim_03/a.jpg,stim_03/b.jpg,2,1,j,0,51,51,11,j,1,0.766436799723,03,02,60.0187314796,PLT_learning_3,B,2014_Feb_17_1350,P08,
stim_fb/ques.jpg,stim_fb/posf.jpg,stim_fb/negf.jpg,stim_03/f.jpg,stim_03/e.jpg,1,3,f,0,52,52,47,f,1,0.583215389358,03,02,60.0187314796,PLT_learning_3,B,2014_Feb_17_1350,P08,
stim_fb/ques.jpg,stim_fb/negf.jpg,stim_fb/posf.jpg,stim_03/e.jpg,stim_03/f.jpg,2,3,j,0,53,53,50,j,1,0.666489057977,03,02,60.0187314796,PLT_learning_3,B,2014_Feb_17_1350,P08,
stim_fb/ques.jpg,stim_fb/negf.jpg,stim_fb/posf.jpg,stim_03/b.jpg,stim_03/a.jpg,1,1,f,0,54,54,7,f,1,0.899754919136,03,02,60.0187314796,PLT_learning_3,B,2014_Feb_17_1350,P08,
stim_fb/ques.jpg,stim_fb/negf.jpg,stim_fb/posf.jpg,stim_03/d.jpg,stim_03/c.jpg,1,2,f,0,55,55,26,j,0,0.882109427749,03,02,60.0187314796,PLT_learning_3,B,2014_Feb_17_1350,P08,
stim_fb/ques.jpg,stim_fb/posf.jpg,stim_fb/negf.jpg,stim_03/d.jpg,stim_03/c.jpg,1,2,f,0,56,56,29,j,0,0.866407581898,03,02,60.0187314796,PLT_learning_3,B,2014_Feb_17_1350,P08,
stim_fb/ques.jpg,stim_fb/posf.jpg,stim_fb/negf.jpg,stim_03/f.jpg,stim_03/e.jpg,1,3,f,0,57,57,48,f,1,0.683148156781,03,02,60.0187314796,PLT_learning_3,B,2014_Feb_17_1350,P08,
stim_fb/ques.jpg,stim_fb/negf.jpg,stim_fb/posf.jpg,stim_03/d.jpg,stim_03/c.jpg,1,2,f,0,58,58,21,j,0,1.26617401373,03,02,60.0187314796,PLT_learning_3,B,2014_Feb_17_1350,P08,
stim_fb/ques.jpg,stim_fb/posf.jpg,stim_fb/negf.jpg,stim_03/d.jpg,stim_03/c.jpg,1,2,f,0,59,59,27,j,0,1.33297164984,03,02,60.0187314796,PLT_learning_3,B,2014_Feb_17_1350,P08,
stim_fb/ques.jpg,stim_fb/negf.jpg,stim_fb/posf.jpg,stim_03/a.jpg,stim_03/b.jpg,2,1,j,1,0,60,10,j,1,0.949765258908,03,02,60.0187314796,PLT_learning_3,B,2014_Feb_17_1350,P08,
stim_fb/ques.jpg,stim_fb/negf.jpg,stim_fb/posf.jpg,stim_03/a.jpg,stim_03/b.jpg,2,1,j,1,1,61,11,j,1,0.6498326178,03,02,60.0187314796,PLT_learning_3,B,2014_Feb_17_1350,P08,
stim_fb/ques.jpg,stim_fb/negf.jpg,stim_fb/posf.jpg,stim_03/b.jpg,stim_03/a.jpg,1,1,f,1,2,62,0,f,1,1.14970082631,03,02,60.0187314796,PLT_learning_3,B,2014_Feb_17_1350,P08,
stim_fb/ques.jpg,stim_fb/posf.jpg,stim_fb/negf.jpg,stim_03/e.jpg,stim_03/f.jpg,2,3,j,1,3,63,58,j,1,0.866392791032,03,02,60.0187314796,PLT_learning_3,B,2014_Feb_17_1350,P08,
stim_fb/ques.jpg,stim_fb/negf.jpg,stim_fb/posf.jpg,stim_03/e.jpg,stim_03/f.jpg,2,3,j,1,4,64,52,f,0,0.599834115533,03,02,60.0187314796,PLT_learning_3,B,2014_Feb_17_1350,P08,
stim_fb/ques.jpg,stim_fb/negf.jpg,stim_fb/posf.jpg,stim_03/a.jpg,stim_03/b.jpg,2,1,j,1,5,65,16,j,1,0.916402718776,03,02,60.0187314796,PLT_learning_3,B,2014_Feb_17_1350,P08,
stim_fb/ques.jpg,stim_fb/negf.jpg,stim_fb/posf.jpg,stim_03/c.jpg,stim_03/d.jpg,2,2,j,1,6,66,30,j,1,1.09969844137,03,02,60.0187314796,PLT_learning_3,B,2014_Feb_17_1350,P08,
stim_fb/ques.jpg,stim_fb/negf.jpg,stim_fb/posf.jpg,stim_03/a.jpg,stim_03/b.jpg,2,1,j,1,7,67,13,j,1,1.11633915534,03,02,60.0187314796,PLT_learning_3,B,2014_Feb_17_1350,P08,
stim_fb/ques.jpg,stim_fb/negf.jpg,stim_fb/posf.jpg,stim_03/b.jpg,stim_03/a.jpg,1,1,f,1,8,68,3,f,1,0.749814717183,03,02,60.0187314796,PLT_learning_3,B,2014_Feb_17_1350,P08,
stim_fb/ques.jpg,stim_fb/posf.jpg,stim_fb/negf.jpg,stim_03/f.jpg,stim_03/e.jpg,1,3,f,1,9,69,48,f,1,0.749811754799,03,02,60.0187314796,PLT_learning_3,B,2014_Feb_17_1350,P08,
stim_fb/ques.jpg,stim_fb/negf.jpg,stim_fb/posf.jpg,stim_03/a.jpg,stim_03/b.jpg,2,1,j,1,10,70,14,j,1,0.849769012263,03,02,60.0187314796,PLT_learning_3,B,2014_Feb_17_1350,P08,
stim_fb/ques.jpg,stim_fb/negf.jpg,stim_fb/posf.jpg,stim_03/b.jpg,stim_03/a.jpg,1,1,f,1,11,71,2,f,1,0.649829688499,03,02,60.0187314796,PLT_learning_3,B,2014_Feb_17_1350,P08,
stim_fb/ques.jpg,stim_fb/negf.jpg,stim_fb/posf.jpg,stim_03/f.jpg,stim_03/e.jpg,1,3,f,1,12,72,44,j,0,0.833071540816,03,02,60.0187314796,PLT_learning_3,B,2014_Feb_17_1350,P08,
stim_fb/ques.jpg,stim_fb/posf.jpg,stim_fb/negf.jpg,stim_03/a.jpg,stim_03/b.jpg,2,1,j,1,13,73,18,j,1,0.89981058789,03,02,60.0187314796,PLT_learning_3,B,2014_Feb_17_1350,P08,
stim_fb/ques.jpg,stim_fb/posf.jpg,stim_fb/negf.jpg,stim_03/b.jpg,stim_03/a.jpg,1,1,f,1,14,74,8,f,1,0.716510323982,03,02,60.0187314796,PLT_learning_3,B,2014_Feb_17_1350,P08,
stim_fb/ques.jpg,stim_fb/negf.jpg,stim_fb/posf.jpg,stim_03/c.jpg,stim_03/d.jpg,2,2,j,1,15,75,33,j,1,1.06635650258,03,02,60.0187314796,PLT_learning_3,B,2014_Feb_17_1350,P08,
stim_fb/ques.jpg,stim_fb/negf.jpg,stim_fb/posf.jpg,stim_03/d.jpg,stim_03/c.jpg,1,2,f,1,16,76,20,j,0,0.916415978827,03,02,60.0187314796,PLT_learning_3,B,2014_Feb_17_1350,P08,
stim_fb/ques.jpg,stim_fb/posf.jpg,stim_fb/negf.jpg,stim_03/b.jpg,stim_03/a.jpg,1,1,f,1,17,77,9,f,1,0.749802801483,03,02,60.0187314796,PLT_learning_3,B,2014_Feb_17_1350,P08,
stim_fb/ques.jpg,stim_fb/negf.jpg,stim_fb/posf.jpg,stim_03/c.jpg,stim_03/d.jpg,2,2,j,1,18,78,34,j,1,0.949730552402,03,02,60.0187314796,PLT_learning_3,B,2014_Feb_17_1350,P08,
stim_fb/ques.jpg,stim_fb/negf.jpg,stim_fb/posf.jpg,stim_03/f.jpg,stim_03/e.jpg,1,3,f,1,19,79,42,f,1,0.832978819708,03,02,60.0187314796,PLT_learning_3,B,2014_Feb_17_1350,P08,
stim_fb/ques.jpg,stim_fb/posf.jpg,stim_fb/negf.jpg,stim_03/c.jpg,stim_03/d.jpg,2,2,j,1,20,80,37,j,1,0.949770419771,03,02,60.0187314796,PLT_learning_3,B,2014_Feb_17_1350,P08,
stim_fb/ques.jpg,stim_fb/negf.jpg,stim_fb/posf.jpg,stim_03/c.jpg,stim_03/d.jpg,2,2,j,1,21,81,35,j,1,0.983039535041,03,02,60.0187314796,PLT_learning_3,B,2014_Feb_17_1350,P08,
stim_fb/ques.jpg,stim_fb/posf.jpg,stim_fb/negf.jpg,stim_03/d.jpg,stim_03/c.jpg,1,2,f,1,22,82,29,j,0,1.14966844159,03,02,60.0187314796,PLT_learning_3,B,2014_Feb_17_1350,P08,
stim_fb/ques.jpg,stim_fb/negf.jpg,stim_fb/posf.jpg,stim_03/a.jpg,stim_03/b.jpg,2,1,j,1,23,83,12,j,1,0.866422965241,03,02,60.0187314796,PLT_learning_3,B,2014_Feb_17_1350,P08,
stim_fb/ques.jpg,stim_fb/posf.jpg,stim_fb/negf.jpg,stim_03/f.jpg,stim_03/e.jpg,1,3,f,1,24,84,47,f,1,0.783119086323,03,02,60.0187314796,PLT_learning_3,B,2014_Feb_17_1350,P08,
stim_fb/ques.jpg,stim_fb/posf.jpg,stim_fb/negf.jpg,stim_03/f.jpg,stim_03/e.jpg,1,3,f,1,25,85,46,j,0,0.966389103841,03,02,60.0187314796,PLT_learning_3,B,2014_Feb_17_1350,P08,
stim_fb/ques.jpg,stim_fb/negf.jpg,stim_fb/posf.jpg,stim_03/d.jpg,stim_03/c.jpg,1,2,f,1,26,86,24,j,0,0.98306367922,03,02,60.0187314796,PLT_learning_3,B,2014_Feb_17_1350,P08,
stim_fb/ques.jpg,stim_fb/negf.jpg,stim_fb/posf.jpg,stim_03/c.jpg,stim_03/d.jpg,2,2,j,1,27,87,31,j,1,0.949731577958,03,02,60.0187314796,PLT_learning_3,B,2014_Feb_17_1350,P08,
stim_fb/ques.jpg,stim_fb/negf.jpg,stim_fb/posf.jpg,stim_03/b.jpg,stim_03/a.jpg,1,1,f,1,28,88,7,f,1,0.89971432696,03,02,60.0187314796,PLT_learning_3,B,2014_Feb_17_1350,P08,
stim_fb/ques.jpg,stim_fb/posf.jpg,stim_fb/negf.jpg,stim_03/c.jpg,stim_03/d.jpg,2,2,j,1,29,89,39,j,1,0.699788145954,03,02,60.0187314796,PLT_learning_3,B,2014_Feb_17_1350,P08,
stim_fb/ques.jpg,stim_fb/negf.jpg,stim_fb/posf.jpg,stim_03/e.jpg,stim_03/f.jpg,2,3,j,1,30,90,51,j,1,0.849823941173,03,02,60.0187314796,PLT_learning_3,B,2014_Feb_17_1350,P08,
stim_fb/ques.jpg,stim_fb/negf.jpg,stim_fb/posf.jpg,stim_03/c.jpg,stim_03/d.jpg,2,2,j,1,31,91,36,j,1,0.966415034473,03,02,60.0187314796,PLT_learning_3,B,2014_Feb_17_1350,P08,
stim_fb/ques.jpg,stim_fb/posf.jpg,stim_fb/negf.jpg,stim_03/e.jpg,stim_03/f.jpg,2,3,j,1,32,92,56,j,1,0.683165443869,03,02,60.0187314796,PLT_learning_3,B,2014_Feb_17_1350,P08,
stim_fb/ques.jpg,stim_fb/posf.jpg,stim_fb/negf.jpg,stim_03/f.jpg,stim_03/e.jpg,1,3,f,1,33,93,49,f,1,0.816451461267,03,02,60.0187314796,PLT_learning_3,B,2014_Feb_17_1350,P08,
stim_fb/ques.jpg,stim_fb/negf.jpg,stim_fb/posf.jpg,stim_03/d.jpg,stim_03/c.jpg,1,2,f,1,34,94,23,j,0,0.833088713619,03,02,60.0187314796,PLT_learning_3,B,2014_Feb_17_1350,P08,
stim_fb/ques.jpg,stim_fb/negf.jpg,stim_fb/posf.jpg,stim_03/a.jpg,stim_03/b.jpg,2,1,j,1,35,95,15,j,1,0.883047886858,03,02,60.0187314796,PLT_learning_3,B,2014_Feb_17_1350,P08,
stim_fb/ques.jpg,stim_fb/negf.jpg,stim_fb/posf.jpg,stim_03/d.jpg,stim_03/c.jpg,1,2,f,1,36,96,22,j,0,0.833090506086,03,02,60.0187314796,PLT_learning_3,B,2014_Feb_17_1350,P08,
stim_fb/ques.jpg,stim_fb/posf.jpg,stim_fb/negf.jpg,stim_03/a.jpg,stim_03/b.jpg,2,1,j,1,37,97,19,j,1,1.16633863204,03,02,60.0187314796,PLT_learning_3,B,2014_Feb_17_1350,P08,
stim_fb/ques.jpg,stim_fb/negf.jpg,stim_fb/posf.jpg,stim_03/b.jpg,stim_03/a.jpg,1,1,f,1,38,98,6,f,1,0.649830702025,03,02,60.0187314796,PLT_learning_3,B,2014_Feb_17_1350,P08,
stim_fb/ques.jpg,stim_fb/posf.jpg,stim_fb/negf.jpg,stim_03/e.jpg,stim_03/f.jpg,2,3,j,1,39,99,59,j,1,0.866375134021,03,02,60.0187314796,PLT_learning_3,B,2014_Feb_17_1350,P08,
stim_fb/ques.jpg,stim_fb/negf.jpg,stim_fb/posf.jpg,stim_03/b.jpg,stim_03/a.jpg,1,1,f,1,40,100,4,f,1,0.699783809144,03,02,60.0187314796,PLT_learning_3,B,2014_Feb_17_1350,P08,
stim_fb/ques.jpg,stim_fb/negf.jpg,stim_fb/posf.jpg,stim_03/e.jpg,stim_03/f.jpg,2,3,j,1,41,101,53,j,1,0.716447316938,03,02,60.0187314796,PLT_learning_3,B,2014_Feb_17_1350,P08,
stim_fb/ques.jpg,stim_fb/negf.jpg,stim_fb/posf.jpg,stim_03/f.jpg,stim_03/e.jpg,1,3,f,1,42,102,41,f,1,0.633151083075,03,02,60.0187314796,PLT_learning_3,B,2014_Feb_17_1350,P08,
stim_fb/ques.jpg,stim_fb/negf.jpg,stim_fb/posf.jpg,stim_03/f.jpg,stim_03/e.jpg,1,3,f,1,43,103,43,f,1,0.566540582402,03,02,60.0187314796,PLT_learning_3,B,2014_Feb_17_1350,P08,
stim_fb/ques.jpg,stim_fb/negf.jpg,stim_fb/posf.jpg,stim_03/a.jpg,stim_03/b.jpg,2,1,j,1,44,104,17,j,1,0.683148180841,03,02,60.0187314796,PLT_learning_3,B,2014_Feb_17_1350,P08,
stim_fb/ques.jpg,stim_fb/negf.jpg,stim_fb/posf.jpg,stim_03/e.jpg,stim_03/f.jpg,2,3,j,1,45,105,54,j,1,0.683133925309,03,02,60.0187314796,PLT_learning_3,B,2014_Feb_17_1350,P08,
stim_fb/ques.jpg,stim_fb/posf.jpg,stim_fb/negf.jpg,stim_03/d.jpg,stim_03/c.jpg,1,2,f,1,46,106,28,f,1,0.983016578823,03,02,60.0187314796,PLT_learning_3,B,2014_Feb_17_1350,P08,
stim_fb/ques.jpg,stim_fb/negf.jpg,stim_fb/posf.jpg,stim_03/d.jpg,stim_03/c.jpg,1,2,f,1,47,107,25,f,1,1.2163459583,03,02,60.0187314796,PLT_learning_3,B,2014_Feb_17_1350,P08,
stim_fb/ques.jpg,stim_fb/negf.jpg,stim_fb/posf.jpg,stim_03/b.jpg,stim_03/a.jpg,1,1,f,1,48,108,1,f,1,0.783111311945,03,02,60.0187314796,PLT_learning_3,B,2014_Feb_17_1350,P08,
stim_fb/ques.jpg,stim_fb/posf.jpg,stim_fb/negf.jpg,stim_03/d.jpg,stim_03/c.jpg,1,2,f,1,49,109,27,f,1,0.749809742784,03,02,60.0187314796,PLT_learning_3,B,2014_Feb_17_1350,P08,
stim_fb/ques.jpg,stim_fb/negf.jpg,stim_fb/posf.jpg,stim_03/e.jpg,stim_03/f.jpg,2,3,j,1,50,110,55,j,1,0.683177497913,03,02,60.0187314796,PLT_learning_3,B,2014_Feb_17_1350,P08,
stim_fb/ques.jpg,stim_fb/negf.jpg,stim_fb/posf.jpg,stim_03/e.jpg,stim_03/f.jpg,2,3,j,1,51,111,50,j,1,0.649809757821,03,02,60.0187314796,PLT_learning_3,B,2014_Feb_17_1350,P08,
stim_fb/ques.jpg,stim_fb/negf.jpg,stim_fb/posf.jpg,stim_03/f.jpg,stim_03/e.jpg,1,3,f,1,52,112,45,f,1,0.549867525808,03,02,60.0187314796,PLT_learning_3,B,2014_Feb_17_1350,P08,
stim_fb/ques.jpg,stim_fb/negf.jpg,stim_fb/posf.jpg,stim_03/f.jpg,stim_03/e.jpg,1,3,f,1,53,113,40,f,1,0.533185795596,03,02,60.0187314796,PLT_learning_3,B,2014_Feb_17_1350,P08,
stim_fb/ques.jpg,stim_fb/negf.jpg,stim_fb/posf.jpg,stim_03/d.jpg,stim_03/c.jpg,1,2,f,1,54,114,21,f,1,0.599837853851,03,02,60.0187314796,PLT_learning_3,B,2014_Feb_17_1350,P08,
stim_fb/ques.jpg,stim_fb/negf.jpg,stim_fb/posf.jpg,stim_03/b.jpg,stim_03/a.jpg,1,1,f,1,55,115,5,f,1,0.749793995534,03,02,60.0187314796,PLT_learning_3,B,2014_Feb_17_1350,P08,
stim_fb/ques.jpg,stim_fb/negf.jpg,stim_fb/posf.jpg,stim_03/d.jpg,stim_03/c.jpg,1,2,f,1,56,116,26,f,1,0.766454691318,03,02,60.0187314796,PLT_learning_3,B,2014_Feb_17_1350,P08,
stim_fb/ques.jpg,stim_fb/posf.jpg,stim_fb/negf.jpg,stim_03/c.jpg,stim_03/d.jpg,2,2,j,1,57,117,38,j,1,0.716483716664,03,02,60.0187314796,PLT_learning_3,B,2014_Feb_17_1350,P08,
stim_fb/ques.jpg,stim_fb/negf.jpg,stim_fb/posf.jpg,stim_03/c.jpg,stim_03/d.jpg,2,2,j,1,58,118,32,j,1,0.833112752536,03,02,60.0187314796,PLT_learning_3,B,2014_Feb_17_1350,P08,
stim_fb/ques.jpg,stim_fb/posf.jpg,stim_fb/negf.jpg,stim_03/e.jpg,stim_03/f.jpg,2,3,j,1,59,119,57,j,1,0.649836443335,03,02,60.0187314796,PLT_learning_3,B,2014_Feb_17_1350,P08,
stim_fb/ques.jpg,stim_fb/posf.jpg,stim_fb/negf.jpg,stim_03/e.jpg,stim_03/f.jpg,2,3,j,2,0,120,59,j,1,0.783119516394,03,02,60.0187314796,PLT_learning_3,B,2014_Feb_17_1350,P08,
stim_fb/ques.jpg,stim_fb/negf.jpg,stim_fb/posf.jpg,stim_03/c.jpg,stim_03/d.jpg,2,2,j,2,1,121,34,j,1,0.983069375418,03,02,60.0187314796,PLT_learning_3,B,2014_Feb_17_1350,P08,
stim_fb/ques.jpg,stim_fb/negf.jpg,stim_fb/posf.jpg,stim_03/d.jpg,stim_03/c.jpg,1,2,f,2,2,122,22,f,1,1.44957286336,03,02,60.0187314796,PLT_learning_3,B,2014_Feb_17_1350,P08,
stim_fb/ques.jpg,stim_fb/posf.jpg,stim_fb/negf.jpg,stim_03/d.jpg,stim_03/c.jpg,1,2,f,2,3,123,27,f,1,1.03306004316,03,02,60.0187314796,PLT_learning_3,B,2014_Feb_17_1350,P08,
stim_fb/ques.jpg,stim_fb/posf.jpg,stim_fb/negf.jpg,stim_03/f.jpg,stim_03/e.jpg,1,3,f,2,4,124,49,j,0,1.04967371975,03,02,60.0187314796,PLT_learning_3,B,2014_Feb_17_1350,P08,
stim_fb/ques.jpg,stim_fb/posf.jpg,stim_fb/negf.jpg,stim_03/c.jpg,stim_03/d.jpg,2,2,j,2,5,125,38,j,1,1.16632547424,03,02,60.0187314796,PLT_learning_3,B,2014_Feb_17_1350,P08,
stim_fb/ques.jpg,stim_fb/negf.jpg,stim_fb/posf.jpg,stim_03/a.jpg,stim_03/b.jpg,2,1,j,2,6,126,17,j,1,1.13300406162,03,02,60.0187314796,PLT_learning_3,B,2014_Feb_17_1350,P08,
stim_fb/ques.jpg,stim_fb/negf.jpg,stim_fb/posf.jpg,stim_03/c.jpg,stim_03/d.jpg,2,2,j,2,7,127,35,j,1,1.44956953106,03,02,60.0187314796,PLT_learning_3,B,2014_Feb_17_1350,P08,
stim_fb/ques.jpg,stim_fb/posf.jpg,stim_fb/negf.jpg,stim_03/a.jpg,stim_03/b.jpg,2,1,j,2,8,128,19,j,1,0.799768522041,03,02,60.0187314796,PLT_learning_3,B,2014_Feb_17_1350,P08,
stim_fb/ques.jpg,stim_fb/negf.jpg,stim_fb/posf.jpg,stim_03/d.jpg,stim_03/c.jpg,1,2,f,2,9,129,26,f,1,1.09965425222,03,02,60.0187314796,PLT_learning_3,B,2014_Feb_17_1350,P08,
stim_fb/ques.jpg,stim_fb/negf.jpg,stim_fb/posf.jpg,stim_03/a.jpg,stim_03/b.jpg,2,1,j,2,10,130,14,j,1,0.716637817761,03,02,60.0187314796,PLT_learning_3,B,2014_Feb_17_1350,P08,
stim_fb/ques.jpg,stim_fb/negf.jpg,stim_fb/posf.jpg,stim_03/f.jpg,stim_03/e.jpg,1,3,f,2,11,131,45,f,1,0.733154078541,03,02,60.0187314796,PLT_learning_3,B,2014_Feb_17_1350,P08,
stim_fb/ques.jpg,stim_fb/negf.jpg,stim_fb/posf.jpg,stim_03/a.jpg,stim_03/b.jpg,2,1,j,2,12,132,13,j,1,0.716419136698,03,02,60.0187314796,PLT_learning_3,B,2014_Feb_17_1350,P08,
stim_fb/ques.jpg,stim_fb/negf.jpg,stim_fb/posf.jpg,stim_03/c.jpg,stim_03/d.jpg,2,2,j,2,13,133,30,j,1,0.733118749483,03,02,60.0187314796,PLT_learning_3,B,2014_Feb_17_1350,P08,
stim_fb/ques.jpg,stim_fb/posf.jpg,stim_fb/negf.jpg,stim_03/b.jpg,stim_03/a.jpg,1,1,f,2,14,134,9,f,1,0.766415413418,03,02,60.0187314796,PLT_learning_3,B,2014_Feb_17_1350,P08,
stim_fb/ques.jpg,stim_fb/posf.jpg,stim_fb/negf.jpg,stim_03/e.jpg,stim_03/f.jpg,2,3,j,2,15,135,57,j,1,0.633153353735,03,02,60.0187314796,PLT_learning_3,B,2014_Feb_17_1350,P08,
stim_fb/ques.jpg,stim_fb/negf.jpg,stim_fb/posf.jpg,stim_03/b.jpg,stim_03/a.jpg,1,1,f,2,16,136,6,f,1,0.849748907151,03,02,60.0187314796,PLT_learning_3,B,2014_Feb_17_1350,P08,
stim_fb/ques.jpg,stim_fb/posf.jpg,stim_fb/negf.jpg,stim_03/a.jpg,stim_03/b.jpg,2,1,j,2,17,137,18,j,1,0.699834344102,03,02,60.0187314796,PLT_learning_3,B,2014_Feb_17_1350,P08,
stim_fb/ques.jpg,stim_fb/negf.jpg,stim_fb/posf.jpg,stim_03/f.jpg,stim_03/e.jpg,1,3,f,2,18,138,42,j,0,1.09969682634,03,02,60.0187314796,PLT_learning_3,B,2014_Feb_17_1350,P08,
stim_fb/ques.jpg,stim_fb/negf.jpg,stim_fb/posf.jpg,stim_03/a.jpg,stim_03/b.jpg,2,1,j,2,19,139,12,j,1,0.683152159758,03,02,60.0187314796,PLT_learning_3,B,2014_Feb_17_1350,P08,
stim_fb/ques.jpg,stim_fb/negf.jpg,stim_fb/posf.jpg,stim_03/d.jpg,stim_03/c.jpg,1,2,f,2,20,140,21,f,1,0.899756422884,03,02,60.0187314796,PLT_learning_3,B,2014_Feb_17_1350,P08,
stim_fb/ques.jpg,stim_fb/negf.jpg,stim_fb/posf.jpg,stim_03/a.jpg,stim_03/b.jpg,2,1,j,2,21,141,11,j,1,0.783107952572,03,02,60.0187314796,PLT_learning_3,B,2014_Feb_17_1350,P08,
stim_fb/ques.jpg,stim_fb/posf.jpg,stim_fb/negf.jpg,stim_03/c.jpg,stim_03/d.jpg,2,2,j,2,22,142,37,j,1,1.08302020586,03,02,60.0187314796,PLT_learning_3,B,2014_Feb_17_1350,P08,
stim_fb/ques.jpg,stim_fb/negf.jpg,stim_fb/posf.jpg,stim_03/f.jpg,stim_03/e.jpg,1,3,f,2,23,143,40,f,1,0.749797881219,03,02,60.0187314796,PLT_learning_3,B,2014_Feb_17_1350,P08,
stim_fb/ques.jpg,stim_fb/negf.jpg,stim_fb/posf.jpg,stim_03/a.jpg,stim_03/b.jpg,2,1,j,2,24,144,10,j,1,0.766471298712,03,02,60.0187314796,PLT_learning_3,B,2014_Feb_17_1350,P08,
stim_fb/ques.jpg,stim_fb/negf.jpg,stim_fb/posf.jpg,stim_03/e.jpg,stim_03/f.jpg,2,3,j,2,25,145,51,j,1,0.683158731138,03,02,60.0187314796,PLT_learning_3,B,2014_Feb_17_1350,P08,
stim_fb/ques.jpg,stim_fb/negf.jpg,stim_fb/posf.jpg,stim_03/e.jpg,stim_03/f.jpg,2,3,j,2,26,146,54,j,1,0.699781333975,03,02,60.0187314796,PLT_learning_3,B,2014_Feb_17_1350,P08,
stim_fb/ques.jpg,stim_fb/negf.jpg,stim_fb/posf.jpg,stim_03/e.jpg,stim_03/f.jpg,2,3,j,2,27,147,50,f,0,0.633156544688,03,02,60.0187314796,PLT_learning_3,B,2014_Feb_17_1350,P08,
stim_fb/ques.jpg,stim_fb/negf.jpg,stim_fb/posf.jpg,stim_03/b.jpg,stim_03/a.jpg,1,1,f,2,28,148,0,f,1,0.7497952256,03,02,60.0187314796,PLT_learning_3,B,2014_Feb_17_1350,P08,
stim_fb/ques.jpg,stim_fb/negf.jpg,stim_fb/posf.jpg,stim_03/f.jpg,stim_03/e.jpg,1,3,f,2,29,149,41,f,1,1.13304574552,03,02,60.0187314796,PLT_learning_3,B,2014_Feb_17_1350,P08,
stim_fb/ques.jpg,stim_fb/posf.jpg,stim_fb/negf.jpg,stim_03/c.jpg,stim_03/d.jpg,2,2,j,2,30,150,39,j,1,1.03306305667,03,02,60.0187314796,PLT_learning_3,B,2014_Feb_17_1350,P08,
stim_fb/ques.jpg,stim_fb/posf.jpg,stim_fb/negf.jpg,stim_03/d.jpg,stim_03/c.jpg,1,2,f,2,31,151,29,f,1,1.11635138984,03,02,60.0187314796,PLT_learning_3,B,2014_Feb_17_1350,P08,
stim_fb/ques.jpg,stim_fb/negf.jpg,stim_fb/posf.jpg,stim_03/c.jpg,stim_03/d.jpg,2,2,j,2,32,152,32,f,0,1.08291073902,03,02,60.0187314796,PLT_learning_3,B,2014_Feb_17_1350,P08,
stim_fb/ques.jpg,stim_fb/negf.jpg,stim_fb/posf.jpg,stim_03/c.jpg,stim_03/d.jpg,2,2,j,2,33,153,36,f,0,0.849784293351,03,02,60.0187314796,PLT_learning_3,B,2014_Feb_17_1350,P08,
stim_fb/ques.jpg,stim_fb/negf.jpg,stim_fb/posf.jpg,stim_03/e.jpg,stim_03/f.jpg,2,3,j,2,34,154,53,j,1,0.999737899715,03,02,60.0187314796,PLT_learning_3,B,2014_Feb_17_1350,P08,
stim_fb/ques.jpg,stim_fb/negf.jpg,stim_fb/posf.jpg,stim_03/c.jpg,stim_03/d.jpg,2,2,j,2,35,155,33,f,0,1.49941731566,03,02,60.0187314796,PLT_learning_3,B,2014_Feb_17_1350,P08,
stim_fb/ques.jpg,stim_fb/posf.jpg,stim_fb/negf.jpg,stim_03/e.jpg,stim_03/f.jpg,2,3,j,2,36,156,58,j,1,0.866435954617,03,02,60.0187314796,PLT_learning_3,B,2014_Feb_17_1350,P08,
stim_fb/ques.jpg,stim_fb/negf.jpg,stim_fb/posf.jpg,stim_03/d.jpg,stim_03/c.jpg,1,2,f,2,37,157,25,j,0,1.19973595086,03,02,60.0187314796,PLT_learning_3,B,2014_Feb_17_1350,P08,
stim_fb/ques.jpg,stim_fb/negf.jpg,stim_fb/posf.jpg,stim_03/b.jpg,stim_03/a.jpg,1,1,f,2,38,158,1,f,1,0.89974341847,03,02,60.0187314796,PLT_learning_3,B,2014_Feb_17_1350,P08,
stim_fb/ques.jpg,stim_fb/negf.jpg,stim_fb/posf.jpg,stim_03/f.jpg,stim_03/e.jpg,1,3,f,2,39,159,43,f,1,0.749805989428,03,02,60.0187314796,PLT_learning_3,B,2014_Feb_17_1350,P08,
stim_fb/ques.jpg,stim_fb/negf.jpg,stim_fb/posf.jpg,stim_03/b.jpg,stim_03/a.jpg,1,1,f,2,40,160,4,f,1,0.649841913971,03,02,60.0187314796,PLT_learning_3,B,2014_Feb_17_1350,P08,
stim_fb/ques.jpg,stim_fb/posf.jpg,stim_fb/negf.jpg,stim_03/f.jpg,stim_03/e.jpg,1,3,f,2,41,161,47,f,1,0.783107612725,03,02,60.0187314796,PLT_learning_3,B,2014_Feb_17_1350,P08,
stim_fb/ques.jpg,stim_fb/negf.jpg,stim_fb/posf.jpg,stim_03/b.jpg,stim_03/a.jpg,1,1,f,2,42,162,2,f,1,0.899750504132,03,02,60.0187314796,PLT_learning_3,B,2014_Feb_17_1350,P08,
stim_fb/ques.jpg,stim_fb/negf.jpg,stim_fb/posf.jpg,stim_03/c.jpg,stim_03/d.jpg,2,2,j,2,43,163,31,f,0,1.19966697092,03,02,60.0187314796,PLT_learning_3,B,2014_Feb_17_1350,P08,
stim_fb/ques.jpg,stim_fb/negf.jpg,stim_fb/posf.jpg,stim_03/e.jpg,stim_03/f.jpg,2,3,j,2,44,164,52,j,1,0.833126042661,03,02,60.0187314796,PLT_learning_3,B,2014_Feb_17_1350,P08,
stim_fb/ques.jpg,stim_fb/negf.jpg,stim_fb/posf.jpg,stim_03/b.jpg,stim_03/a.jpg,1,1,f,2,45,165,5,f,1,0.649847159044,03,02,60.0187314796,PLT_learning_3,B,2014_Feb_17_1350,P08,
stim_fb/ques.jpg,stim_fb/negf.jpg,stim_fb/posf.jpg,stim_03/f.jpg,stim_03/e.jpg,1,3,f,2,46,166,44,f,1,0.649836301983,03,02,60.0187314796,PLT_learning_3,B,2014_Feb_17_1350,P08,
stim_fb/ques.jpg,stim_fb/posf.jpg,stim_fb/negf.jpg,stim_03/f.jpg,stim_03/e.jpg,1,3,f,2,47,167,48,f,1,0.599842840279,03,02,60.0187314796,PLT_learning_3,B,2014_Feb_17_1350,P08,
stim_fb/ques.jpg,stim_fb/negf.jpg,stim_fb/posf.jpg,stim_03/d.jpg,stim_03/c.jpg,1,2,f,2,48,168,24,j,0,0.799766723559,03,02,60.0187314796,PLT_learning_3,B,2014_Feb_17_1350,P08,
stim_fb/ques.jpg,stim_fb/negf.jpg,stim_fb/posf.jpg,stim_03/d.jpg,stim_03/c.jpg,1,2,f,2,49,169,20,f,1,0.583191052699,03,02,60.0187314796,PLT_learning_3,B,2014_Feb_17_1350,P08,
stim_fb/ques.jpg,stim_fb/posf.jpg,stim_fb/negf.jpg,stim_03/d.jpg,stim_03/c.jpg,1,2,f,2,50,170,28,f,1,0.516561673973,03,02,60.0187314796,PLT_learning_3,B,2014_Feb_17_1350,P08,
stim_fb/ques.jpg,stim_fb/negf.jpg,stim_fb/posf.jpg,stim_03/d.jpg,stim_03/c.jpg,1,2,f,2,51,171,23,f,1,0.499917393102,03,02,60.0187314796,PLT_learning_3,B,2014_Feb_17_1350,P08,
stim_fb/ques.jpg,stim_fb/negf.jpg,stim_fb/posf.jpg,stim_03/a.jpg,stim_03/b.jpg,2,1,j,2,52,172,16,j,1,0.933075459583,03,02,60.0187314796,PLT_learning_3,B,2014_Feb_17_1350,P08,
stim_fb/ques.jpg,stim_fb/negf.jpg,stim_fb/posf.jpg,stim_03/b.jpg,stim_03/a.jpg,1,1,f,2,53,173,7,f,1,0.699821478034,03,02,60.0187314796,PLT_learning_3,B,2014_Feb_17_1350,P08,
stim_fb/ques.jpg,stim_fb/negf.jpg,stim_fb/posf.jpg,stim_03/e.jpg,stim_03/f.jpg,2,3,j,2,54,174,55,j,1,0.866436216269,03,02,60.0187314796,PLT_learning_3,B,2014_Feb_17_1350,P08,
stim_fb/ques.jpg,stim_fb/posf.jpg,stim_fb/negf.jpg,stim_03/b.jpg,stim_03/a.jpg,1,1,f,2,55,175,8,f,1,0.866435353118,03,02,60.0187314796,PLT_learning_3,B,2014_Feb_17_1350,P08,
stim_fb/ques.jpg,stim_fb/negf.jpg,stim_fb/posf.jpg,stim_03/b.jpg,stim_03/a.jpg,1,1,f,2,56,176,3,f,1,0.649825739656,03,02,60.0187314796,PLT_learning_3,B,2014_Feb_17_1350,P08,
stim_fb/ques.jpg,stim_fb/posf.jpg,stim_fb/negf.jpg,stim_03/f.jpg,stim_03/e.jpg,1,3,f,2,57,177,46,f,1,0.766458453696,03,02,60.0187314796,PLT_learning_3,B,2014_Feb_17_1350,P08,
stim_fb/ques.jpg,stim_fb/posf.jpg,stim_fb/negf.jpg,stim_03/e.jpg,stim_03/f.jpg,2,3,j,2,58,178,56,j,1,0.833121128413,03,02,60.0187314796,PLT_learning_3,B,2014_Feb_17_1350,P08,
stim_fb/ques.jpg,stim_fb/negf.jpg,stim_fb/posf.jpg,stim_03/a.jpg,stim_03/b.jpg,2,1,j,2,59,179,15,j,1,0.83304232299,03,02,60.0187314796,PLT_learning_3,B,2014_Feb_17_1350,P08,
stim_fb/ques.jpg,stim_fb/negf.jpg,stim_fb/posf.jpg,stim_03/e.jpg,stim_03/f.jpg,2,3,j,3,0,180,50,j,1,0.783125353945,03,02,60.0187314796,PLT_learning_3,B,2014_Feb_17_1350,P08,
stim_fb/ques.jpg,stim_fb/posf.jpg,stim_fb/negf.jpg,stim_03/f.jpg,stim_03/e.jpg,1,3,f,3,1,181,46,f,1,0.633226444914,03,02,60.0187314796,PLT_learning_3,B,2014_Feb_17_1350,P08,
stim_fb/ques.jpg,stim_fb/posf.jpg,stim_fb/negf.jpg,stim_03/d.jpg,stim_03/c.jpg,1,2,f,3,2,182,29,f,1,0.933067877685,03,02,60.0187314796,PLT_learning_3,B,2014_Feb_17_1350,P08,
stim_fb/ques.jpg,stim_fb/negf.jpg,stim_fb/posf.jpg,stim_03/a.jpg,stim_03/b.jpg,2,1,j,3,3,183,17,j,1,0.716506011233,03,02,60.0187314796,PLT_learning_3,B,2014_Feb_17_1350,P08,
stim_fb/ques.jpg,stim_fb/negf.jpg,stim_fb/posf.jpg,stim_03/a.jpg,stim_03/b.jpg,2,1,j,3,4,184,16,j,1,0.633178860309,03,02,60.0187314796,PLT_learning_3,B,2014_Feb_17_1350,P08,
stim_fb/ques.jpg,stim_fb/negf.jpg,stim_fb/posf.jpg,stim_03/e.jpg,stim_03/f.jpg,2,3,j,3,5,185,51,j,1,0.59984849738,03,02,60.0187314796,PLT_learning_3,B,2014_Feb_17_1350,P08,
stim_fb/ques.jpg,stim_fb/negf.jpg,stim_fb/posf.jpg,stim_03/f.jpg,stim_03/e.jpg,1,3,f,3,6,186,42,f,1,0.567563122082,03,02,60.0187314796,PLT_learning_3,B,2014_Feb_17_1350,P08,
stim_fb/ques.jpg,stim_fb/negf.jpg,stim_fb/posf.jpg,stim_03/c.jpg,stim_03/d.jpg,2,2,j,3,7,187,30,j,1,0.699775249811,03,02,60.0187314796,PLT_learning_3,B,2014_Feb_17_1350,P08,
stim_fb/ques.jpg,stim_fb/posf.jpg,stim_fb/negf.jpg,stim_03/b.jpg,stim_03/a.jpg,1,1,f,3,8,188,8,f,1,0.699821739686,03,02,60.0187314796,PLT_learning_3,B,2014_Feb_17_1350,P08,
stim_fb/ques.jpg,stim_fb/negf.jpg,stim_fb/posf.jpg,stim_03/b.jpg,stim_03/a.jpg,1,1,f,3,9,189,2,f,1,0.899761421343,03,02,60.0187314796,PLT_learning_3,B,2014_Feb_17_1350,P08,
stim_fb/ques.jpg,stim_fb/posf.jpg,stim_fb/negf.jpg,stim_03/f.jpg,stim_03/e.jpg,1,3,f,3,10,190,47,f,1,0.666512871332,03,02,60.0187314796,PLT_learning_3,B,2014_Feb_17_1350,P08,
stim_fb/ques.jpg,stim_fb/negf.jpg,stim_fb/posf.jpg,stim_03/d.jpg,stim_03/c.jpg,1,2,f,3,11,191,24,f,1,0.999728729859,03,02,60.0187314796,PLT_learning_3,B,2014_Feb_17_1350,P08,
stim_fb/ques.jpg,stim_fb/posf.jpg,stim_fb/negf.jpg,stim_03/e.jpg,stim_03/f.jpg,2,3,j,3,12,192,56,j,1,0.699815396877,03,02,60.0187314796,PLT_learning_3,B,2014_Feb_17_1350,P08,
stim_fb/ques.jpg,stim_fb/posf.jpg,stim_fb/negf.jpg,stim_03/e.jpg,stim_03/f.jpg,2,3,j,3,13,193,57,j,1,0.633157101075,03,02,60.0187314796,PLT_learning_3,B,2014_Feb_17_1350,P08,
stim_fb/ques.jpg,stim_fb/negf.jpg,stim_fb/posf.jpg,stim_03/b.jpg,stim_03/a.jpg,1,1,f,3,14,194,6,f,1,0.64980117142,03,02,60.0187314796,PLT_learning_3,B,2014_Feb_17_1350,P08,
stim_fb/ques.jpg,stim_fb/negf.jpg,stim_fb/posf.jpg,stim_03/a.jpg,stim_03/b.jpg,2,1,j,3,15,195,15,j,1,0.616526889271,03,02,60.0187314796,PLT_learning_3,B,2014_Feb_17_1350,P08,
stim_fb/ques.jpg,stim_fb/negf.jpg,stim_fb/posf.jpg,stim_03/b.jpg,stim_03/a.jpg,1,1,f,3,16,196,4,f,1,0.666510369095,03,02,60.0187314796,PLT_learning_3,B,2014_Feb_17_1350,P08,
stim_fb/ques.jpg,stim_fb/negf.jpg,stim_fb/posf.jpg,stim_03/d.jpg,stim_03/c.jpg,1,2,f,3,17,197,23,j,0,0.783117705882,03,02,60.0187314796,PLT_learning_3,B,2014_Feb_17_1350,P08,
stim_fb/ques.jpg,stim_fb/posf.jpg,stim_fb/negf.jpg,stim_03/f.jpg,stim_03/e.jpg,1,3,f,3,18,198,48,f,1,0.666489581281,03,02,60.0187314796,PLT_learning_3,B,2014_Feb_17_1350,P08,
stim_fb/ques.jpg,stim_fb/negf.jpg,stim_fb/posf.jpg,stim_03/e.jpg,stim_03/f.jpg,2,3,j,3,19,199,53,j,1,0.716477533252,03,02,60.0187314796,PLT_learning_3,B,2014_Feb_17_1350,P08,
stim_fb/ques.jpg,stim_fb/negf.jpg,stim_fb/posf.jpg,stim_03/e.jpg,stim_03/f.jpg,2,3,j,3,20,200,55,j,1,0.583190863226,03,02,60.0187314796,PLT_learning_3,B,2014_Feb_17_1350,P08,
stim_fb/ques.jpg,stim_fb/negf.jpg,stim_fb/posf.jpg,stim_03/b.jpg,stim_03/a.jpg,1,1,f,3,21,201,3,f,1,0.666493187269,03,02,60.0187314796,PLT_learning_3,B,2014_Feb_17_1350,P08,
stim_fb/ques.jpg,stim_fb/negf.jpg,stim_fb/posf.jpg,stim_03/d.jpg,stim_03/c.jpg,1,2,f,3,22,202,20,f,1,0.916383717416,03,02,60.0187314796,PLT_learning_3,B,2014_Feb_17_1350,P08,
stim_fb/ques.jpg,stim_fb/posf.jpg,stim_fb/negf.jpg,stim_03/b.jpg,stim_03/a.jpg,1,1,f,3,23,203,9,f,1,0.633167621296,03,02,60.0187314796,PLT_learning_3,B,2014_Feb_17_1350,P08,
stim_fb/ques.jpg,stim_fb/negf.jpg,stim_fb/posf.jpg,stim_03/a.jpg,stim_03/b.jpg,2,1,j,3,24,204,11,j,1,0.883091200818,03,02,60.0187314796,PLT_learning_3,B,2014_Feb_17_1350,P08,
stim_fb/ques.jpg,stim_fb/posf.jpg,stim_fb/negf.jpg,stim_03/f.jpg,stim_03/e.jpg,1,3,f,3,25,205,49,f,1,0.549851571041,03,02,60.0187314796,PLT_learning_3,B,2014_Feb_17_1350,P08,
stim_fb/ques.jpg,stim_fb/negf.jpg,stim_fb/posf.jpg,stim_03/c.jpg,stim_03/d.jpg,2,2,j,3,26,206,35,j,1,0.716479506169,03,02,60.0187314796,PLT_learning_3,B,2014_Feb_17_1350,P08,
stim_fb/ques.jpg,stim_fb/posf.jpg,stim_fb/negf.jpg,stim_03/c.jpg,stim_03/d.jpg,2,2,j,3,27,207,38,j,1,0.933056482282,03,02,60.0187314796,PLT_learning_3,B,2014_Feb_17_1350,P08,
stim_fb/ques.jpg,stim_fb/posf.jpg,stim_fb/negf.jpg,stim_03/c.jpg,stim_03/d.jpg,2,2,j,3,28,208,39,j,1,0.866408054075,03,02,60.0187314796,PLT_learning_3,B,2014_Feb_17_1350,P08,
stim_fb/ques.jpg,stim_fb/negf.jpg,stim_fb/posf.jpg,stim_03/a.jpg,stim_03/b.jpg,2,1,j,3,29,209,12,j,1,0.999708305952,03,02,60.0187314796,PLT_learning_3,B,2014_Feb_17_1350,P08,
stim_fb/ques.jpg,stim_fb/negf.jpg,stim_fb/posf.jpg,stim_03/c.jpg,stim_03/d.jpg,2,2,j,3,30,210,31,j,1,1.19965850783,03,02,60.0187314796,PLT_learning_3,B,2014_Feb_17_1350,P08,
stim_fb/ques.jpg,stim_fb/negf.jpg,stim_fb/posf.jpg,stim_03/a.jpg,stim_03/b.jpg,2,1,j,3,31,211,10,j,1,0.883076927241,03,02,60.0187314796,PLT_learning_3,B,2014_Feb_17_1350,P08,
stim_fb/ques.jpg,stim_fb/negf.jpg,stim_fb/posf.jpg,stim_03/a.jpg,stim_03/b.jpg,2,1,j,3,32,212,13,j,1,0.866430189246,03,02,60.0187314796,PLT_learning_3,B,2014_Feb_17_1350,P08,
stim_fb/ques.jpg,stim_fb/negf.jpg,stim_fb/posf.jpg,stim_03/d.jpg,stim_03/c.jpg,1,2,f,3,33,213,22,f,1,0.866480676085,03,02,60.0187314796,PLT_learning_3,B,2014_Feb_17_1350,P08,
stim_fb/ques.jpg,stim_fb/negf.jpg,stim_fb/posf.jpg,stim_03/c.jpg,stim_03/d.jpg,2,2,j,3,34,214,34,j,1,0.799784867783,03,02,60.0187314796,PLT_learning_3,B,2014_Feb_17_1350,P08,
stim_fb/ques.jpg,stim_fb/negf.jpg,stim_fb/posf.jpg,stim_03/b.jpg,stim_03/a.jpg,1,1,f,3,35,215,0,f,1,0.699824596808,03,02,60.0187314796,PLT_learning_3,B,2014_Feb_17_1350,P08,
stim_fb/ques.jpg,stim_fb/posf.jpg,stim_fb/negf.jpg,stim_03/a.jpg,stim_03/b.jpg,2,1,j,3,36,216,18,j,1,0.733136803482,03,02,60.0187314796,PLT_learning_3,B,2014_Feb_17_1350,P08,
stim_fb/ques.jpg,stim_fb/posf.jpg,stim_fb/negf.jpg,stim_03/d.jpg,stim_03/c.jpg,1,2,f,3,37,217,27,f,1,0.699811769836,03,02,60.0187314796,PLT_learning_3,B,2014_Feb_17_1350,P08,
stim_fb/ques.jpg,stim_fb/negf.jpg,stim_fb/posf.jpg,stim_03/c.jpg,stim_03/d.jpg,2,2,j,3,38,218,33,j,1,1.06637074909,03,02,60.0187314796,PLT_learning_3,B,2014_Feb_17_1350,P08,
stim_fb/ques.jpg,stim_fb/negf.jpg,stim_fb/posf.jpg,stim_03/b.jpg,stim_03/a.jpg,1,1,f,3,39,219,7,f,1,0.916399590981,03,02,60.0187314796,PLT_learning_3,B,2014_Feb_17_1350,P08,
stim_fb/ques.jpg,stim_fb/negf.jpg,stim_fb/posf.jpg,stim_03/f.jpg,stim_03/e.jpg,1,3,f,3,40,220,40,f,1,0.76645713942,03,02,60.0187314796,PLT_learning_3,B,2014_Feb_17_1350,P08,
stim_fb/ques.jpg,stim_fb/negf.jpg,stim_fb/posf.jpg,stim_03/a.jpg,stim_03/b.jpg,2,1,j,3,41,221,14,j,1,0.999720585559,03,02,60.0187314796,PLT_learning_3,B,2014_Feb_17_1350,P08,
stim_fb/ques.jpg,stim_fb/negf.jpg,stim_fb/posf.jpg,stim_03/e.jpg,stim_03/f.jpg,2,3,j,3,42,222,54,j,1,0.83311321569,03,02,60.0187314796,PLT_learning_3,B,2014_Feb_17_1350,P08,
stim_fb/ques.jpg,stim_fb/posf.jpg,stim_fb/negf.jpg,stim_03/e.jpg,stim_03/f.jpg,2,3,j,3,43,223,58,j,1,0.649899802257,03,02,60.0187314796,PLT_learning_3,B,2014_Feb_17_1350,P08,
stim_fb/ques.jpg,stim_fb/posf.jpg,stim_fb/negf.jpg,stim_03/c.jpg,stim_03/d.jpg,2,2,j,3,44,224,37,j,1,0.899756113112,03,02,60.0187314796,PLT_learning_3,B,2014_Feb_17_1350,P08,
stim_fb/ques.jpg,stim_fb/negf.jpg,stim_fb/posf.jpg,stim_03/d.jpg,stim_03/c.jpg,1,2,f,3,45,225,25,f,1,0.749809138277,03,02,60.0187314796,PLT_learning_3,B,2014_Feb_17_1350,P08,
stim_fb/ques.jpg,stim_fb/negf.jpg,stim_fb/posf.jpg,stim_03/c.jpg,stim_03/d.jpg,2,2,j,3,46,226,32,j,1,0.883047835731,03,02,60.0187314796,PLT_learning_3,B,2014_Feb_17_1350,P08,
stim_fb/ques.jpg,stim_fb/negf.jpg,stim_fb/posf.jpg,stim_03/b.jpg,stim_03/a.jpg,1,1,f,3,47,227,5,f,1,1.03304993797,03,02,60.0187314796,PLT_learning_3,B,2014_Feb_17_1350,P08,
stim_fb/ques.jpg,stim_fb/posf.jpg,stim_fb/negf.jpg,stim_03/e.jpg,stim_03/f.jpg,2,3,j,3,48,228,59,j,1,0.7331766498,03,02,60.0187314796,PLT_learning_3,B,2014_Feb_17_1350,P08,
stim_fb/ques.jpg,stim_fb/posf.jpg,stim_fb/negf.jpg,stim_03/d.jpg,stim_03/c.jpg,1,2,f,3,49,229,28,f,1,0.649819378802,03,02,60.0187314796,PLT_learning_3,B,2014_Feb_17_1350,P08,
stim_fb/ques.jpg,stim_fb/negf.jpg,stim_fb/posf.jpg,stim_03/b.jpg,stim_03/a.jpg,1,1,f,3,50,230,1,f,1,0.599786759498,03,02,60.0187314796,PLT_learning_3,B,2014_Feb_17_1350,P08,
stim_fb/ques.jpg,stim_fb/negf.jpg,stim_fb/posf.jpg,stim_03/f.jpg,stim_03/e.jpg,1,3,f,3,51,231,45,f,1,0.616503854858,03,02,60.0187314796,PLT_learning_3,B,2014_Feb_17_1350,P08,
stim_fb/ques.jpg,stim_fb/negf.jpg,stim_fb/posf.jpg,stim_03/f.jpg,stim_03/e.jpg,1,3,f,3,52,232,43,f,1,1.34949616319,03,02,60.0187314796,PLT_learning_3,B,2014_Feb_17_1350,P08,
stim_fb/ques.jpg,stim_fb/posf.jpg,stim_fb/negf.jpg,stim_03/a.jpg,stim_03/b.jpg,2,1,j,3,53,233,19,j,1,1.26625986872,03,02,60.0187314796,PLT_learning_3,B,2014_Feb_17_1350,P08,
stim_fb/ques.jpg,stim_fb/negf.jpg,stim_fb/posf.jpg,stim_03/f.jpg,stim_03/e.jpg,1,3,f,3,54,234,41,f,1,0.866416685589,03,02,60.0187314796,PLT_learning_3,B,2014_Feb_17_1350,P08,
stim_fb/ques.jpg,stim_fb/negf.jpg,stim_fb/posf.jpg,stim_03/f.jpg,stim_03/e.jpg,1,3,f,3,55,235,44,f,1,0.566543977865,03,02,60.0187314796,PLT_learning_3,B,2014_Feb_17_1350,P08,
stim_fb/ques.jpg,stim_fb/negf.jpg,stim_fb/posf.jpg,stim_03/d.jpg,stim_03/c.jpg,1,2,f,3,56,236,21,f,1,0.783119708874,03,02,60.0187314796,PLT_learning_3,B,2014_Feb_17_1350,P08,
stim_fb/ques.jpg,stim_fb/negf.jpg,stim_fb/posf.jpg,stim_03/d.jpg,stim_03/c.jpg,1,2,f,3,57,237,26,f,1,1.18298773994,03,02,60.0187314796,PLT_learning_3,B,2014_Feb_17_1350,P08,
stim_fb/ques.jpg,stim_fb/negf.jpg,stim_fb/posf.jpg,stim_03/c.jpg,stim_03/d.jpg,2,2,j,3,58,238,36,j,1,0.949752973286,03,02,60.0187314796,PLT_learning_3,B,2014_Feb_17_1350,P08,
stim_fb/ques.jpg,stim_fb/negf.jpg,stim_fb/posf.jpg,stim_03/e.jpg,stim_03/f.jpg,2,3,j,3,59,239,52,j,1,0.733178436252,03,02,60.0187314796,PLT_learning_3,B,2014_Feb_17_1350,P08,
stim_fb/ques.jpg,stim_fb/posf.jpg,stim_fb/negf.jpg,stim_03/c.jpg,stim_03/d.jpg,2,2,j,4,0,240,39,j,1,0.916430420824,03,02,60.0187314796,PLT_learning_3,B,2014_Feb_17_1350,P08,
stim_fb/ques.jpg,stim_fb/negf.jpg,stim_fb/posf.jpg,stim_03/a.jpg,stim_03/b.jpg,2,1,j,4,1,241,14,j,1,0.749801057135,03,02,60.0187314796,PLT_learning_3,B,2014_Feb_17_1350,P08,
stim_fb/ques.jpg,stim_fb/posf.jpg,stim_fb/negf.jpg,stim_03/c.jpg,stim_03/d.jpg,2,2,j,4,2,242,37,j,1,0.833112247276,03,02,60.0187314796,PLT_learning_3,B,2014_Feb_17_1350,P08,
stim_fb/ques.jpg,stim_fb/negf.jpg,stim_fb/posf.jpg,stim_03/f.jpg,stim_03/e.jpg,1,3,f,4,3,243,45,f,1,0.616515572064,03,02,60.0187314796,PLT_learning_3,B,2014_Feb_17_1350,P08,
stim_fb/ques.jpg,stim_fb/negf.jpg,stim_fb/posf.jpg,stim_03/a.jpg,stim_03/b.jpg,2,1,j,4,4,244,10,j,1,0.63312890279,03,02,60.0187314796,PLT_learning_3,B,2014_Feb_17_1350,P08,
stim_fb/ques.jpg,stim_fb/negf.jpg,stim_fb/posf.jpg,stim_03/a.jpg,stim_03/b.jpg,2,1,j,4,5,245,16,j,1,0.599889603838,03,02,60.0187314796,PLT_learning_3,B,2014_Feb_17_1350,P08,
stim_fb/ques.jpg,stim_fb/negf.jpg,stim_fb/posf.jpg,stim_03/d.jpg,stim_03/c.jpg,1,2,f,4,6,246,25,f,1,1.13300567966,03,02,60.0187314796,PLT_learning_3,B,2014_Feb_17_1350,P08,
stim_fb/ques.jpg,stim_fb/negf.jpg,stim_fb/posf.jpg,stim_03/b.jpg,stim_03/a.jpg,1,1,f,4,7,247,4,f,1,0.71639004218,03,02,60.0187314796,PLT_learning_3,B,2014_Feb_17_1350,P08,
stim_fb/ques.jpg,stim_fb/posf.jpg,stim_fb/negf.jpg,stim_03/f.jpg,stim_03/e.jpg,1,3,f,4,8,248,49,f,1,0.849747361298,03,02,60.0187314796,PLT_learning_3,B,2014_Feb_17_1350,P08,
stim_fb/ques.jpg,stim_fb/negf.jpg,stim_fb/posf.jpg,stim_03/f.jpg,stim_03/e.jpg,1,3,f,4,9,249,40,j,0,0.616514348013,03,02,60.0187314796,PLT_learning_3,B,2014_Feb_17_1350,P08,
stim_fb/ques.jpg,stim_fb/negf.jpg,stim_fb/posf.jpg,stim_03/c.jpg,stim_03/d.jpg,2,2,j,4,10,250,31,f,0,1.46621712919,03,02,60.0187314796,PLT_learning_3,B,2014_Feb_17_1350,P08,
stim_fb/ques.jpg,stim_fb/negf.jpg,stim_fb/posf.jpg,stim_03/c.jpg,stim_03/d.jpg,2,2,j,4,11,251,30,j,1,0.766438625274,03,02,60.0187314796,PLT_learning_3,B,2014_Feb_17_1350,P08,
stim_fb/ques.jpg,stim_fb/posf.jpg,stim_fb/negf.jpg,stim_03/c.jpg,stim_03/d.jpg,2,2,j,4,12,252,38,f,0,0.68317238517,03,02,60.0187314796,PLT_learning_3,B,2014_Feb_17_1350,P08,
stim_fb/ques.jpg,stim_fb/posf.jpg,stim_fb/negf.jpg,stim_03/e.jpg,stim_03/f.jpg,2,3,j,4,13,253,56,j,1,1.03302265396,03,02,60.0187314796,PLT_learning_3,B,2014_Feb_17_1350,P08,
stim_fb/ques.jpg,stim_fb/negf.jpg,stim_fb/posf.jpg,stim_03/c.jpg,stim_03/d.jpg,2,2,j,4,14,254,32,j,1,1.38291983068,03,02,60.0187314796,PLT_learning_3,B,2014_Feb_17_1350,P08,
stim_fb/ques.jpg,stim_fb/negf.jpg,stim_fb/posf.jpg,stim_03/d.jpg,stim_03/c.jpg,1,2,f,4,15,255,22,j,0,1.68280821046,03,02,60.0187314796,PLT_learning_3,B,2014_Feb_17_1350,P08,
stim_fb/ques.jpg,stim_fb/negf.jpg,stim_fb/posf.jpg,stim_03/f.jpg,stim_03/e.jpg,1,3,f,4,16,256,41,j,0,1.6495127796,03,02,60.0187314796,PLT_learning_3,B,2014_Feb_17_1350,P08,
stim_fb/ques.jpg,stim_fb/negf.jpg,stim_fb/posf.jpg,stim_03/c.jpg,stim_03/d.jpg,2,2,j,4,17,257,35,j,1,0.916391548936,03,02,60.0187314796,PLT_learning_3,B,2014_Feb_17_1350,P08,
stim_fb/ques.jpg,stim_fb/posf.jpg,stim_fb/negf.jpg,stim_03/a.jpg,stim_03/b.jpg,2,1,j,4,18,258,19,j,1,1.04971266081,03,02,60.0187314796,PLT_learning_3,B,2014_Feb_17_1350,P08,
stim_fb/ques.jpg,stim_fb/negf.jpg,stim_fb/posf.jpg,stim_03/b.jpg,stim_03/a.jpg,1,1,f,4,19,259,7,f,1,0.716453578545,03,02,60.0187314796,PLT_learning_3,B,2014_Feb_17_1350,P08,
stim_fb/ques.jpg,stim_fb/negf.jpg,stim_fb/posf.jpg,stim_03/f.jpg,stim_03/e.jpg,1,3,f,4,20,260,43,j,0,0.966372502462,03,02,60.0187314796,PLT_learning_3,B,2014_Feb_17_1350,P08,
stim_fb/ques.jpg,stim_fb/negf.jpg,stim_fb/posf.jpg,stim_03/f.jpg,stim_03/e.jpg,1,3,f,4,21,261,42,f,1,0.583201479688,03,02,60.0187314796,PLT_learning_3,B,2014_Feb_17_1350,P08,
stim_fb/ques.jpg,stim_fb/posf.jpg,stim_fb/negf.jpg,stim_03/f.jpg,stim_03/e.jpg,1,3,f,4,22,262,48,j,0,0.783121501342,03,02,60.0187314796,PLT_learning_3,B,2014_Feb_17_1350,P08,
stim_fb/ques.jpg,stim_fb/negf.jpg,stim_fb/posf.jpg,stim_03/e.jpg,stim_03/f.jpg,2,3,j,4,23,263,54,f,0,1.48283049902,03,02,60.0187314796,PLT_learning_3,B,2014_Feb_17_1350,P08,
stim_fb/ques.jpg,stim_fb/negf.jpg,stim_fb/posf.jpg,stim_03/b.jpg,stim_03/a.jpg,1,1,f,4,24,264,6,f,1,0.783113862302,03,02,60.0187314796,PLT_learning_3,B,2014_Feb_17_1350,P08,
stim_fb/ques.jpg,stim_fb/negf.jpg,stim_fb/posf.jpg,stim_03/a.jpg,stim_03/b.jpg,2,1,j,4,25,265,17,j,1,0.666499403764,03,02,60.0187314796,PLT_learning_3,B,2014_Feb_17_1350,P08,
stim_fb/ques.jpg,stim_fb/posf.jpg,stim_fb/negf.jpg,stim_03/b.jpg,stim_03/a.jpg,1,1,f,4,26,266,8,f,1,0.649825562214,03,02,60.0187314796,PLT_learning_3,B,2014_Feb_17_1350,P08,
stim_fb/ques.jpg,stim_fb/posf.jpg,stim_fb/negf.jpg,stim_03/e.jpg,stim_03/f.jpg,2,3,j,4,27,267,58,j,1,0.599864882219,03,02,60.0187314796,PLT_learning_3,B,2014_Feb_17_1350,P08,
stim_fb/ques.jpg,stim_fb/posf.jpg,stim_fb/negf.jpg,stim_03/d.jpg,stim_03/c.jpg,1,2,f,4,28,268,27,f,1,0.883068864144,03,02,60.0187314796,PLT_learning_3,B,2014_Feb_17_1350,P08,
stim_fb/ques.jpg,stim_fb/posf.jpg,stim_fb/negf.jpg,stim_03/d.jpg,stim_03/c.jpg,1,2,f,4,29,269,28,j,0,0.666468940835,03,02,60.0187314796,PLT_learning_3,B,2014_Feb_17_1350,P08,
stim_fb/ques.jpg,stim_fb/posf.jpg,stim_fb/negf.jpg,stim_03/d.jpg,stim_03/c.jpg,1,2,f,4,30,270,29,f,1,0.79975364095,03,02,60.0187314796,PLT_learning_3,B,2014_Feb_17_1350,P08,
stim_fb/ques.jpg,stim_fb/negf.jpg,stim_fb/posf.jpg,stim_03/b.jpg,stim_03/a.jpg,1,1,f,4,31,271,3,None,0,,03,02,60.0187314796,PLT_learning_3,B,2014_Feb_17_1350,P08,
stim_fb/ques.jpg,stim_fb/negf.jpg,stim_fb/posf.jpg,stim_03/d.jpg,stim_03/c.jpg,1,2,f,4,32,272,23,f,1,0.616523265239,03,02,60.0187314796,PLT_learning_3,B,2014_Feb_17_1350,P08,
stim_fb/ques.jpg,stim_fb/negf.jpg,stim_fb/posf.jpg,stim_03/c.jpg,stim_03/d.jpg,2,2,j,4,33,273,34,j,1,0.783100972173,03,02,60.0187314796,PLT_learning_3,B,2014_Feb_17_1350,P08,
stim_fb/ques.jpg,stim_fb/posf.jpg,stim_fb/negf.jpg,stim_03/b.jpg,stim_03/a.jpg,1,1,f,4,34,274,9,f,1,0.64981530966,03,02,60.0187314796,PLT_learning_3,B,2014_Feb_17_1350,P08,
stim_fb/ques.jpg,stim_fb/negf.jpg,stim_fb/posf.jpg,stim_03/b.jpg,stim_03/a.jpg,1,1,f,4,35,275,0,f,1,0.66649686243,03,02,60.0187314796,PLT_learning_3,B,2014_Feb_17_1350,P08,
stim_fb/ques.jpg,stim_fb/negf.jpg,stim_fb/posf.jpg,stim_03/f.jpg,stim_03/e.jpg,1,3,f,4,36,276,44,f,1,0.849754558236,03,02,60.0187314796,PLT_learning_3,B,2014_Feb_17_1350,P08,
stim_fb/ques.jpg,stim_fb/negf.jpg,stim_fb/posf.jpg,stim_03/a.jpg,stim_03/b.jpg,2,1,j,4,37,277,15,j,1,0.749810260073,03,02,60.0187314796,PLT_learning_3,B,2014_Feb_17_1350,P08,
stim_fb/ques.jpg,stim_fb/negf.jpg,stim_fb/posf.jpg,stim_03/c.jpg,stim_03/d.jpg,2,2,j,4,38,278,33,j,1,1.19966314539,03,02,60.0187314796,PLT_learning_3,B,2014_Feb_17_1350,P08,
stim_fb/ques.jpg,stim_fb/negf.jpg,stim_fb/posf.jpg,stim_03/d.jpg,stim_03/c.jpg,1,2,f,4,39,279,26,f,1,0.983170412253,03,02,60.0187314796,PLT_learning_3,B,2014_Feb_17_1350,P08,
stim_fb/ques.jpg,stim_fb/negf.jpg,stim_fb/posf.jpg,stim_03/d.jpg,stim_03/c.jpg,1,2,f,4,40,280,21,j,0,0.766476062586,03,02,60.0187314796,PLT_learning_3,B,2014_Feb_17_1350,P08,
stim_fb/ques.jpg,stim_fb/negf.jpg,stim_fb/posf.jpg,stim_03/c.jpg,stim_03/d.jpg,2,2,j,4,41,281,36,j,1,1.14968679333,03,02,60.0187314796,PLT_learning_3,B,2014_Feb_17_1350,P08,
stim_fb/ques.jpg,stim_fb/negf.jpg,stim_fb/posf.jpg,stim_03/a.jpg,stim_03/b.jpg,2,1,j,4,42,282,11,j,1,1.23298841061,03,02,60.0187314796,PLT_learning_3,B,2014_Feb_17_1350,P08,
stim_fb/ques.jpg,stim_fb/negf.jpg,stim_fb/posf.jpg,stim_03/b.jpg,stim_03/a.jpg,1,1,f,4,43,283,2,f,1,0.733118923918,03,02,60.0187314796,PLT_learning_3,B,2014_Feb_17_1350,P08,
stim_fb/ques.jpg,stim_fb/posf.jpg,stim_fb/negf.jpg,stim_03/f.jpg,stim_03/e.jpg,1,3,f,4,44,284,47,f,1,1.11638675799,03,02,60.0187314796,PLT_learning_3,B,2014_Feb_17_1350,P08,
stim_fb/ques.jpg,stim_fb/negf.jpg,stim_fb/posf.jpg,stim_03/e.jpg,stim_03/f.jpg,2,3,j,4,45,285,52,j,1,1.38291355103,03,02,60.0187314796,PLT_learning_3,B,2014_Feb_17_1350,P08,
stim_fb/ques.jpg,stim_fb/posf.jpg,stim_fb/negf.jpg,stim_03/f.jpg,stim_03/e.jpg,1,3,f,4,46,286,46,f,1,0.916401461644,03,02,60.0187314796,PLT_learning_3,B,2014_Feb_17_1350,P08,
stim_fb/ques.jpg,stim_fb/negf.jpg,stim_fb/posf.jpg,stim_03/e.jpg,stim_03/f.jpg,2,3,j,4,47,287,51,j,1,0.666438589184,03,02,60.0187314796,PLT_learning_3,B,2014_Feb_17_1350,P08,
stim_fb/ques.jpg,stim_fb/posf.jpg,stim_fb/negf.jpg,stim_03/e.jpg,stim_03/f.jpg,2,3,j,4,48,288,59,j,1,0.599898490988,03,02,60.0187314796,PLT_learning_3,B,2014_Feb_17_1350,P08,
stim_fb/ques.jpg,stim_fb/negf.jpg,stim_fb/posf.jpg,stim_03/d.jpg,stim_03/c.jpg,1,2,f,4,49,289,24,f,1,0.999660366464,03,02,60.0187314796,PLT_learning_3,B,2014_Feb_17_1350,P08,
stim_fb/ques.jpg,stim_fb/negf.jpg,stim_fb/posf.jpg,stim_03/d.jpg,stim_03/c.jpg,1,2,f,4,50,290,20,f,1,0.849779589627,03,02,60.0187314796,PLT_learning_3,B,2014_Feb_17_1350,P08,
stim_fb/ques.jpg,stim_fb/negf.jpg,stim_fb/posf.jpg,stim_03/e.jpg,stim_03/f.jpg,2,3,j,4,51,291,55,j,1,0.933140989917,03,02,60.0187314796,PLT_learning_3,B,2014_Feb_17_1350,P08,
stim_fb/ques.jpg,stim_fb/negf.jpg,stim_fb/posf.jpg,stim_03/b.jpg,stim_03/a.jpg,1,1,f,4,52,292,5,f,1,0.816443777115,03,02,60.0187314796,PLT_learning_3,B,2014_Feb_17_1350,P08,
stim_fb/ques.jpg,stim_fb/negf.jpg,stim_fb/posf.jpg,stim_03/e.jpg,stim_03/f.jpg,2,3,j,4,53,293,53,j,1,0.749851417659,03,02,60.0187314796,PLT_learning_3,B,2014_Feb_17_1350,P08,
stim_fb/ques.jpg,stim_fb/negf.jpg,stim_fb/posf.jpg,stim_03/b.jpg,stim_03/a.jpg,1,1,f,4,54,294,1,f,1,0.633153434937,03,02,60.0187314796,PLT_learning_3,B,2014_Feb_17_1350,P08,
stim_fb/ques.jpg,stim_fb/negf.jpg,stim_fb/posf.jpg,stim_03/e.jpg,stim_03/f.jpg,2,3,j,4,55,295,50,f,0,0.716451590589,03,02,60.0187314796,PLT_learning_3,B,2014_Feb_17_1350,P08,
stim_fb/ques.jpg,stim_fb/posf.jpg,stim_fb/negf.jpg,stim_03/e.jpg,stim_03/f.jpg,2,3,j,4,56,296,57,j,1,0.949744831994,03,02,60.0187314796,PLT_learning_3,B,2014_Feb_17_1350,P08,
stim_fb/ques.jpg,stim_fb/posf.jpg,stim_fb/negf.jpg,stim_03/a.jpg,stim_03/b.jpg,2,1,j,4,57,297,18,j,1,0.74979928572,03,02,60.0187314796,PLT_learning_3,B,2014_Feb_17_1350,P08,
stim_fb/ques.jpg,stim_fb/negf.jpg,stim_fb/posf.jpg,stim_03/a.jpg,stim_03/b.jpg,2,1,j,4,58,298,12,j,1,0.683158673995,03,02,60.0187314796,PLT_learning_3,B,2014_Feb_17_1350,P08,
stim_fb/ques.jpg,stim_fb/negf.jpg,stim_fb/posf.jpg,stim_03/a.jpg,stim_03/b.jpg,2,1,j,4,59,299,13,j,1,0.583138833542,03,02,60.0187314796,PLT_learning_3,B,2014_Feb_17_1350,P08,
stim_fb/ques.jpg,stim_fb/posf.jpg,stim_fb/negf.jpg,stim_03/e.jpg,stim_03/f.jpg,2,3,j,5,0,300,59,j,1,0.699797763927,03,02,60.0187314796,PLT_learning_3,B,2014_Feb_17_1350,P08,
stim_fb/ques.jpg,stim_fb/negf.jpg,stim_fb/posf.jpg,stim_03/d.jpg,stim_03/c.jpg,1,2,f,5,1,301,26,f,1,1.1829995203,03,02,60.0187314796,PLT_learning_3,B,2014_Feb_17_1350,P08,
stim_fb/ques.jpg,stim_fb/negf.jpg,stim_fb/posf.jpg,stim_03/d.jpg,stim_03/c.jpg,1,2,f,5,2,302,20,f,1,1.08299668424,03,02,60.0187314796,PLT_learning_3,B,2014_Feb_17_1350,P08,
stim_fb/ques.jpg,stim_fb/negf.jpg,stim_fb/posf.jpg,stim_03/b.jpg,stim_03/a.jpg,1,1,f,5,3,303,5,f,1,0.716487265509,03,02,60.0187314796,PLT_learning_3,B,2014_Feb_17_1350,P08,
stim_fb/ques.jpg,stim_fb/negf.jpg,stim_fb/posf.jpg,stim_03/d.jpg,stim_03/c.jpg,1,2,f,5,4,304,24,f,1,0.700113493883,03,02,60.0187314796,PLT_learning_3,B,2014_Feb_17_1350,P08,
stim_fb/ques.jpg,stim_fb/negf.jpg,stim_fb/posf.jpg,stim_03/a.jpg,stim_03/b.jpg,2,1,j,5,5,305,12,j,1,1.16633791024,03,02,60.0187314796,PLT_learning_3,B,2014_Feb_17_1350,P08,
stim_fb/ques.jpg,stim_fb/negf.jpg,stim_fb/posf.jpg,stim_03/f.jpg,stim_03/e.jpg,1,3,f,5,6,306,42,f,1,0.666445142518,03,02,60.0187314796,PLT_learning_3,B,2014_Feb_17_1350,P08,
stim_fb/ques.jpg,stim_fb/negf.jpg,stim_fb/posf.jpg,stim_03/a.jpg,stim_03/b.jpg,2,1,j,5,7,307,17,j,1,0.716493845911,03,02,60.0187314796,PLT_learning_3,B,2014_Feb_17_1350,P08,
stim_fb/ques.jpg,stim_fb/posf.jpg,stim_fb/negf.jpg,stim_03/d.jpg,stim_03/c.jpg,1,2,f,5,8,308,28,f,1,0.683115239735,03,02,60.0187314796,PLT_learning_3,B,2014_Feb_17_1350,P08,
stim_fb/ques.jpg,stim_fb/posf.jpg,stim_fb/negf.jpg,stim_03/c.jpg,stim_03/d.jpg,2,2,j,5,9,309,37,j,1,0.749815640484,03,02,60.0187314796,PLT_learning_3,B,2014_Feb_17_1350,P08,
stim_fb/ques.jpg,stim_fb/negf.jpg,stim_fb/posf.jpg,stim_03/f.jpg,stim_03/e.jpg,1,3,f,5,10,310,41,f,1,0.699867501748,03,02,60.0187314796,PLT_learning_3,B,2014_Feb_17_1350,P08,
stim_fb/ques.jpg,stim_fb/negf.jpg,stim_fb/posf.jpg,stim_03/b.jpg,stim_03/a.jpg,1,1,f,5,11,311,0,f,1,0.816424475004,03,02,60.0187314796,PLT_learning_3,B,2014_Feb_17_1350,P08,
stim_fb/ques.jpg,stim_fb/posf.jpg,stim_fb/negf.jpg,stim_03/f.jpg,stim_03/e.jpg,1,3,f,5,12,312,49,f,1,0.66649273013,03,02,60.0187314796,PLT_learning_3,B,2014_Feb_17_1350,P08,
stim_fb/ques.jpg,stim_fb/negf.jpg,stim_fb/posf.jpg,stim_03/f.jpg,stim_03/e.jpg,1,3,f,5,13,313,43,f,1,0.84976321381,03,02,60.0187314796,PLT_learning_3,B,2014_Feb_17_1350,P08,
stim_fb/ques.jpg,stim_fb/negf.jpg,stim_fb/posf.jpg,stim_03/a.jpg,stim_03/b.jpg,2,1,j,5,14,314,13,j,1,0.699812675093,03,02,60.0187314796,PLT_learning_3,B,2014_Feb_17_1350,P08,
stim_fb/ques.jpg,stim_fb/negf.jpg,stim_fb/posf.jpg,stim_03/f.jpg,stim_03/e.jpg,1,3,f,5,15,315,40,f,1,0.599844641769,03,02,60.0187314796,PLT_learning_3,B,2014_Feb_17_1350,P08,
stim_fb/ques.jpg,stim_fb/negf.jpg,stim_fb/posf.jpg,stim_03/a.jpg,stim_03/b.jpg,2,1,j,5,16,316,11,j,1,0.599906024766,03,02,60.0187314796,PLT_learning_3,B,2014_Feb_17_1350,P08,
stim_fb/ques.jpg,stim_fb/posf.jpg,stim_fb/negf.jpg,stim_03/a.jpg,stim_03/b.jpg,2,1,j,5,17,317,18,j,1,0.683149341734,03,02,60.0187314796,PLT_learning_3,B,2014_Feb_17_1350,P08,
stim_fb/ques.jpg,stim_fb/posf.jpg,stim_fb/negf.jpg,stim_03/b.jpg,stim_03/a.jpg,1,1,f,5,18,318,9,f,1,0.533177897911,03,02,60.0187314796,PLT_learning_3,B,2014_Feb_17_1350,P08,
stim_fb/ques.jpg,stim_fb/negf.jpg,stim_fb/posf.jpg,stim_03/e.jpg,stim_03/f.jpg,2,3,j,5,19,319,54,j,1,0.716370481425,03,02,60.0187314796,PLT_learning_3,B,2014_Feb_17_1350,P08,
stim_fb/ques.jpg,stim_fb/negf.jpg,stim_fb/posf.jpg,stim_03/b.jpg,stim_03/a.jpg,1,1,f,5,20,320,2,f,1,0.616498657905,03,02,60.0187314796,PLT_learning_3,B,2014_Feb_17_1350,P08,
stim_fb/ques.jpg,stim_fb/negf.jpg,stim_fb/posf.jpg,stim_03/a.jpg,stim_03/b.jpg,2,1,j,5,21,321,14,j,1,0.56653983955,03,02,60.0187314796,PLT_learning_3,B,2014_Feb_17_1350,P08,
stim_fb/ques.jpg,stim_fb/negf.jpg,stim_fb/posf.jpg,stim_03/b.jpg,stim_03/a.jpg,1,1,f,5,22,322,3,f,1,0.583196309802,03,02,60.0187314796,PLT_learning_3,B,2014_Feb_17_1350,P08,
stim_fb/ques.jpg,stim_fb/negf.jpg,stim_fb/posf.jpg,stim_03/e.jpg,stim_03/f.jpg,2,3,j,5,23,323,50,j,1,0.616506937542,03,02,60.0187314796,PLT_learning_3,B,2014_Feb_17_1350,P08,
stim_fb/ques.jpg,stim_fb/negf.jpg,stim_fb/posf.jpg,stim_03/c.jpg,stim_03/d.jpg,2,2,j,5,24,324,31,j,1,0.716516829197,03,02,60.0187314796,PLT_learning_3,B,2014_Feb_17_1350,P08,
stim_fb/ques.jpg,stim_fb/negf.jpg,stim_fb/posf.jpg,stim_03/e.jpg,stim_03/f.jpg,2,3,j,5,25,325,51,j,1,0.649833417794,03,02,60.0187314796,PLT_learning_3,B,2014_Feb_17_1350,P08,
stim_fb/ques.jpg,stim_fb/posf.jpg,stim_fb/negf.jpg,stim_03/c.jpg,stim_03/d.jpg,2,2,j,5,26,326,39,j,1,0.783128298283,03,02,60.0187314796,PLT_learning_3,B,2014_Feb_17_1350,P08,
stim_fb/ques.jpg,stim_fb/posf.jpg,stim_fb/negf.jpg,stim_03/c.jpg,stim_03/d.jpg,2,2,j,5,27,327,38,f,0,0.68316839723,03,02,60.0187314796,PLT_learning_3,B,2014_Feb_17_1350,P08,
stim_fb/ques.jpg,stim_fb/posf.jpg,stim_fb/negf.jpg,stim_03/a.jpg,stim_03/b.jpg,2,1,j,5,28,328,19,j,1,0.833095681987,03,02,60.0187314796,PLT_learning_3,B,2014_Feb_17_1350,P08,
stim_fb/ques.jpg,stim_fb/negf.jpg,stim_fb/posf.jpg,stim_03/e.jpg,stim_03/f.jpg,2,3,j,5,29,329,55,j,1,1.01637723025,03,02,60.0187314796,PLT_learning_3,B,2014_Feb_17_1350,P08,
stim_fb/ques.jpg,stim_fb/negf.jpg,stim_fb/posf.jpg,stim_03/b.jpg,stim_03/a.jpg,1,1,f,5,30,330,6,f,1,0.633166731077,03,02,60.0187314796,PLT_learning_3,B,2014_Feb_17_1350,P08,
stim_fb/ques.jpg,stim_fb/posf.jpg,stim_fb/negf.jpg,stim_03/e.jpg,stim_03/f.jpg,2,3,j,5,31,331,57,j,1,0.64984078616,03,02,60.0187314796,PLT_learning_3,B,2014_Feb_17_1350,P08,
stim_fb/ques.jpg,stim_fb/posf.jpg,stim_fb/negf.jpg,stim_03/d.jpg,stim_03/c.jpg,1,2,f,5,32,332,27,f,1,0.799762452914,03,02,60.0187314796,PLT_learning_3,B,2014_Feb_17_1350,P08,
stim_fb/ques.jpg,stim_fb/negf.jpg,stim_fb/posf.jpg,stim_03/c.jpg,stim_03/d.jpg,2,2,j,5,33,333,36,j,1,0.866423485538,03,02,60.0187314796,PLT_learning_3,B,2014_Feb_17_1350,P08,
stim_fb/ques.jpg,stim_fb/negf.jpg,stim_fb/posf.jpg,stim_03/f.jpg,stim_03/e.jpg,1,3,f,5,34,334,44,f,1,0.616513346516,03,02,60.0187314796,PLT_learning_3,B,2014_Feb_17_1350,P08,
stim_fb/ques.jpg,stim_fb/negf.jpg,stim_fb/posf.jpg,stim_03/c.jpg,stim_03/d.jpg,2,2,j,5,35,335,34,j,1,0.599841802693,03,02,60.0187314796,PLT_learning_3,B,2014_Feb_17_1350,P08,
stim_fb/ques.jpg,stim_fb/negf.jpg,stim_fb/posf.jpg,stim_03/a.jpg,stim_03/b.jpg,2,1,j,5,36,336,15,f,0,0.599854783047,03,02,60.0187314796,PLT_learning_3,B,2014_Feb_17_1350,P08,
stim_fb/ques.jpg,stim_fb/posf.jpg,stim_fb/negf.jpg,stim_03/e.jpg,stim_03/f.jpg,2,3,j,5,37,337,58,j,1,0.733145552289,03,02,60.0187314796,PLT_learning_3,B,2014_Feb_17_1350,P08,
stim_fb/ques.jpg,stim_fb/posf.jpg,stim_fb/negf.jpg,stim_03/d.jpg,stim_03/c.jpg,1,2,f,5,38,338,29,j,0,1.0330485876,03,02,60.0187314796,PLT_learning_3,B,2014_Feb_17_1350,P08,
stim_fb/ques.jpg,stim_fb/negf.jpg,stim_fb/posf.jpg,stim_03/c.jpg,stim_03/d.jpg,2,2,j,5,39,339,30,j,1,0.88306820851,03,02,60.0187314796,PLT_learning_3,B,2014_Feb_17_1350,P08,
stim_fb/ques.jpg,stim_fb/negf.jpg,stim_fb/posf.jpg,stim_03/d.jpg,stim_03/c.jpg,1,2,f,5,40,340,22,f,1,0.949740904204,03,02,60.0187314796,PLT_learning_3,B,2014_Feb_17_1350,P08,
stim_fb/ques.jpg,stim_fb/negf.jpg,stim_fb/posf.jpg,stim_03/d.jpg,stim_03/c.jpg,1,2,f,5,41,341,25,f,1,0.733155810859,03,02,60.0187314796,PLT_learning_3,B,2014_Feb_17_1350,P08,
stim_fb/ques.jpg,stim_fb/negf.jpg,stim_fb/posf.jpg,stim_03/b.jpg,stim_03/a.jpg,1,1,f,5,42,342,7,f,1,0.683175040789,03,02,60.0187314796,PLT_learning_3,B,2014_Feb_17_1350,P08,
stim_fb/ques.jpg,stim_fb/posf.jpg,stim_fb/negf.jpg,stim_03/f.jpg,stim_03/e.jpg,1,3,f,5,43,343,47,f,1,0.583255142442,03,02,60.0187314796,PLT_learning_3,B,2014_Feb_17_1350,P08,
stim_fb/ques.jpg,stim_fb/negf.jpg,stim_fb/posf.jpg,stim_03/b.jpg,stim_03/a.jpg,1,1,f,5,44,344,1,f,1,0.566567000248,03,02,60.0187314796,PLT_learning_3,B,2014_Feb_17_1350,P08,
stim_fb/ques.jpg,stim_fb/negf.jpg,stim_fb/posf.jpg,stim_03/e.jpg,stim_03/f.jpg,2,3,j,5,45,345,53,j,1,0.616478790385,03,02,60.0187314796,PLT_learning_3,B,2014_Feb_17_1350,P08,
stim_fb/ques.jpg,stim_fb/negf.jpg,stim_fb/posf.jpg,stim_03/d.jpg,stim_03/c.jpg,1,2,f,5,46,346,23,f,1,0.783161717581,03,02,60.0187314796,PLT_learning_3,B,2014_Feb_17_1350,P08,
stim_fb/ques.jpg,stim_fb/posf.jpg,stim_fb/negf.jpg,stim_03/f.jpg,stim_03/e.jpg,1,3,f,5,47,347,46,f,1,0.549873197946,03,02,60.0187314796,PLT_learning_3,B,2014_Feb_17_1350,P08,
stim_fb/ques.jpg,stim_fb/posf.jpg,stim_fb/negf.jpg,stim_03/f.jpg,stim_03/e.jpg,1,3,f,5,48,348,48,f,1,0.583209915715,03,02,60.0187314796,PLT_learning_3,B,2014_Feb_17_1350,P08,
stim_fb/ques.jpg,stim_fb/negf.jpg,stim_fb/posf.jpg,stim_03/c.jpg,stim_03/d.jpg,2,2,j,5,49,349,33,j,1,0.699788705348,03,02,60.0187314796,PLT_learning_3,B,2014_Feb_17_1350,P08,
stim_fb/ques.jpg,stim_fb/negf.jpg,stim_fb/posf.jpg,stim_03/e.jpg,stim_03/f.jpg,2,3,j,5,50,350,52,j,1,0.83314270419,03,02,60.0187314796,PLT_learning_3,B,2014_Feb_17_1350,P08,
stim_fb/ques.jpg,stim_fb/negf.jpg,stim_fb/posf.jpg,stim_03/d.jpg,stim_03/c.jpg,1,2,f,5,51,351,21,f,1,0.633059083767,03,02,60.0187314796,PLT_learning_3,B,2014_Feb_17_1350,P08,
stim_fb/ques.jpg,stim_fb/negf.jpg,stim_fb/posf.jpg,stim_03/a.jpg,stim_03/b.jpg,2,1,j,5,52,352,10,f,0,0.949743159826,03,02,60.0187314796,PLT_learning_3,B,2014_Feb_17_1350,P08,
stim_fb/ques.jpg,stim_fb/posf.jpg,stim_fb/negf.jpg,stim_03/e.jpg,stim_03/f.jpg,2,3,j,5,53,353,56,f,0,1.2663064007,03,02,60.0187314796,PLT_learning_3,B,2014_Feb_17_1350,P08,
stim_fb/ques.jpg,stim_fb/negf.jpg,stim_fb/posf.jpg,stim_03/b.jpg,stim_03/a.jpg,1,1,f,5,54,354,4,f,1,0.666551087586,03,02,60.0187314796,PLT_learning_3,B,2014_Feb_17_1350,P08,
stim_fb/ques.jpg,stim_fb/posf.jpg,stim_fb/negf.jpg,stim_03/b.jpg,stim_03/a.jpg,1,1,f,5,55,355,8,f,1,0.633181888858,03,02,60.0187314796,PLT_learning_3,B,2014_Feb_17_1350,P08,
stim_fb/ques.jpg,stim_fb/negf.jpg,stim_fb/posf.jpg,stim_03/c.jpg,stim_03/d.jpg,2,2,j,5,56,356,32,j,1,0.699806287171,03,02,60.0187314796,PLT_learning_3,B,2014_Feb_17_1350,P08,
stim_fb/ques.jpg,stim_fb/negf.jpg,stim_fb/posf.jpg,stim_03/a.jpg,stim_03/b.jpg,2,1,j,5,57,357,16,f,0,0.749811613447,03,02,60.0187314796,PLT_learning_3,B,2014_Feb_17_1350,P08,
stim_fb/ques.jpg,stim_fb/negf.jpg,stim_fb/posf.jpg,stim_03/c.jpg,stim_03/d.jpg,2,2,j,5,58,358,35,j,1,0.766512970579,03,02,60.0187314796,PLT_learning_3,B,2014_Feb_17_1350,P08,
stim_fb/ques.jpg,stim_fb/negf.jpg,stim_fb/posf.jpg,stim_03/f.jpg,stim_03/e.jpg,1,3,f,5,59,359,45,f,1,0.666495349659,03,02,60.0187314796,PLT_learning_3,B,2014_Feb_17_1350,P08,
