Fb3,Fb2,Fb1,Symbol2,Symbol1,PosCond,Pair,Correct,trials.thisRepN,trials.thisTrialN,trials.thisN,trials.thisIndex,Response.keys,Response.corr,Response.rt,Version,Session Number,frameRate,expName,StimCondition,date,Participant,
stim_fb/ques.jpg,stim_fb/negf.jpg,stim_fb/posf.jpg,stim_02/c.jpg,stim_02/d.jpg,2,2,j,0,0,0,36,f,0,1.06638542272,02,03,60.0167167684,PLT_learning_02,B,2014_Apr_02_1350,P09,
stim_fb/ques.jpg,stim_fb/negf.jpg,stim_fb/posf.jpg,stim_02/e.jpg,stim_02/f.jpg,2,3,j,0,1,1,50,f,0,1.01636705451,02,03,60.0167167684,PLT_learning_02,B,2014_Apr_02_1350,P09,
stim_fb/ques.jpg,stim_fb/negf.jpg,stim_fb/posf.jpg,stim_02/d.jpg,stim_02/c.jpg,1,2,f,0,2,2,23,f,1,1.2329944369,02,03,60.0167167684,PLT_learning_02,B,2014_Apr_02_1350,P09,
stim_fb/ques.jpg,stim_fb/negf.jpg,stim_fb/posf.jpg,stim_02/d.jpg,stim_02/c.jpg,1,2,f,0,3,3,26,f,1,1.03304501979,02,03,60.0167167684,PLT_learning_02,B,2014_Apr_02_1350,P09,
stim_fb/ques.jpg,stim_fb/negf.jpg,stim_fb/posf.jpg,stim_02/b.jpg,stim_02/a.jpg,1,1,f,0,4,4,6,j,0,0.833069807483,02,03,60.0167167684,PLT_learning_02,B,2014_Apr_02_1350,P09,
stim_fb/ques.jpg,stim_fb/posf.jpg,stim_fb/negf.jpg,stim_02/d.jpg,stim_02/c.jpg,1,2,f,0,5,5,29,f,1,0.849766491356,02,03,60.0167167684,PLT_learning_02,B,2014_Apr_02_1350,P09,
stim_fb/ques.jpg,stim_fb/negf.jpg,stim_fb/posf.jpg,stim_02/d.jpg,stim_02/c.jpg,1,2,f,0,6,6,22,f,1,0.766493821498,02,03,60.0167167684,PLT_learning_02,B,2014_Apr_02_1350,P09,
stim_fb/ques.jpg,stim_fb/negf.jpg,stim_fb/posf.jpg,stim_02/d.jpg,stim_02/c.jpg,1,2,f,0,7,7,20,f,1,0.949737520254,02,03,60.0167167684,PLT_learning_02,B,2014_Apr_02_1350,P09,
stim_fb/ques.jpg,stim_fb/negf.jpg,stim_fb/posf.jpg,stim_02/b.jpg,stim_02/a.jpg,1,1,f,0,8,8,1,f,1,1.33294521941,02,03,60.0167167684,PLT_learning_02,B,2014_Apr_02_1350,P09,
stim_fb/ques.jpg,stim_fb/posf.jpg,stim_fb/negf.jpg,stim_02/b.jpg,stim_02/a.jpg,1,1,f,0,9,9,8,None,0,,02,03,60.0167167684,PLT_learning_02,B,2014_Apr_02_1350,P09,
stim_fb/ques.jpg,stim_fb/negf.jpg,stim_fb/posf.jpg,stim_02/b.jpg,stim_02/a.jpg,1,1,f,0,10,10,3,f,1,0.433192224147,02,03,60.0167167684,PLT_learning_02,B,2014_Apr_02_1350,P09,
stim_fb/ques.jpg,stim_fb/negf.jpg,stim_fb/posf.jpg,stim_02/c.jpg,stim_02/d.jpg,2,2,j,0,11,11,34,j,1,0.266584629497,02,03,60.0167167684,PLT_learning_02,B,2014_Apr_02_1350,P09,
stim_fb/ques.jpg,stim_fb/negf.jpg,stim_fb/posf.jpg,stim_02/c.jpg,stim_02/d.jpg,2,2,j,0,12,12,35,f,0,0.266639245422,02,03,60.0167167684,PLT_learning_02,B,2014_Apr_02_1350,P09,
stim_fb/ques.jpg,stim_fb/negf.jpg,stim_fb/posf.jpg,stim_02/c.jpg,stim_02/d.jpg,2,2,j,0,13,13,33,f,0,0.733125196332,02,03,60.0167167684,PLT_learning_02,B,2014_Apr_02_1350,P09,
stim_fb/ques.jpg,stim_fb/negf.jpg,stim_fb/posf.jpg,stim_02/e.jpg,stim_02/f.jpg,2,3,j,0,14,14,54,j,1,0.299951468217,02,03,60.0167167684,PLT_learning_02,B,2014_Apr_02_1350,P09,
stim_fb/ques.jpg,stim_fb/negf.jpg,stim_fb/posf.jpg,stim_02/e.jpg,stim_02/f.jpg,2,3,j,0,15,15,53,j,1,0.733131563178,02,03,60.0167167684,PLT_learning_02,B,2014_Apr_02_1350,P09,
stim_fb/ques.jpg,stim_fb/negf.jpg,stim_fb/posf.jpg,stim_02/b.jpg,stim_02/a.jpg,1,1,f,0,16,16,0,f,1,0.783145212647,02,03,60.0167167684,PLT_learning_02,B,2014_Apr_02_1350,P09,
stim_fb/ques.jpg,stim_fb/posf.jpg,stim_fb/negf.jpg,stim_02/f.jpg,stim_02/e.jpg,1,3,f,0,17,17,46,j,0,0.633152344899,02,03,60.0167167684,PLT_learning_02,B,2014_Apr_02_1350,P09,
stim_fb/ques.jpg,stim_fb/posf.jpg,stim_fb/negf.jpg,stim_02/f.jpg,stim_02/e.jpg,1,3,f,0,18,18,47,f,1,0.599877396872,02,03,60.0167167684,PLT_learning_02,B,2014_Apr_02_1350,P09,
stim_fb/ques.jpg,stim_fb/negf.jpg,stim_fb/posf.jpg,stim_02/a.jpg,stim_02/b.jpg,2,1,j,0,19,19,16,j,1,0.533218759187,02,03,60.0167167684,PLT_learning_02,B,2014_Apr_02_1350,P09,
stim_fb/ques.jpg,stim_fb/posf.jpg,stim_fb/negf.jpg,stim_02/b.jpg,stim_02/a.jpg,1,1,f,0,20,20,9,j,0,0.56654608557,02,03,60.0167167684,PLT_learning_02,B,2014_Apr_02_1350,P09,
stim_fb/ques.jpg,stim_fb/posf.jpg,stim_fb/negf.jpg,stim_02/c.jpg,stim_02/d.jpg,2,2,j,0,21,21,38,f,0,0.266618556933,02,03,60.0167167684,PLT_learning_02,B,2014_Apr_02_1350,P09,
stim_fb/ques.jpg,stim_fb/negf.jpg,stim_fb/posf.jpg,stim_02/d.jpg,stim_02/c.jpg,1,2,f,0,22,22,24,j,0,0.566538446558,02,03,60.0167167684,PLT_learning_02,B,2014_Apr_02_1350,P09,
stim_fb/ques.jpg,stim_fb/negf.jpg,stim_fb/posf.jpg,stim_02/a.jpg,stim_02/b.jpg,2,1,j,0,23,23,13,f,0,0.399959892182,02,03,60.0167167684,PLT_learning_02,B,2014_Apr_02_1350,P09,
stim_fb/ques.jpg,stim_fb/posf.jpg,stim_fb/negf.jpg,stim_02/c.jpg,stim_02/d.jpg,2,2,j,0,24,24,39,j,1,0.26661919452,02,03,60.0167167684,PLT_learning_02,B,2014_Apr_02_1350,P09,
stim_fb/ques.jpg,stim_fb/negf.jpg,stim_fb/posf.jpg,stim_02/c.jpg,stim_02/d.jpg,2,2,j,0,25,25,32,j,1,0.68307146912,02,03,60.0167167684,PLT_learning_02,B,2014_Apr_02_1350,P09,
stim_fb/ques.jpg,stim_fb/negf.jpg,stim_fb/posf.jpg,stim_02/b.jpg,stim_02/a.jpg,1,1,f,0,26,26,2,f,1,0.416573485262,02,03,60.0167167684,PLT_learning_02,B,2014_Apr_02_1350,P09,
stim_fb/ques.jpg,stim_fb/posf.jpg,stim_fb/negf.jpg,stim_02/a.jpg,stim_02/b.jpg,2,1,j,0,27,27,18,j,1,0.533199643613,02,03,60.0167167684,PLT_learning_02,B,2014_Apr_02_1350,P09,
stim_fb/ques.jpg,stim_fb/negf.jpg,stim_fb/posf.jpg,stim_02/c.jpg,stim_02/d.jpg,2,2,j,0,28,28,30,f,0,1.0496834968,02,03,60.0167167684,PLT_learning_02,B,2014_Apr_02_1350,P09,
stim_fb/ques.jpg,stim_fb/posf.jpg,stim_fb/negf.jpg,stim_02/f.jpg,stim_02/e.jpg,1,3,f,0,29,29,48,f,1,0.816455754259,02,03,60.0167167684,PLT_learning_02,B,2014_Apr_02_1350,P09,
stim_fb/ques.jpg,stim_fb/posf.jpg,stim_fb/negf.jpg,stim_02/d.jpg,stim_02/c.jpg,1,2,f,0,30,30,28,f,1,0.933079512637,02,03,60.0167167684,PLT_learning_02,B,2014_Apr_02_1350,P09,
stim_fb/ques.jpg,stim_fb/posf.jpg,stim_fb/negf.jpg,stim_02/a.jpg,stim_02/b.jpg,2,1,j,0,31,31,19,j,1,1.03309595756,02,03,60.0167167684,PLT_learning_02,B,2014_Apr_02_1350,P09,
stim_fb/ques.jpg,stim_fb/posf.jpg,stim_fb/negf.jpg,stim_02/e.jpg,stim_02/f.jpg,2,3,j,0,32,32,59,f,0,1.13300927283,02,03,60.0167167684,PLT_learning_02,B,2014_Apr_02_1350,P09,
stim_fb/ques.jpg,stim_fb/negf.jpg,stim_fb/posf.jpg,stim_02/f.jpg,stim_02/e.jpg,1,3,f,0,33,33,45,j,0,0.683133215791,02,03,60.0167167684,PLT_learning_02,B,2014_Apr_02_1350,P09,
stim_fb/ques.jpg,stim_fb/negf.jpg,stim_fb/posf.jpg,stim_02/f.jpg,stim_02/e.jpg,1,3,f,0,34,34,41,f,1,0.599830570332,02,03,60.0167167684,PLT_learning_02,B,2014_Apr_02_1350,P09,
stim_fb/ques.jpg,stim_fb/negf.jpg,stim_fb/posf.jpg,stim_02/b.jpg,stim_02/a.jpg,1,1,f,0,35,35,7,f,1,0.899762459822,02,03,60.0167167684,PLT_learning_02,B,2014_Apr_02_1350,P09,
stim_fb/ques.jpg,stim_fb/negf.jpg,stim_fb/posf.jpg,stim_02/d.jpg,stim_02/c.jpg,1,2,f,0,36,36,25,f,1,0.966348581031,02,03,60.0167167684,PLT_learning_02,B,2014_Apr_02_1350,P09,
stim_fb/ques.jpg,stim_fb/negf.jpg,stim_fb/posf.jpg,stim_02/e.jpg,stim_02/f.jpg,2,3,j,0,37,37,52,f,0,0.483085177235,02,03,60.0167167684,PLT_learning_02,B,2014_Apr_02_1350,P09,
stim_fb/ques.jpg,stim_fb/negf.jpg,stim_fb/posf.jpg,stim_02/a.jpg,stim_02/b.jpg,2,1,j,0,38,38,14,j,1,0.516542748766,02,03,60.0167167684,PLT_learning_02,B,2014_Apr_02_1350,P09,
stim_fb/ques.jpg,stim_fb/negf.jpg,stim_fb/posf.jpg,stim_02/f.jpg,stim_02/e.jpg,1,3,f,0,39,39,44,f,1,0.583195022613,02,03,60.0167167684,PLT_learning_02,B,2014_Apr_02_1350,P09,
stim_fb/ques.jpg,stim_fb/negf.jpg,stim_fb/posf.jpg,stim_02/e.jpg,stim_02/f.jpg,2,3,j,0,40,40,55,f,0,0.249986603159,02,03,60.0167167684,PLT_learning_02,B,2014_Apr_02_1350,P09,
stim_fb/ques.jpg,stim_fb/posf.jpg,stim_fb/negf.jpg,stim_02/e.jpg,stim_02/f.jpg,2,3,j,0,41,41,58,j,1,0.649850622738,02,03,60.0167167684,PLT_learning_02,B,2014_Apr_02_1350,P09,
stim_fb/ques.jpg,stim_fb/posf.jpg,stim_fb/negf.jpg,stim_02/c.jpg,stim_02/d.jpg,2,2,j,0,42,42,37,f,0,0.333256506129,02,03,60.0167167684,PLT_learning_02,B,2014_Apr_02_1350,P09,
stim_fb/ques.jpg,stim_fb/posf.jpg,stim_fb/negf.jpg,stim_02/f.jpg,stim_02/e.jpg,1,3,f,0,43,43,49,f,1,0.566467295481,02,03,60.0167167684,PLT_learning_02,B,2014_Apr_02_1350,P09,
stim_fb/ques.jpg,stim_fb/negf.jpg,stim_fb/posf.jpg,stim_02/a.jpg,stim_02/b.jpg,2,1,j,0,44,44,10,j,1,0.533179547599,02,03,60.0167167684,PLT_learning_02,B,2014_Apr_02_1350,P09,
stim_fb/ques.jpg,stim_fb/negf.jpg,stim_fb/posf.jpg,stim_02/d.jpg,stim_02/c.jpg,1,2,f,0,45,45,21,f,1,0.233289531321,02,03,60.0167167684,PLT_learning_02,B,2014_Apr_02_1350,P09,
stim_fb/ques.jpg,stim_fb/negf.jpg,stim_fb/posf.jpg,stim_02/f.jpg,stim_02/e.jpg,1,3,f,0,46,46,40,j,0,0.216602994703,02,03,60.0167167684,PLT_learning_02,B,2014_Apr_02_1350,P09,
stim_fb/ques.jpg,stim_fb/posf.jpg,stim_fb/negf.jpg,stim_02/e.jpg,stim_02/f.jpg,2,3,j,0,47,47,57,j,1,0.499846861877,02,03,60.0167167684,PLT_learning_02,B,2014_Apr_02_1350,P09,
stim_fb/ques.jpg,stim_fb/negf.jpg,stim_fb/posf.jpg,stim_02/f.jpg,stim_02/e.jpg,1,3,f,0,48,48,43,f,1,0.399885941136,02,03,60.0167167684,PLT_learning_02,B,2014_Apr_02_1350,P09,
stim_fb/ques.jpg,stim_fb/negf.jpg,stim_fb/posf.jpg,stim_02/f.jpg,stim_02/e.jpg,1,3,f,0,49,49,42,f,1,0.416568480807,02,03,60.0167167684,PLT_learning_02,B,2014_Apr_02_1350,P09,
stim_fb/ques.jpg,stim_fb/negf.jpg,stim_fb/posf.jpg,stim_02/c.jpg,stim_02/d.jpg,2,2,j,0,50,50,31,j,1,0.699845454375,02,03,60.0167167684,PLT_learning_02,B,2014_Apr_02_1350,P09,
stim_fb/ques.jpg,stim_fb/negf.jpg,stim_fb/posf.jpg,stim_02/b.jpg,stim_02/a.jpg,1,1,f,0,51,51,5,f,1,0.533227538035,02,03,60.0167167684,PLT_learning_02,B,2014_Apr_02_1350,P09,
stim_fb/ques.jpg,stim_fb/negf.jpg,stim_fb/posf.jpg,stim_02/a.jpg,stim_02/b.jpg,2,1,j,0,52,52,12,f,0,0.699800281951,02,03,60.0167167684,PLT_learning_02,B,2014_Apr_02_1350,P09,
stim_fb/ques.jpg,stim_fb/negf.jpg,stim_fb/posf.jpg,stim_02/b.jpg,stim_02/a.jpg,1,1,f,0,53,53,4,j,0,0.633160026015,02,03,60.0167167684,PLT_learning_02,B,2014_Apr_02_1350,P09,
stim_fb/ques.jpg,stim_fb/posf.jpg,stim_fb/negf.jpg,stim_02/d.jpg,stim_02/c.jpg,1,2,f,0,54,54,27,f,1,0.666554455401,02,03,60.0167167684,PLT_learning_02,B,2014_Apr_02_1350,P09,
stim_fb/ques.jpg,stim_fb/negf.jpg,stim_fb/posf.jpg,stim_02/a.jpg,stim_02/b.jpg,2,1,j,0,55,55,11,f,0,0.716460653452,02,03,60.0167167684,PLT_learning_02,B,2014_Apr_02_1350,P09,
stim_fb/ques.jpg,stim_fb/posf.jpg,stim_fb/negf.jpg,stim_02/e.jpg,stim_02/f.jpg,2,3,j,0,56,56,56,j,1,0.483086073465,02,03,60.0167167684,PLT_learning_02,B,2014_Apr_02_1350,P09,
stim_fb/ques.jpg,stim_fb/negf.jpg,stim_fb/posf.jpg,stim_02/e.jpg,stim_02/f.jpg,2,3,j,0,57,57,51,f,0,0.399937483411,02,03,60.0167167684,PLT_learning_02,B,2014_Apr_02_1350,P09,
stim_fb/ques.jpg,stim_fb/negf.jpg,stim_fb/posf.jpg,stim_02/a.jpg,stim_02/b.jpg,2,1,j,0,58,58,15,j,1,0.483218896027,02,03,60.0167167684,PLT_learning_02,B,2014_Apr_02_1350,P09,
stim_fb/ques.jpg,stim_fb/negf.jpg,stim_fb/posf.jpg,stim_02/a.jpg,stim_02/b.jpg,2,1,j,0,59,59,17,f,0,0.583168710127,02,03,60.0167167684,PLT_learning_02,B,2014_Apr_02_1350,P09,
stim_fb/ques.jpg,stim_fb/negf.jpg,stim_fb/posf.jpg,stim_02/d.jpg,stim_02/c.jpg,1,2,f,1,0,60,26,f,1,0.783117799424,02,03,60.0167167684,PLT_learning_02,B,2014_Apr_02_1350,P09,
stim_fb/ques.jpg,stim_fb/negf.jpg,stim_fb/posf.jpg,stim_02/b.jpg,stim_02/a.jpg,1,1,f,1,1,61,4,f,1,0.449917954309,02,03,60.0167167684,PLT_learning_02,B,2014_Apr_02_1350,P09,
stim_fb/ques.jpg,stim_fb/negf.jpg,stim_fb/posf.jpg,stim_02/b.jpg,stim_02/a.jpg,1,1,f,1,2,62,7,f,1,0.216654410665,02,03,60.0167167684,PLT_learning_02,B,2014_Apr_02_1350,P09,
stim_fb/ques.jpg,stim_fb/negf.jpg,stim_fb/posf.jpg,stim_02/c.jpg,stim_02/d.jpg,2,2,j,1,3,63,31,f,0,0.799748643437,02,03,60.0167167684,PLT_learning_02,B,2014_Apr_02_1350,P09,
stim_fb/ques.jpg,stim_fb/posf.jpg,stim_fb/negf.jpg,stim_02/d.jpg,stim_02/c.jpg,1,2,f,1,4,64,29,f,1,0.333273396165,02,03,60.0167167684,PLT_learning_02,B,2014_Apr_02_1350,P09,
stim_fb/ques.jpg,stim_fb/negf.jpg,stim_fb/posf.jpg,stim_02/c.jpg,stim_02/d.jpg,2,2,j,1,5,65,34,j,1,0.499842263433,02,03,60.0167167684,PLT_learning_02,B,2014_Apr_02_1350,P09,
stim_fb/ques.jpg,stim_fb/negf.jpg,stim_fb/posf.jpg,stim_02/d.jpg,stim_02/c.jpg,1,2,f,1,6,66,25,None,0,,02,03,60.0167167684,PLT_learning_02,B,2014_Apr_02_1350,P09,
stim_fb/ques.jpg,stim_fb/posf.jpg,stim_fb/negf.jpg,stim_02/e.jpg,stim_02/f.jpg,2,3,j,1,7,67,58,f,0,0.483234171043,02,03,60.0167167684,PLT_learning_02,B,2014_Apr_02_1350,P09,
stim_fb/ques.jpg,stim_fb/negf.jpg,stim_fb/posf.jpg,stim_02/d.jpg,stim_02/c.jpg,1,2,f,1,8,68,22,f,1,0.199948565994,02,03,60.0167167684,PLT_learning_02,B,2014_Apr_02_1350,P09,
stim_fb/ques.jpg,stim_fb/posf.jpg,stim_fb/negf.jpg,stim_02/c.jpg,stim_02/d.jpg,2,2,j,1,9,69,39,f,0,0.116649406209,02,03,60.0167167684,PLT_learning_02,B,2014_Apr_02_1350,P09,
stim_fb/ques.jpg,stim_fb/negf.jpg,stim_fb/posf.jpg,stim_02/d.jpg,stim_02/c.jpg,1,2,f,1,10,70,20,f,1,0.483256218915,02,03,60.0167167684,PLT_learning_02,B,2014_Apr_02_1350,P09,
stim_fb/ques.jpg,stim_fb/negf.jpg,stim_fb/posf.jpg,stim_02/a.jpg,stim_02/b.jpg,2,1,j,1,11,71,12,j,1,0.866435852227,02,03,60.0167167684,PLT_learning_02,B,2014_Apr_02_1350,P09,
stim_fb/ques.jpg,stim_fb/negf.jpg,stim_fb/posf.jpg,stim_02/f.jpg,stim_02/e.jpg,1,3,f,1,12,72,41,f,1,0.683123847476,02,03,60.0167167684,PLT_learning_02,B,2014_Apr_02_1350,P09,
stim_fb/ques.jpg,stim_fb/posf.jpg,stim_fb/negf.jpg,stim_02/e.jpg,stim_02/f.jpg,2,3,j,1,13,73,59,j,1,0.499878672045,02,03,60.0167167684,PLT_learning_02,B,2014_Apr_02_1350,P09,
stim_fb/ques.jpg,stim_fb/negf.jpg,stim_fb/posf.jpg,stim_02/c.jpg,stim_02/d.jpg,2,2,j,1,14,74,30,f,0,0.0999995368466,02,03,60.0167167684,PLT_learning_02,B,2014_Apr_02_1350,P09,
stim_fb/ques.jpg,stim_fb/negf.jpg,stim_fb/posf.jpg,stim_02/f.jpg,stim_02/e.jpg,1,3,f,1,15,75,45,f,1,0.699819836618,02,03,60.0167167684,PLT_learning_02,B,2014_Apr_02_1350,P09,
stim_fb/ques.jpg,stim_fb/negf.jpg,stim_fb/posf.jpg,stim_02/f.jpg,stim_02/e.jpg,1,3,f,1,16,76,42,f,1,1.0829952775,02,03,60.0167167684,PLT_learning_02,B,2014_Apr_02_1350,P09,
stim_fb/ques.jpg,stim_fb/posf.jpg,stim_fb/negf.jpg,stim_02/f.jpg,stim_02/e.jpg,1,3,f,1,17,77,47,f,1,1.23296263877,02,03,60.0167167684,PLT_learning_02,B,2014_Apr_02_1350,P09,
stim_fb/ques.jpg,stim_fb/negf.jpg,stim_fb/posf.jpg,stim_02/e.jpg,stim_02/f.jpg,2,3,j,1,18,78,50,j,1,0.649851365586,02,03,60.0167167684,PLT_learning_02,B,2014_Apr_02_1350,P09,
stim_fb/ques.jpg,stim_fb/negf.jpg,stim_fb/posf.jpg,stim_02/c.jpg,stim_02/d.jpg,2,2,j,1,19,79,36,f,0,0.399893730522,02,03,60.0167167684,PLT_learning_02,B,2014_Apr_02_1350,P09,
stim_fb/ques.jpg,stim_fb/posf.jpg,stim_fb/negf.jpg,stim_02/b.jpg,stim_02/a.jpg,1,1,f,1,20,80,9,j,0,0.616509176212,02,03,60.0167167684,PLT_learning_02,B,2014_Apr_02_1350,P09,
stim_fb/ques.jpg,stim_fb/posf.jpg,stim_fb/negf.jpg,stim_02/d.jpg,stim_02/c.jpg,1,2,f,1,21,81,27,f,1,0.383256056511,02,03,60.0167167684,PLT_learning_02,B,2014_Apr_02_1350,P09,
stim_fb/ques.jpg,stim_fb/negf.jpg,stim_fb/posf.jpg,stim_02/e.jpg,stim_02/f.jpg,2,3,j,1,22,82,51,j,1,0.116673736763,02,03,60.0167167684,PLT_learning_02,B,2014_Apr_02_1350,P09,
stim_fb/ques.jpg,stim_fb/negf.jpg,stim_fb/posf.jpg,stim_02/e.jpg,stim_02/f.jpg,2,3,j,1,23,83,52,f,0,0.316631286113,02,03,60.0167167684,PLT_learning_02,B,2014_Apr_02_1350,P09,
stim_fb/ques.jpg,stim_fb/negf.jpg,stim_fb/posf.jpg,stim_02/e.jpg,stim_02/f.jpg,2,3,j,1,24,84,54,j,1,0.349949487788,02,03,60.0167167684,PLT_learning_02,B,2014_Apr_02_1350,P09,
stim_fb/ques.jpg,stim_fb/negf.jpg,stim_fb/posf.jpg,stim_02/a.jpg,stim_02/b.jpg,2,1,j,1,25,85,17,j,1,0.449888664413,02,03,60.0167167684,PLT_learning_02,B,2014_Apr_02_1350,P09,
stim_fb/ques.jpg,stim_fb/negf.jpg,stim_fb/posf.jpg,stim_02/b.jpg,stim_02/a.jpg,1,1,f,1,26,86,3,j,0,0.416586588873,02,03,60.0167167684,PLT_learning_02,B,2014_Apr_02_1350,P09,
stim_fb/ques.jpg,stim_fb/negf.jpg,stim_fb/posf.jpg,stim_02/b.jpg,stim_02/a.jpg,1,1,f,1,27,87,1,f,1,0.383251912197,02,03,60.0167167684,PLT_learning_02,B,2014_Apr_02_1350,P09,
stim_fb/ques.jpg,stim_fb/posf.jpg,stim_fb/negf.jpg,stim_02/a.jpg,stim_02/b.jpg,2,1,j,1,28,88,18,f,0,0.933070649579,02,03,60.0167167684,PLT_learning_02,B,2014_Apr_02_1350,P09,
stim_fb/ques.jpg,stim_fb/negf.jpg,stim_fb/posf.jpg,stim_02/a.jpg,stim_02/b.jpg,2,1,j,1,29,89,16,j,1,0.433301455998,02,03,60.0167167684,PLT_learning_02,B,2014_Apr_02_1350,P09,
stim_fb/ques.jpg,stim_fb/negf.jpg,stim_fb/posf.jpg,stim_02/f.jpg,stim_02/e.jpg,1,3,f,1,30,90,40,f,1,0.20000448416,02,03,60.0167167684,PLT_learning_02,B,2014_Apr_02_1350,P09,
stim_fb/ques.jpg,stim_fb/negf.jpg,stim_fb/posf.jpg,stim_02/c.jpg,stim_02/d.jpg,2,2,j,1,31,91,33,j,1,0.449884059954,02,03,60.0167167684,PLT_learning_02,B,2014_Apr_02_1350,P09,
stim_fb/ques.jpg,stim_fb/posf.jpg,stim_fb/negf.jpg,stim_02/e.jpg,stim_02/f.jpg,2,3,j,1,32,92,57,j,1,0.233319359556,02,03,60.0167167684,PLT_learning_02,B,2014_Apr_02_1350,P09,
stim_fb/ques.jpg,stim_fb/posf.jpg,stim_fb/negf.jpg,stim_02/c.jpg,stim_02/d.jpg,2,2,j,1,33,93,38,f,0,0.415564816938,02,03,60.0167167684,PLT_learning_02,B,2014_Apr_02_1350,P09,
stim_fb/ques.jpg,stim_fb/negf.jpg,stim_fb/posf.jpg,stim_02/b.jpg,stim_02/a.jpg,1,1,f,1,34,94,2,j,0,0.499878254004,02,03,60.0167167684,PLT_learning_02,B,2014_Apr_02_1350,P09,
stim_fb/ques.jpg,stim_fb/posf.jpg,stim_fb/negf.jpg,stim_02/c.jpg,stim_02/d.jpg,2,2,j,1,35,95,37,f,0,0.283320997132,02,03,60.0167167684,PLT_learning_02,B,2014_Apr_02_1350,P09,
stim_fb/ques.jpg,stim_fb/negf.jpg,stim_fb/posf.jpg,stim_02/a.jpg,stim_02/b.jpg,2,1,j,1,36,96,13,f,0,0.216648873885,02,03,60.0167167684,PLT_learning_02,B,2014_Apr_02_1350,P09,
stim_fb/ques.jpg,stim_fb/posf.jpg,stim_fb/negf.jpg,stim_02/f.jpg,stim_02/e.jpg,1,3,f,1,37,97,48,f,1,0.366611594605,02,03,60.0167167684,PLT_learning_02,B,2014_Apr_02_1350,P09,
stim_fb/ques.jpg,stim_fb/negf.jpg,stim_fb/posf.jpg,stim_02/c.jpg,stim_02/d.jpg,2,2,j,1,38,98,32,f,0,0.166646382183,02,03,60.0167167684,PLT_learning_02,B,2014_Apr_02_1350,P09,
stim_fb/ques.jpg,stim_fb/negf.jpg,stim_fb/posf.jpg,stim_02/d.jpg,stim_02/c.jpg,1,2,f,1,39,99,23,j,0,0.283264227847,02,03,60.0167167684,PLT_learning_02,B,2014_Apr_02_1350,P09,
stim_fb/ques.jpg,stim_fb/negf.jpg,stim_fb/posf.jpg,stim_02/a.jpg,stim_02/b.jpg,2,1,j,1,40,100,10,f,0,0.749787020448,02,03,60.0167167684,PLT_learning_02,B,2014_Apr_02_1350,P09,
stim_fb/ques.jpg,stim_fb/posf.jpg,stim_fb/negf.jpg,stim_02/f.jpg,stim_02/e.jpg,1,3,f,1,41,101,49,f,1,0.616505582268,02,03,60.0167167684,PLT_learning_02,B,2014_Apr_02_1350,P09,
stim_fb/ques.jpg,stim_fb/negf.jpg,stim_fb/posf.jpg,stim_02/a.jpg,stim_02/b.jpg,2,1,j,1,42,102,15,j,1,0.799804907464,02,03,60.0167167684,PLT_learning_02,B,2014_Apr_02_1350,P09,
stim_fb/ques.jpg,stim_fb/negf.jpg,stim_fb/posf.jpg,stim_02/e.jpg,stim_02/f.jpg,2,3,j,1,43,103,53,j,1,0.883081011868,02,03,60.0167167684,PLT_learning_02,B,2014_Apr_02_1350,P09,
stim_fb/ques.jpg,stim_fb/negf.jpg,stim_fb/posf.jpg,stim_02/a.jpg,stim_02/b.jpg,2,1,j,1,44,104,11,f,0,0.499886789247,02,03,60.0167167684,PLT_learning_02,B,2014_Apr_02_1350,P09,
stim_fb/ques.jpg,stim_fb/negf.jpg,stim_fb/posf.jpg,stim_02/f.jpg,stim_02/e.jpg,1,3,f,1,45,105,43,j,0,0.333299056026,02,03,60.0167167684,PLT_learning_02,B,2014_Apr_02_1350,P09,
stim_fb/ques.jpg,stim_fb/negf.jpg,stim_fb/posf.jpg,stim_02/e.jpg,stim_02/f.jpg,2,3,j,1,46,106,55,f,0,0.349935388699,02,03,60.0167167684,PLT_learning_02,B,2014_Apr_02_1350,P09,
stim_fb/ques.jpg,stim_fb/negf.jpg,stim_fb/posf.jpg,stim_02/d.jpg,stim_02/c.jpg,1,2,f,1,47,107,24,j,0,0.283321532464,02,03,60.0167167684,PLT_learning_02,B,2014_Apr_02_1350,P09,
stim_fb/ques.jpg,stim_fb/posf.jpg,stim_fb/negf.jpg,stim_02/a.jpg,stim_02/b.jpg,2,1,j,1,48,108,19,f,0,0.44991138897,02,03,60.0167167684,PLT_learning_02,B,2014_Apr_02_1350,P09,
stim_fb/ques.jpg,stim_fb/negf.jpg,stim_fb/posf.jpg,stim_02/b.jpg,stim_02/a.jpg,1,1,f,1,49,109,0,f,1,0.766464390252,02,03,60.0167167684,PLT_learning_02,B,2014_Apr_02_1350,P09,
stim_fb/ques.jpg,stim_fb/negf.jpg,stim_fb/posf.jpg,stim_02/d.jpg,stim_02/c.jpg,1,2,f,1,50,110,21,None,0,,02,03,60.0167167684,PLT_learning_02,B,2014_Apr_02_1350,P09,
stim_fb/ques.jpg,stim_fb/posf.jpg,stim_fb/negf.jpg,stim_02/e.jpg,stim_02/f.jpg,2,3,j,1,51,111,56,f,0,0.366725845949,02,03,60.0167167684,PLT_learning_02,B,2014_Apr_02_1350,P09,
stim_fb/ques.jpg,stim_fb/negf.jpg,stim_fb/posf.jpg,stim_02/f.jpg,stim_02/e.jpg,1,3,f,1,52,112,44,f,1,0.149993490299,02,03,60.0167167684,PLT_learning_02,B,2014_Apr_02_1350,P09,
stim_fb/ques.jpg,stim_fb/negf.jpg,stim_fb/posf.jpg,stim_02/b.jpg,stim_02/a.jpg,1,1,f,1,53,113,6,j,0,0.133315582155,02,03,60.0167167684,PLT_learning_02,B,2014_Apr_02_1350,P09,
stim_fb/ques.jpg,stim_fb/negf.jpg,stim_fb/posf.jpg,stim_02/c.jpg,stim_02/d.jpg,2,2,j,1,54,114,35,j,1,0.200039614591,02,03,60.0167167684,PLT_learning_02,B,2014_Apr_02_1350,P09,
stim_fb/ques.jpg,stim_fb/negf.jpg,stim_fb/posf.jpg,stim_02/b.jpg,stim_02/a.jpg,1,1,f,1,55,115,5,f,1,0.266615194565,02,03,60.0167167684,PLT_learning_02,B,2014_Apr_02_1350,P09,
stim_fb/ques.jpg,stim_fb/negf.jpg,stim_fb/posf.jpg,stim_02/a.jpg,stim_02/b.jpg,2,1,j,1,56,116,14,f,0,0.266659570005,02,03,60.0167167684,PLT_learning_02,B,2014_Apr_02_1350,P09,
stim_fb/ques.jpg,stim_fb/posf.jpg,stim_fb/negf.jpg,stim_02/d.jpg,stim_02/c.jpg,1,2,f,1,57,117,28,j,0,0.366585468585,02,03,60.0167167684,PLT_learning_02,B,2014_Apr_02_1350,P09,
stim_fb/ques.jpg,stim_fb/posf.jpg,stim_fb/negf.jpg,stim_02/f.jpg,stim_02/e.jpg,1,3,f,1,58,118,46,f,1,0.250054909156,02,03,60.0167167684,PLT_learning_02,B,2014_Apr_02_1350,P09,
stim_fb/ques.jpg,stim_fb/posf.jpg,stim_fb/negf.jpg,stim_02/b.jpg,stim_02/a.jpg,1,1,f,1,59,119,8,f,1,0.0833373097303,02,03,60.0167167684,PLT_learning_02,B,2014_Apr_02_1350,P09,
stim_fb/ques.jpg,stim_fb/posf.jpg,stim_fb/negf.jpg,stim_02/e.jpg,stim_02/f.jpg,2,3,j,2,0,120,56,j,1,0.300029605681,02,03,60.0167167684,PLT_learning_02,B,2014_Apr_02_1350,P09,
stim_fb/ques.jpg,stim_fb/negf.jpg,stim_fb/posf.jpg,stim_02/a.jpg,stim_02/b.jpg,2,1,j,2,1,121,15,f,0,0.200061599306,02,03,60.0167167684,PLT_learning_02,B,2014_Apr_02_1350,P09,
stim_fb/ques.jpg,stim_fb/negf.jpg,stim_fb/posf.jpg,stim_02/e.jpg,stim_02/f.jpg,2,3,j,2,2,122,54,f,0,0.233524009879,02,03,60.0167167684,PLT_learning_02,B,2014_Apr_02_1350,P09,
stim_fb/ques.jpg,stim_fb/posf.jpg,stim_fb/negf.jpg,stim_02/e.jpg,stim_02/f.jpg,2,3,j,2,3,123,57,j,1,0.533201099236,02,03,60.0167167684,PLT_learning_02,B,2014_Apr_02_1350,P09,
stim_fb/ques.jpg,stim_fb/posf.jpg,stim_fb/negf.jpg,stim_02/e.jpg,stim_02/f.jpg,2,3,j,2,4,124,59,j,1,0.249927966226,02,03,60.0167167684,PLT_learning_02,B,2014_Apr_02_1350,P09,
stim_fb/ques.jpg,stim_fb/negf.jpg,stim_fb/posf.jpg,stim_02/e.jpg,stim_02/f.jpg,2,3,j,2,5,125,51,j,1,0.383251518217,02,03,60.0167167684,PLT_learning_02,B,2014_Apr_02_1350,P09,
stim_fb/ques.jpg,stim_fb/negf.jpg,stim_fb/posf.jpg,stim_02/b.jpg,stim_02/a.jpg,1,1,f,2,6,126,1,f,1,0.616492929779,02,03,60.0167167684,PLT_learning_02,B,2014_Apr_02_1350,P09,
stim_fb/ques.jpg,stim_fb/negf.jpg,stim_fb/posf.jpg,stim_02/b.jpg,stim_02/a.jpg,1,1,f,2,7,127,4,f,1,0.283366404139,02,03,60.0167167684,PLT_learning_02,B,2014_Apr_02_1350,P09,
stim_fb/ques.jpg,stim_fb/negf.jpg,stim_fb/posf.jpg,stim_02/a.jpg,stim_02/b.jpg,2,1,j,2,8,128,16,j,1,0.400032357529,02,03,60.0167167684,PLT_learning_02,B,2014_Apr_02_1350,P09,
stim_fb/ques.jpg,stim_fb/negf.jpg,stim_fb/posf.jpg,stim_02/c.jpg,stim_02/d.jpg,2,2,j,2,9,129,35,j,1,0.433268223291,02,03,60.0167167684,PLT_learning_02,B,2014_Apr_02_1350,P09,
stim_fb/ques.jpg,stim_fb/negf.jpg,stim_fb/posf.jpg,stim_02/c.jpg,stim_02/d.jpg,2,2,j,2,10,130,36,j,1,0.299946108878,02,03,60.0167167684,PLT_learning_02,B,2014_Apr_02_1350,P09,
stim_fb/ques.jpg,stim_fb/negf.jpg,stim_fb/posf.jpg,stim_02/e.jpg,stim_02/f.jpg,2,3,j,2,11,131,53,f,0,0.2832587843,02,03,60.0167167684,PLT_learning_02,B,2014_Apr_02_1350,P09,
stim_fb/ques.jpg,stim_fb/posf.jpg,stim_fb/negf.jpg,stim_02/d.jpg,stim_02/c.jpg,1,2,f,2,12,132,28,j,0,0.166632776321,02,03,60.0167167684,PLT_learning_02,B,2014_Apr_02_1350,P09,
stim_fb/ques.jpg,stim_fb/posf.jpg,stim_fb/negf.jpg,stim_02/c.jpg,stim_02/d.jpg,2,2,j,2,13,133,37,j,1,0.183350518603,02,03,60.0167167684,PLT_learning_02,B,2014_Apr_02_1350,P09,
stim_fb/ques.jpg,stim_fb/negf.jpg,stim_fb/posf.jpg,stim_02/a.jpg,stim_02/b.jpg,2,1,j,2,14,134,12,f,0,0.349955791477,02,03,60.0167167684,PLT_learning_02,B,2014_Apr_02_1350,P09,
stim_fb/ques.jpg,stim_fb/negf.jpg,stim_fb/posf.jpg,stim_02/a.jpg,stim_02/b.jpg,2,1,j,2,15,135,17,j,1,0.666550344169,02,03,60.0167167684,PLT_learning_02,B,2014_Apr_02_1350,P09,
stim_fb/ques.jpg,stim_fb/posf.jpg,stim_fb/negf.jpg,stim_02/d.jpg,stim_02/c.jpg,1,2,f,2,16,136,27,j,0,0.349916002451,02,03,60.0167167684,PLT_learning_02,B,2014_Apr_02_1350,P09,
stim_fb/ques.jpg,stim_fb/negf.jpg,stim_fb/posf.jpg,stim_02/a.jpg,stim_02/b.jpg,2,1,j,2,17,137,13,j,1,0.399922214411,02,03,60.0167167684,PLT_learning_02,B,2014_Apr_02_1350,P09,
stim_fb/ques.jpg,stim_fb/negf.jpg,stim_fb/posf.jpg,stim_02/f.jpg,stim_02/e.jpg,1,3,f,2,18,138,40,f,1,0.599896289892,02,03,60.0167167684,PLT_learning_02,B,2014_Apr_02_1350,P09,
stim_fb/ques.jpg,stim_fb/negf.jpg,stim_fb/posf.jpg,stim_02/b.jpg,stim_02/a.jpg,1,1,f,2,19,139,3,j,0,0.416579599479,02,03,60.0167167684,PLT_learning_02,B,2014_Apr_02_1350,P09,
stim_fb/ques.jpg,stim_fb/negf.jpg,stim_fb/posf.jpg,stim_02/c.jpg,stim_02/d.jpg,2,2,j,2,20,140,33,f,0,0.483205109716,02,03,60.0167167684,PLT_learning_02,B,2014_Apr_02_1350,P09,
stim_fb/ques.jpg,stim_fb/negf.jpg,stim_fb/posf.jpg,stim_02/f.jpg,stim_02/e.jpg,1,3,f,2,21,141,42,j,0,0.29990936042,02,03,60.0167167684,PLT_learning_02,B,2014_Apr_02_1350,P09,
stim_fb/ques.jpg,stim_fb/posf.jpg,stim_fb/negf.jpg,stim_02/e.jpg,stim_02/f.jpg,2,3,j,2,22,142,58,f,0,0.399906605565,02,03,60.0167167684,PLT_learning_02,B,2014_Apr_02_1350,P09,
stim_fb/ques.jpg,stim_fb/negf.jpg,stim_fb/posf.jpg,stim_02/b.jpg,stim_02/a.jpg,1,1,f,2,23,143,6,j,0,0.749757703485,02,03,60.0167167684,PLT_learning_02,B,2014_Apr_02_1350,P09,
stim_fb/ques.jpg,stim_fb/posf.jpg,stim_fb/negf.jpg,stim_02/b.jpg,stim_02/a.jpg,1,1,f,2,24,144,8,f,1,0.316628525242,02,03,60.0167167684,PLT_learning_02,B,2014_Apr_02_1350,P09,
stim_fb/ques.jpg,stim_fb/negf.jpg,stim_fb/posf.jpg,stim_02/d.jpg,stim_02/c.jpg,1,2,f,2,25,145,25,f,1,0.549865897753,02,03,60.0167167684,PLT_learning_02,B,2014_Apr_02_1350,P09,
stim_fb/ques.jpg,stim_fb/negf.jpg,stim_fb/posf.jpg,stim_02/d.jpg,stim_02/c.jpg,1,2,f,2,26,146,22,j,0,0.249964173337,02,03,60.0167167684,PLT_learning_02,B,2014_Apr_02_1350,P09,
stim_fb/ques.jpg,stim_fb/negf.jpg,stim_fb/posf.jpg,stim_02/f.jpg,stim_02/e.jpg,1,3,f,2,27,147,41,j,0,0.233386627971,02,03,60.0167167684,PLT_learning_02,B,2014_Apr_02_1350,P09,
stim_fb/ques.jpg,stim_fb/negf.jpg,stim_fb/posf.jpg,stim_02/a.jpg,stim_02/b.jpg,2,1,j,2,28,148,11,f,0,0.200079812634,02,03,60.0167167684,PLT_learning_02,B,2014_Apr_02_1350,P09,
stim_fb/ques.jpg,stim_fb/posf.jpg,stim_fb/negf.jpg,stim_02/c.jpg,stim_02/d.jpg,2,2,j,2,29,149,39,f,0,0.283267665402,02,03,60.0167167684,PLT_learning_02,B,2014_Apr_02_1350,P09,
stim_fb/ques.jpg,stim_fb/negf.jpg,stim_fb/posf.jpg,stim_02/b.jpg,stim_02/a.jpg,1,1,f,2,30,150,7,f,1,0.33330665594,02,03,60.0167167684,PLT_learning_02,B,2014_Apr_02_1350,P09,
stim_fb/ques.jpg,stim_fb/posf.jpg,stim_fb/negf.jpg,stim_02/b.jpg,stim_02/a.jpg,1,1,f,2,31,151,9,j,0,0.199962361326,02,03,60.0167167684,PLT_learning_02,B,2014_Apr_02_1350,P09,
stim_fb/ques.jpg,stim_fb/negf.jpg,stim_fb/posf.jpg,stim_02/a.jpg,stim_02/b.jpg,2,1,j,2,32,152,14,f,0,0.166671431525,02,03,60.0167167684,PLT_learning_02,B,2014_Apr_02_1350,P09,
stim_fb/ques.jpg,stim_fb/posf.jpg,stim_fb/negf.jpg,stim_02/d.jpg,stim_02/c.jpg,1,2,f,2,33,153,29,f,1,0.266664634609,02,03,60.0167167684,PLT_learning_02,B,2014_Apr_02_1350,P09,
stim_fb/ques.jpg,stim_fb/negf.jpg,stim_fb/posf.jpg,stim_02/d.jpg,stim_02/c.jpg,1,2,f,2,34,154,26,f,1,0.44986697744,02,03,60.0167167684,PLT_learning_02,B,2014_Apr_02_1350,P09,
stim_fb/ques.jpg,stim_fb/negf.jpg,stim_fb/posf.jpg,stim_02/c.jpg,stim_02/d.jpg,2,2,j,2,35,155,32,j,1,0.233288938846,02,03,60.0167167684,PLT_learning_02,B,2014_Apr_02_1350,P09,
stim_fb/ques.jpg,stim_fb/negf.jpg,stim_fb/posf.jpg,stim_02/d.jpg,stim_02/c.jpg,1,2,f,2,36,156,24,j,0,0.266590680556,02,03,60.0167167684,PLT_learning_02,B,2014_Apr_02_1350,P09,
stim_fb/ques.jpg,stim_fb/negf.jpg,stim_fb/posf.jpg,stim_02/b.jpg,stim_02/a.jpg,1,1,f,2,37,157,2,f,1,0.0833447773139,02,03,60.0167167684,PLT_learning_02,B,2014_Apr_02_1350,P09,
stim_fb/ques.jpg,stim_fb/negf.jpg,stim_fb/posf.jpg,stim_02/d.jpg,stim_02/c.jpg,1,2,f,2,38,158,23,j,0,0.283278516408,02,03,60.0167167684,PLT_learning_02,B,2014_Apr_02_1350,P09,
stim_fb/ques.jpg,stim_fb/negf.jpg,stim_fb/posf.jpg,stim_02/c.jpg,stim_02/d.jpg,2,2,j,2,39,159,30,j,1,0.216640404808,02,03,60.0167167684,PLT_learning_02,B,2014_Apr_02_1350,P09,
stim_fb/ques.jpg,stim_fb/negf.jpg,stim_fb/posf.jpg,stim_02/d.jpg,stim_02/c.jpg,1,2,f,2,40,160,21,f,1,0.166528930877,02,03,60.0167167684,PLT_learning_02,B,2014_Apr_02_1350,P09,
stim_fb/ques.jpg,stim_fb/negf.jpg,stim_fb/posf.jpg,stim_02/e.jpg,stim_02/f.jpg,2,3,j,2,41,161,52,f,0,0.249972561212,02,03,60.0167167684,PLT_learning_02,B,2014_Apr_02_1350,P09,
stim_fb/ques.jpg,stim_fb/negf.jpg,stim_fb/posf.jpg,stim_02/b.jpg,stim_02/a.jpg,1,1,f,2,42,162,5,j,0,0.133274957049,02,03,60.0167167684,PLT_learning_02,B,2014_Apr_02_1350,P09,
stim_fb/ques.jpg,stim_fb/negf.jpg,stim_fb/posf.jpg,stim_02/f.jpg,stim_02/e.jpg,1,3,f,2,43,163,44,f,1,0.366623269662,02,03,60.0167167684,PLT_learning_02,B,2014_Apr_02_1350,P09,
stim_fb/ques.jpg,stim_fb/posf.jpg,stim_fb/negf.jpg,stim_02/f.jpg,stim_02/e.jpg,1,3,f,2,44,164,49,f,1,0.34994717804,02,03,60.0167167684,PLT_learning_02,B,2014_Apr_02_1350,P09,
stim_fb/ques.jpg,stim_fb/posf.jpg,stim_fb/negf.jpg,stim_02/c.jpg,stim_02/d.jpg,2,2,j,2,45,165,38,f,0,0.333260376762,02,03,60.0167167684,PLT_learning_02,B,2014_Apr_02_1350,P09,
stim_fb/ques.jpg,stim_fb/negf.jpg,stim_fb/posf.jpg,stim_02/c.jpg,stim_02/d.jpg,2,2,j,2,46,166,31,f,0,0.749889229821,02,03,60.0167167684,PLT_learning_02,B,2014_Apr_02_1350,P09,
stim_fb/ques.jpg,stim_fb/posf.jpg,stim_fb/negf.jpg,stim_02/a.jpg,stim_02/b.jpg,2,1,j,2,47,167,18,j,1,0.799746240456,02,03,60.0167167684,PLT_learning_02,B,2014_Apr_02_1350,P09,
stim_fb/ques.jpg,stim_fb/posf.jpg,stim_fb/negf.jpg,stim_02/f.jpg,stim_02/e.jpg,1,3,f,2,48,168,46,j,0,0.433224311004,02,03,60.0167167684,PLT_learning_02,B,2014_Apr_02_1350,P09,
stim_fb/ques.jpg,stim_fb/negf.jpg,stim_fb/posf.jpg,stim_02/c.jpg,stim_02/d.jpg,2,2,j,2,49,169,34,f,0,0.349927271497,02,03,60.0167167684,PLT_learning_02,B,2014_Apr_02_1350,P09,
stim_fb/ques.jpg,stim_fb/posf.jpg,stim_fb/negf.jpg,stim_02/f.jpg,stim_02/e.jpg,1,3,f,2,50,170,47,j,0,0.150102508619,02,03,60.0167167684,PLT_learning_02,B,2014_Apr_02_1350,P09,
stim_fb/ques.jpg,stim_fb/negf.jpg,stim_fb/posf.jpg,stim_02/e.jpg,stim_02/f.jpg,2,3,j,2,51,171,50,j,1,0.366616719361,02,03,60.0167167684,PLT_learning_02,B,2014_Apr_02_1350,P09,
stim_fb/ques.jpg,stim_fb/negf.jpg,stim_fb/posf.jpg,stim_02/b.jpg,stim_02/a.jpg,1,1,f,2,52,172,0,f,1,0.633157093717,02,03,60.0167167684,PLT_learning_02,B,2014_Apr_02_1350,P09,
stim_fb/ques.jpg,stim_fb/posf.jpg,stim_fb/negf.jpg,stim_02/a.jpg,stim_02/b.jpg,2,1,j,2,53,173,19,f,0,0.533251309195,02,03,60.0167167684,PLT_learning_02,B,2014_Apr_02_1350,P09,
stim_fb/ques.jpg,stim_fb/posf.jpg,stim_fb/negf.jpg,stim_02/f.jpg,stim_02/e.jpg,1,3,f,2,54,174,48,f,1,0.283289677184,02,03,60.0167167684,PLT_learning_02,B,2014_Apr_02_1350,P09,
stim_fb/ques.jpg,stim_fb/negf.jpg,stim_fb/posf.jpg,stim_02/f.jpg,stim_02/e.jpg,1,3,f,2,55,175,43,j,0,0.349940627738,02,03,60.0167167684,PLT_learning_02,B,2014_Apr_02_1350,P09,
stim_fb/ques.jpg,stim_fb/negf.jpg,stim_fb/posf.jpg,stim_02/f.jpg,stim_02/e.jpg,1,3,f,2,56,176,45,f,1,1.08299412262,02,03,60.0167167684,PLT_learning_02,B,2014_Apr_02_1350,P09,
stim_fb/ques.jpg,stim_fb/negf.jpg,stim_fb/posf.jpg,stim_02/e.jpg,stim_02/f.jpg,2,3,j,2,57,177,55,f,0,0.933068505243,02,03,60.0167167684,PLT_learning_02,B,2014_Apr_02_1350,P09,
stim_fb/ques.jpg,stim_fb/negf.jpg,stim_fb/posf.jpg,stim_02/d.jpg,stim_02/c.jpg,1,2,f,2,58,178,20,j,0,0.649869329293,02,03,60.0167167684,PLT_learning_02,B,2014_Apr_02_1350,P09,
stim_fb/ques.jpg,stim_fb/negf.jpg,stim_fb/posf.jpg,stim_02/a.jpg,stim_02/b.jpg,2,1,j,2,59,179,10,f,0,0.400029975602,02,03,60.0167167684,PLT_learning_02,B,2014_Apr_02_1350,P09,
stim_fb/ques.jpg,stim_fb/negf.jpg,stim_fb/posf.jpg,stim_02/a.jpg,stim_02/b.jpg,2,1,j,3,0,180,13,j,1,0.333261086529,02,03,60.0167167684,PLT_learning_02,B,2014_Apr_02_1350,P09,
stim_fb/ques.jpg,stim_fb/negf.jpg,stim_fb/posf.jpg,stim_02/f.jpg,stim_02/e.jpg,1,3,f,3,1,181,40,f,1,0.199981690432,02,03,60.0167167684,PLT_learning_02,B,2014_Apr_02_1350,P09,
stim_fb/ques.jpg,stim_fb/negf.jpg,stim_fb/posf.jpg,stim_02/b.jpg,stim_02/a.jpg,1,1,f,3,2,182,2,f,1,0.0999829054563,02,03,60.0167167684,PLT_learning_02,B,2014_Apr_02_1350,P09,
stim_fb/ques.jpg,stim_fb/posf.jpg,stim_fb/negf.jpg,stim_02/f.jpg,stim_02/e.jpg,1,3,f,3,3,183,46,f,1,0.150038202576,02,03,60.0167167684,PLT_learning_02,B,2014_Apr_02_1350,P09,
stim_fb/ques.jpg,stim_fb/negf.jpg,stim_fb/posf.jpg,stim_02/d.jpg,stim_02/c.jpg,1,2,f,3,4,184,24,j,0,0.133322628692,02,03,60.0167167684,PLT_learning_02,B,2014_Apr_02_1350,P09,
stim_fb/ques.jpg,stim_fb/negf.jpg,stim_fb/posf.jpg,stim_02/f.jpg,stim_02/e.jpg,1,3,f,3,5,185,44,j,0,0.150077035221,02,03,60.0167167684,PLT_learning_02,B,2014_Apr_02_1350,P09,
stim_fb/ques.jpg,stim_fb/posf.jpg,stim_fb/negf.jpg,stim_02/e.jpg,stim_02/f.jpg,2,3,j,3,6,186,59,f,0,0.233312983688,02,03,60.0167167684,PLT_learning_02,B,2014_Apr_02_1350,P09,
stim_fb/ques.jpg,stim_fb/posf.jpg,stim_fb/negf.jpg,stim_02/d.jpg,stim_02/c.jpg,1,2,f,3,7,187,28,f,1,0.216635508622,02,03,60.0167167684,PLT_learning_02,B,2014_Apr_02_1350,P09,
stim_fb/ques.jpg,stim_fb/negf.jpg,stim_fb/posf.jpg,stim_02/e.jpg,stim_02/f.jpg,2,3,j,3,8,188,55,f,0,0.299955925309,02,03,60.0167167684,PLT_learning_02,B,2014_Apr_02_1350,P09,
stim_fb/ques.jpg,stim_fb/negf.jpg,stim_fb/posf.jpg,stim_02/f.jpg,stim_02/e.jpg,1,3,f,3,9,189,43,f,1,0.133322147494,02,03,60.0167167684,PLT_learning_02,B,2014_Apr_02_1350,P09,
stim_fb/ques.jpg,stim_fb/posf.jpg,stim_fb/negf.jpg,stim_02/c.jpg,stim_02/d.jpg,2,2,j,3,10,190,38,j,1,0.283393660974,02,03,60.0167167684,PLT_learning_02,B,2014_Apr_02_1350,P09,
stim_fb/ques.jpg,stim_fb/negf.jpg,stim_fb/posf.jpg,stim_02/f.jpg,stim_02/e.jpg,1,3,f,3,11,191,45,f,1,0.183302483055,02,03,60.0167167684,PLT_learning_02,B,2014_Apr_02_1350,P09,
stim_fb/ques.jpg,stim_fb/posf.jpg,stim_fb/negf.jpg,stim_02/f.jpg,stim_02/e.jpg,1,3,f,3,12,192,49,f,1,0.299951522352,02,03,60.0167167684,PLT_learning_02,B,2014_Apr_02_1350,P09,
stim_fb/ques.jpg,stim_fb/negf.jpg,stim_fb/posf.jpg,stim_02/a.jpg,stim_02/b.jpg,2,1,j,3,13,193,16,j,1,0.3166002609,02,03,60.0167167684,PLT_learning_02,B,2014_Apr_02_1350,P09,
stim_fb/ques.jpg,stim_fb/negf.jpg,stim_fb/posf.jpg,stim_02/b.jpg,stim_02/a.jpg,1,1,f,3,14,194,7,j,0,0.3165634553,02,03,60.0167167684,PLT_learning_02,B,2014_Apr_02_1350,P09,
stim_fb/ques.jpg,stim_fb/negf.jpg,stim_fb/posf.jpg,stim_02/c.jpg,stim_02/d.jpg,2,2,j,3,15,195,36,f,0,0.183347730665,02,03,60.0167167684,PLT_learning_02,B,2014_Apr_02_1350,P09,
stim_fb/ques.jpg,stim_fb/negf.jpg,stim_fb/posf.jpg,stim_02/c.jpg,stim_02/d.jpg,2,2,j,3,16,196,35,j,1,0.516558321522,02,03,60.0167167684,PLT_learning_02,B,2014_Apr_02_1350,P09,
stim_fb/ques.jpg,stim_fb/posf.jpg,stim_fb/negf.jpg,stim_02/b.jpg,stim_02/a.jpg,1,1,f,3,17,197,8,f,1,0.799730851156,02,03,60.0167167684,PLT_learning_02,B,2014_Apr_02_1350,P09,
stim_fb/ques.jpg,stim_fb/negf.jpg,stim_fb/posf.jpg,stim_02/b.jpg,stim_02/a.jpg,1,1,f,3,18,198,3,j,0,0.366593113612,02,03,60.0167167684,PLT_learning_02,B,2014_Apr_02_1350,P09,
stim_fb/ques.jpg,stim_fb/negf.jpg,stim_fb/posf.jpg,stim_02/a.jpg,stim_02/b.jpg,2,1,j,3,19,199,11,f,0,0.166687431344,02,03,60.0167167684,PLT_learning_02,B,2014_Apr_02_1350,P09,
stim_fb/ques.jpg,stim_fb/negf.jpg,stim_fb/posf.jpg,stim_02/f.jpg,stim_02/e.jpg,1,3,f,3,20,200,41,f,1,0.100015262985,02,03,60.0167167684,PLT_learning_02,B,2014_Apr_02_1350,P09,
stim_fb/ques.jpg,stim_fb/negf.jpg,stim_fb/posf.jpg,stim_02/d.jpg,stim_02/c.jpg,1,2,f,3,21,201,26,f,1,0.199949203581,02,03,60.0167167684,PLT_learning_02,B,2014_Apr_02_1350,P09,
stim_fb/ques.jpg,stim_fb/posf.jpg,stim_fb/negf.jpg,stim_02/e.jpg,stim_02/f.jpg,2,3,j,3,22,202,58,f,0,0.149950922359,02,03,60.0167167684,PLT_learning_02,B,2014_Apr_02_1350,P09,
stim_fb/ques.jpg,stim_fb/negf.jpg,stim_fb/posf.jpg,stim_02/f.jpg,stim_02/e.jpg,1,3,f,3,23,203,42,f,1,0.150012554745,02,03,60.0167167684,PLT_learning_02,B,2014_Apr_02_1350,P09,
stim_fb/ques.jpg,stim_fb/negf.jpg,stim_fb/posf.jpg,stim_02/b.jpg,stim_02/a.jpg,1,1,f,3,24,204,4,j,0,0.366620232103,02,03,60.0167167684,PLT_learning_02,B,2014_Apr_02_1350,P09,
stim_fb/ques.jpg,stim_fb/negf.jpg,stim_fb/posf.jpg,stim_02/d.jpg,stim_02/c.jpg,1,2,f,3,25,205,21,f,1,0.283274107434,02,03,60.0167167684,PLT_learning_02,B,2014_Apr_02_1350,P09,
stim_fb/ques.jpg,stim_fb/negf.jpg,stim_fb/posf.jpg,stim_02/b.jpg,stim_02/a.jpg,1,1,f,3,26,206,6,j,0,0.383278937456,02,03,60.0167167684,PLT_learning_02,B,2014_Apr_02_1350,P09,
stim_fb/ques.jpg,stim_fb/negf.jpg,stim_fb/posf.jpg,stim_02/e.jpg,stim_02/f.jpg,2,3,j,3,27,207,53,f,0,0.066672697676,02,03,60.0167167684,PLT_learning_02,B,2014_Apr_02_1350,P09,
stim_fb/ques.jpg,stim_fb/negf.jpg,stim_fb/posf.jpg,stim_02/d.jpg,stim_02/c.jpg,1,2,f,3,28,208,20,f,1,0.399954550889,02,03,60.0167167684,PLT_learning_02,B,2014_Apr_02_1350,P09,
stim_fb/ques.jpg,stim_fb/posf.jpg,stim_fb/negf.jpg,stim_02/b.jpg,stim_02/a.jpg,1,1,f,3,29,209,9,f,1,0.133343290113,02,03,60.0167167684,PLT_learning_02,B,2014_Apr_02_1350,P09,
stim_fb/ques.jpg,stim_fb/posf.jpg,stim_fb/negf.jpg,stim_02/d.jpg,stim_02/c.jpg,1,2,f,3,30,210,27,j,0,0.283336633046,02,03,60.0167167684,PLT_learning_02,B,2014_Apr_02_1350,P09,
stim_fb/ques.jpg,stim_fb/posf.jpg,stim_fb/negf.jpg,stim_02/f.jpg,stim_02/e.jpg,1,3,f,3,31,211,48,f,1,0.316612558505,02,03,60.0167167684,PLT_learning_02,B,2014_Apr_02_1350,P09,
stim_fb/ques.jpg,stim_fb/negf.jpg,stim_fb/posf.jpg,stim_02/e.jpg,stim_02/f.jpg,2,3,j,3,32,212,51,j,1,0.399985882866,02,03,60.0167167684,PLT_learning_02,B,2014_Apr_02_1350,P09,
stim_fb/ques.jpg,stim_fb/negf.jpg,stim_fb/posf.jpg,stim_02/d.jpg,stim_02/c.jpg,1,2,f,3,33,213,25,f,1,0.183311920542,02,03,60.0167167684,PLT_learning_02,B,2014_Apr_02_1350,P09,
stim_fb/ques.jpg,stim_fb/negf.jpg,stim_fb/posf.jpg,stim_02/a.jpg,stim_02/b.jpg,2,1,j,3,34,214,10,f,0,0.449986645263,02,03,60.0167167684,PLT_learning_02,B,2014_Apr_02_1350,P09,
stim_fb/ques.jpg,stim_fb/negf.jpg,stim_fb/posf.jpg,stim_02/a.jpg,stim_02/b.jpg,2,1,j,3,35,215,17,f,0,0.166640376237,02,03,60.0167167684,PLT_learning_02,B,2014_Apr_02_1350,P09,
stim_fb/ques.jpg,stim_fb/negf.jpg,stim_fb/posf.jpg,stim_02/c.jpg,stim_02/d.jpg,2,2,j,3,36,216,32,f,0,0.283362301929,02,03,60.0167167684,PLT_learning_02,B,2014_Apr_02_1350,P09,
stim_fb/ques.jpg,stim_fb/negf.jpg,stim_fb/posf.jpg,stim_02/b.jpg,stim_02/a.jpg,1,1,f,3,37,217,1,j,0,0.23340251952,02,03,60.0167167684,PLT_learning_02,B,2014_Apr_02_1350,P09,
stim_fb/ques.jpg,stim_fb/negf.jpg,stim_fb/posf.jpg,stim_02/c.jpg,stim_02/d.jpg,2,2,j,3,38,218,30,j,1,0.199985218213,02,03,60.0167167684,PLT_learning_02,B,2014_Apr_02_1350,P09,
stim_fb/ques.jpg,stim_fb/posf.jpg,stim_fb/negf.jpg,stim_02/e.jpg,stim_02/f.jpg,2,3,j,3,39,219,56,f,0,0.266678562272,02,03,60.0167167684,PLT_learning_02,B,2014_Apr_02_1350,P09,
stim_fb/ques.jpg,stim_fb/posf.jpg,stim_fb/negf.jpg,stim_02/c.jpg,stim_02/d.jpg,2,2,j,3,40,220,39,f,0,0.216602772149,02,03,60.0167167684,PLT_learning_02,B,2014_Apr_02_1350,P09,
stim_fb/ques.jpg,stim_fb/negf.jpg,stim_fb/posf.jpg,stim_02/e.jpg,stim_02/f.jpg,2,3,j,3,41,221,50,f,0,0.283315959594,02,03,60.0167167684,PLT_learning_02,B,2014_Apr_02_1350,P09,
stim_fb/ques.jpg,stim_fb/negf.jpg,stim_fb/posf.jpg,stim_02/c.jpg,stim_02/d.jpg,2,2,j,3,42,222,31,f,0,0.18329696432,02,03,60.0167167684,PLT_learning_02,B,2014_Apr_02_1350,P09,
stim_fb/ques.jpg,stim_fb/posf.jpg,stim_fb/negf.jpg,stim_02/e.jpg,stim_02/f.jpg,2,3,j,3,43,223,57,f,0,0.233339386397,02,03,60.0167167684,PLT_learning_02,B,2014_Apr_02_1350,P09,
stim_fb/ques.jpg,stim_fb/posf.jpg,stim_fb/negf.jpg,stim_02/f.jpg,stim_02/e.jpg,1,3,f,3,44,224,47,f,1,0.199966391357,02,03,60.0167167684,PLT_learning_02,B,2014_Apr_02_1350,P09,
stim_fb/ques.jpg,stim_fb/negf.jpg,stim_fb/posf.jpg,stim_02/a.jpg,stim_02/b.jpg,2,1,j,3,45,225,14,j,1,0.150077248752,02,03,60.0167167684,PLT_learning_02,B,2014_Apr_02_1350,P09,
stim_fb/ques.jpg,stim_fb/negf.jpg,stim_fb/posf.jpg,stim_02/a.jpg,stim_02/b.jpg,2,1,j,3,46,226,12,f,0,0.233303531163,02,03,60.0167167684,PLT_learning_02,B,2014_Apr_02_1350,P09,
stim_fb/ques.jpg,stim_fb/negf.jpg,stim_fb/posf.jpg,stim_02/c.jpg,stim_02/d.jpg,2,2,j,3,47,227,33,j,1,0.349942711924,02,03,60.0167167684,PLT_learning_02,B,2014_Apr_02_1350,P09,
stim_fb/ques.jpg,stim_fb/negf.jpg,stim_fb/posf.jpg,stim_02/c.jpg,stim_02/d.jpg,2,2,j,3,48,228,34,j,1,0.133333615035,02,03,60.0167167684,PLT_learning_02,B,2014_Apr_02_1350,P09,
stim_fb/ques.jpg,stim_fb/negf.jpg,stim_fb/posf.jpg,stim_02/e.jpg,stim_02/f.jpg,2,3,j,3,49,229,52,j,1,0.266629019974,02,03,60.0167167684,PLT_learning_02,B,2014_Apr_02_1350,P09,
stim_fb/ques.jpg,stim_fb/negf.jpg,stim_fb/posf.jpg,stim_02/d.jpg,stim_02/c.jpg,1,2,f,3,50,230,23,f,1,0.283279842708,02,03,60.0167167684,PLT_learning_02,B,2014_Apr_02_1350,P09,
stim_fb/ques.jpg,stim_fb/negf.jpg,stim_fb/posf.jpg,stim_02/b.jpg,stim_02/a.jpg,1,1,f,3,51,231,0,j,0,0.316551918587,02,03,60.0167167684,PLT_learning_02,B,2014_Apr_02_1350,P09,
stim_fb/ques.jpg,stim_fb/negf.jpg,stim_fb/posf.jpg,stim_02/b.jpg,stim_02/a.jpg,1,1,f,3,52,232,5,j,0,0.250044749871,02,03,60.0167167684,PLT_learning_02,B,2014_Apr_02_1350,P09,
stim_fb/ques.jpg,stim_fb/negf.jpg,stim_fb/posf.jpg,stim_02/d.jpg,stim_02/c.jpg,1,2,f,3,53,233,22,f,1,0.0333746341212,02,03,60.0167167684,PLT_learning_02,B,2014_Apr_02_1350,P09,
stim_fb/ques.jpg,stim_fb/posf.jpg,stim_fb/negf.jpg,stim_02/a.jpg,stim_02/b.jpg,2,1,j,3,54,234,18,f,0,0.816401210513,02,03,60.0167167684,PLT_learning_02,B,2014_Apr_02_1350,P09,
stim_fb/ques.jpg,stim_fb/posf.jpg,stim_fb/negf.jpg,stim_02/d.jpg,stim_02/c.jpg,1,2,f,3,55,235,29,f,1,0.499874906674,02,03,60.0167167684,PLT_learning_02,B,2014_Apr_02_1350,P09,
stim_fb/ques.jpg,stim_fb/posf.jpg,stim_fb/negf.jpg,stim_02/c.jpg,stim_02/d.jpg,2,2,j,3,56,236,37,f,0,0.0500341905927,02,03,60.0167167684,PLT_learning_02,B,2014_Apr_02_1350,P09,
stim_fb/ques.jpg,stim_fb/posf.jpg,stim_fb/negf.jpg,stim_02/a.jpg,stim_02/b.jpg,2,1,j,3,57,237,19,f,0,0.08335505389,02,03,60.0167167684,PLT_learning_02,B,2014_Apr_02_1350,P09,
stim_fb/ques.jpg,stim_fb/negf.jpg,stim_fb/posf.jpg,stim_02/a.jpg,stim_02/b.jpg,2,1,j,3,58,238,15,j,1,0.316653418195,02,03,60.0167167684,PLT_learning_02,B,2014_Apr_02_1350,P09,
stim_fb/ques.jpg,stim_fb/negf.jpg,stim_fb/posf.jpg,stim_02/e.jpg,stim_02/f.jpg,2,3,j,3,59,239,54,j,1,0.283287599013,02,03,60.0167167684,PLT_learning_02,B,2014_Apr_02_1350,P09,
stim_fb/ques.jpg,stim_fb/negf.jpg,stim_fb/posf.jpg,stim_02/c.jpg,stim_02/d.jpg,2,2,j,4,0,240,35,f,0,0.249978263402,02,03,60.0167167684,PLT_learning_02,B,2014_Apr_02_1350,P09,
stim_fb/ques.jpg,stim_fb/negf.jpg,stim_fb/posf.jpg,stim_02/b.jpg,stim_02/a.jpg,1,1,f,4,1,241,1,j,0,0.199982270877,02,03,60.0167167684,PLT_learning_02,B,2014_Apr_02_1350,P09,
stim_fb/ques.jpg,stim_fb/negf.jpg,stim_fb/posf.jpg,stim_02/f.jpg,stim_02/e.jpg,1,3,f,4,2,242,44,j,0,0.10000481799,02,03,60.0167167684,PLT_learning_02,B,2014_Apr_02_1350,P09,
stim_fb/ques.jpg,stim_fb/negf.jpg,stim_fb/posf.jpg,stim_02/d.jpg,stim_02/c.jpg,1,2,f,4,3,243,25,f,1,0.199992794066,02,03,60.0167167684,PLT_learning_02,B,2014_Apr_02_1350,P09,
stim_fb/ques.jpg,stim_fb/posf.jpg,stim_fb/negf.jpg,stim_02/d.jpg,stim_02/c.jpg,1,2,f,4,4,244,29,j,0,0.216640846907,02,03,60.0167167684,PLT_learning_02,B,2014_Apr_02_1350,P09,
stim_fb/ques.jpg,stim_fb/negf.jpg,stim_fb/posf.jpg,stim_02/d.jpg,stim_02/c.jpg,1,2,f,4,5,245,23,f,1,0.0334188080578,02,03,60.0167167684,PLT_learning_02,B,2014_Apr_02_1350,P09,
stim_fb/ques.jpg,stim_fb/posf.jpg,stim_fb/negf.jpg,stim_02/c.jpg,stim_02/d.jpg,2,2,j,4,6,246,39,f,0,0.10007595403,02,03,60.0167167684,PLT_learning_02,B,2014_Apr_02_1350,P09,
stim_fb/ques.jpg,stim_fb/posf.jpg,stim_fb/negf.jpg,stim_02/e.jpg,stim_02/f.jpg,2,3,j,4,7,247,58,f,0,0.166644577693,02,03,60.0167167684,PLT_learning_02,B,2014_Apr_02_1350,P09,
stim_fb/ques.jpg,stim_fb/negf.jpg,stim_fb/posf.jpg,stim_02/b.jpg,stim_02/a.jpg,1,1,f,4,8,248,3,f,1,0.066675320204,02,03,60.0167167684,PLT_learning_02,B,2014_Apr_02_1350,P09,
stim_fb/ques.jpg,stim_fb/negf.jpg,stim_fb/posf.jpg,stim_02/b.jpg,stim_02/a.jpg,1,1,f,4,9,249,2,f,1,0.216632329711,02,03,60.0167167684,PLT_learning_02,B,2014_Apr_02_1350,P09,
stim_fb/ques.jpg,stim_fb/negf.jpg,stim_fb/posf.jpg,stim_02/f.jpg,stim_02/e.jpg,1,3,f,4,10,250,42,j,0,0.116678849487,02,03,60.0167167684,PLT_learning_02,B,2014_Apr_02_1350,P09,
stim_fb/ques.jpg,stim_fb/negf.jpg,stim_fb/posf.jpg,stim_02/e.jpg,stim_02/f.jpg,2,3,j,4,11,251,52,j,1,0.200021061417,02,03,60.0167167684,PLT_learning_02,B,2014_Apr_02_1350,P09,
stim_fb/ques.jpg,stim_fb/negf.jpg,stim_fb/posf.jpg,stim_02/d.jpg,stim_02/c.jpg,1,2,f,4,12,252,26,j,0,0.266771520623,02,03,60.0167167684,PLT_learning_02,B,2014_Apr_02_1350,P09,
stim_fb/ques.jpg,stim_fb/negf.jpg,stim_fb/posf.jpg,stim_02/c.jpg,stim_02/d.jpg,2,2,j,4,13,253,36,j,1,0.250047101725,02,03,60.0167167684,PLT_learning_02,B,2014_Apr_02_1350,P09,
stim_fb/ques.jpg,stim_fb/posf.jpg,stim_fb/negf.jpg,stim_02/c.jpg,stim_02/d.jpg,2,2,j,4,14,254,37,j,1,0.283378428063,02,03,60.0167167684,PLT_learning_02,B,2014_Apr_02_1350,P09,
stim_fb/ques.jpg,stim_fb/negf.jpg,stim_fb/posf.jpg,stim_02/e.jpg,stim_02/f.jpg,2,3,j,4,15,255,51,j,1,0.249899473314,02,03,60.0167167684,PLT_learning_02,B,2014_Apr_02_1350,P09,
stim_fb/ques.jpg,stim_fb/posf.jpg,stim_fb/negf.jpg,stim_02/f.jpg,stim_02/e.jpg,1,3,f,4,16,256,48,j,0,0.350038377012,02,03,60.0167167684,PLT_learning_02,B,2014_Apr_02_1350,P09,
stim_fb/ques.jpg,stim_fb/negf.jpg,stim_fb/posf.jpg,stim_02/a.jpg,stim_02/b.jpg,2,1,j,4,17,257,15,f,0,0.233364715436,02,03,60.0167167684,PLT_learning_02,B,2014_Apr_02_1350,P09,
stim_fb/ques.jpg,stim_fb/negf.jpg,stim_fb/posf.jpg,stim_02/d.jpg,stim_02/c.jpg,1,2,f,4,18,258,22,f,1,0.250038355958,02,03,60.0167167684,PLT_learning_02,B,2014_Apr_02_1350,P09,
stim_fb/ques.jpg,stim_fb/negf.jpg,stim_fb/posf.jpg,stim_02/e.jpg,stim_02/f.jpg,2,3,j,4,19,259,55,f,0,0.24995891926,02,03,60.0167167684,PLT_learning_02,B,2014_Apr_02_1350,P09,
stim_fb/ques.jpg,stim_fb/posf.jpg,stim_fb/negf.jpg,stim_02/d.jpg,stim_02/c.jpg,1,2,f,4,20,260,27,j,0,0.499886046398,02,03,60.0167167684,PLT_learning_02,B,2014_Apr_02_1350,P09,
stim_fb/ques.jpg,stim_fb/negf.jpg,stim_fb/posf.jpg,stim_02/f.jpg,stim_02/e.jpg,1,3,f,4,21,261,40,j,0,0.383171925128,02,03,60.0167167684,PLT_learning_02,B,2014_Apr_02_1350,P09,
stim_fb/ques.jpg,stim_fb/negf.jpg,stim_fb/posf.jpg,stim_02/c.jpg,stim_02/d.jpg,2,2,j,4,22,262,30,f,0,0.466546753232,02,03,60.0167167684,PLT_learning_02,B,2014_Apr_02_1350,P09,
stim_fb/ques.jpg,stim_fb/negf.jpg,stim_fb/posf.jpg,stim_02/a.jpg,stim_02/b.jpg,2,1,j,4,23,263,10,None,0,,02,03,60.0167167684,PLT_learning_02,B,2014_Apr_02_1350,P09,
stim_fb/ques.jpg,stim_fb/negf.jpg,stim_fb/posf.jpg,stim_02/b.jpg,stim_02/a.jpg,1,1,f,4,24,264,5,j,0,0.316615981023,02,03,60.0167167684,PLT_learning_02,B,2014_Apr_02_1350,P09,
stim_fb/ques.jpg,stim_fb/negf.jpg,stim_fb/posf.jpg,stim_02/b.jpg,stim_02/a.jpg,1,1,f,4,25,265,4,f,1,0.383324040707,02,03,60.0167167684,PLT_learning_02,B,2014_Apr_02_1350,P09,
stim_fb/ques.jpg,stim_fb/negf.jpg,stim_fb/posf.jpg,stim_02/b.jpg,stim_02/a.jpg,1,1,f,4,26,266,6,f,1,0.283325072273,02,03,60.0167167684,PLT_learning_02,B,2014_Apr_02_1350,P09,
stim_fb/ques.jpg,stim_fb/posf.jpg,stim_fb/negf.jpg,stim_02/f.jpg,stim_02/e.jpg,1,3,f,4,27,267,46,None,0,,02,03,60.0167167684,PLT_learning_02,B,2014_Apr_02_1350,P09,
stim_fb/ques.jpg,stim_fb/negf.jpg,stim_fb/posf.jpg,stim_02/a.jpg,stim_02/b.jpg,2,1,j,4,28,268,17,j,1,0.283298735729,02,03,60.0167167684,PLT_learning_02,B,2014_Apr_02_1350,P09,
stim_fb/ques.jpg,stim_fb/negf.jpg,stim_fb/posf.jpg,stim_02/c.jpg,stim_02/d.jpg,2,2,j,4,29,269,32,f,0,0.150864307545,02,03,60.0167167684,PLT_learning_02,B,2014_Apr_02_1350,P09,
stim_fb/ques.jpg,stim_fb/negf.jpg,stim_fb/posf.jpg,stim_02/e.jpg,stim_02/f.jpg,2,3,j,4,30,270,53,j,1,0.0333752265951,02,03,60.0167167684,PLT_learning_02,B,2014_Apr_02_1350,P09,
stim_fb/ques.jpg,stim_fb/posf.jpg,stim_fb/negf.jpg,stim_02/e.jpg,stim_02/f.jpg,2,3,j,4,31,271,56,f,0,0.0333546674292,02,03,60.0167167684,PLT_learning_02,B,2014_Apr_02_1350,P09,
stim_fb/ques.jpg,stim_fb/negf.jpg,stim_fb/posf.jpg,stim_02/b.jpg,stim_02/a.jpg,1,1,f,4,32,272,0,f,1,0.249925286557,02,03,60.0167167684,PLT_learning_02,B,2014_Apr_02_1350,P09,
stim_fb/ques.jpg,stim_fb/negf.jpg,stim_fb/posf.jpg,stim_02/b.jpg,stim_02/a.jpg,1,1,f,4,33,273,7,j,0,0.199937218754,02,03,60.0167167684,PLT_learning_02,B,2014_Apr_02_1350,P09,
stim_fb/ques.jpg,stim_fb/negf.jpg,stim_fb/posf.jpg,stim_02/d.jpg,stim_02/c.jpg,1,2,f,4,34,274,21,f,1,0.266661924866,02,03,60.0167167684,PLT_learning_02,B,2014_Apr_02_1350,P09,
stim_fb/ques.jpg,stim_fb/negf.jpg,stim_fb/posf.jpg,stim_02/f.jpg,stim_02/e.jpg,1,3,f,4,35,275,43,f,1,0.333283248685,02,03,60.0167167684,PLT_learning_02,B,2014_Apr_02_1350,P09,
stim_fb/ques.jpg,stim_fb/negf.jpg,stim_fb/posf.jpg,stim_02/a.jpg,stim_02/b.jpg,2,1,j,4,36,276,14,f,0,0.449785727229,02,03,60.0167167684,PLT_learning_02,B,2014_Apr_02_1350,P09,
stim_fb/ques.jpg,stim_fb/negf.jpg,stim_fb/posf.jpg,stim_02/e.jpg,stim_02/f.jpg,2,3,j,4,37,277,50,j,1,0.0500235410882,02,03,60.0167167684,PLT_learning_02,B,2014_Apr_02_1350,P09,
stim_fb/ques.jpg,stim_fb/negf.jpg,stim_fb/posf.jpg,stim_02/a.jpg,stim_02/b.jpg,2,1,j,4,38,278,12,f,0,0.38324386116,02,03,60.0167167684,PLT_learning_02,B,2014_Apr_02_1350,P09,
stim_fb/ques.jpg,stim_fb/posf.jpg,stim_fb/negf.jpg,stim_02/e.jpg,stim_02/f.jpg,2,3,j,4,39,279,57,f,0,1.51618394981,02,03,60.0167167684,PLT_learning_02,B,2014_Apr_02_1350,P09,
stim_fb/ques.jpg,stim_fb/negf.jpg,stim_fb/posf.jpg,stim_02/a.jpg,stim_02/b.jpg,2,1,j,4,40,280,11,f,0,0.699791827911,02,03,60.0167167684,PLT_learning_02,B,2014_Apr_02_1350,P09,
stim_fb/ques.jpg,stim_fb/posf.jpg,stim_fb/negf.jpg,stim_02/d.jpg,stim_02/c.jpg,1,2,f,4,41,281,28,f,1,0.333279663763,02,03,60.0167167684,PLT_learning_02,B,2014_Apr_02_1350,P09,
stim_fb/ques.jpg,stim_fb/posf.jpg,stim_fb/negf.jpg,stim_02/f.jpg,stim_02/e.jpg,1,3,f,4,42,282,49,f,1,0.633253579847,02,03,60.0167167684,PLT_learning_02,B,2014_Apr_02_1350,P09,
stim_fb/ques.jpg,stim_fb/posf.jpg,stim_fb/negf.jpg,stim_02/b.jpg,stim_02/a.jpg,1,1,f,4,43,283,9,f,1,0.23330224396,02,03,60.0167167684,PLT_learning_02,B,2014_Apr_02_1350,P09,
stim_fb/ques.jpg,stim_fb/negf.jpg,stim_fb/posf.jpg,stim_02/c.jpg,stim_02/d.jpg,2,2,j,4,44,284,34,f,0,0.23336937403,02,03,60.0167167684,PLT_learning_02,B,2014_Apr_02_1350,P09,
stim_fb/ques.jpg,stim_fb/posf.jpg,stim_fb/negf.jpg,stim_02/b.jpg,stim_02/a.jpg,1,1,f,4,45,285,8,f,1,0.183274537505,02,03,60.0167167684,PLT_learning_02,B,2014_Apr_02_1350,P09,
stim_fb/ques.jpg,stim_fb/negf.jpg,stim_fb/posf.jpg,stim_02/d.jpg,stim_02/c.jpg,1,2,f,4,46,286,24,f,1,0.116648825765,02,03,60.0167167684,PLT_learning_02,B,2014_Apr_02_1350,P09,
stim_fb/ques.jpg,stim_fb/posf.jpg,stim_fb/negf.jpg,stim_02/f.jpg,stim_02/e.jpg,1,3,f,4,47,287,47,f,1,0.166674219464,02,03,60.0167167684,PLT_learning_02,B,2014_Apr_02_1350,P09,
stim_fb/ques.jpg,stim_fb/posf.jpg,stim_fb/negf.jpg,stim_02/a.jpg,stim_02/b.jpg,2,1,j,4,48,288,19,f,0,0.383270859351,02,03,60.0167167684,PLT_learning_02,B,2014_Apr_02_1350,P09,
stim_fb/ques.jpg,stim_fb/posf.jpg,stim_fb/negf.jpg,stim_02/a.jpg,stim_02/b.jpg,2,1,j,4,49,289,18,j,1,0.89977618899,02,03,60.0167167684,PLT_learning_02,B,2014_Apr_02_1350,P09,
stim_fb/ques.jpg,stim_fb/negf.jpg,stim_fb/posf.jpg,stim_02/c.jpg,stim_02/d.jpg,2,2,j,4,50,290,31,None,0,,02,03,60.0167167684,PLT_learning_02,B,2014_Apr_02_1350,P09,
stim_fb/ques.jpg,stim_fb/negf.jpg,stim_fb/posf.jpg,stim_02/c.jpg,stim_02/d.jpg,2,2,j,4,51,291,33,j,1,0.249978651369,02,03,60.0167167684,PLT_learning_02,B,2014_Apr_02_1350,P09,
stim_fb/ques.jpg,stim_fb/negf.jpg,stim_fb/posf.jpg,stim_02/a.jpg,stim_02/b.jpg,2,1,j,4,52,292,13,f,0,0.216620771946,02,03,60.0167167684,PLT_learning_02,B,2014_Apr_02_1350,P09,
stim_fb/ques.jpg,stim_fb/negf.jpg,stim_fb/posf.jpg,stim_02/f.jpg,stim_02/e.jpg,1,3,f,4,53,293,45,f,1,0.266630364319,02,03,60.0167167684,PLT_learning_02,B,2014_Apr_02_1350,P09,
stim_fb/ques.jpg,stim_fb/negf.jpg,stim_fb/posf.jpg,stim_02/d.jpg,stim_02/c.jpg,1,2,f,4,54,294,20,j,0,0.599924316643,02,03,60.0167167684,PLT_learning_02,B,2014_Apr_02_1350,P09,
stim_fb/ques.jpg,stim_fb/negf.jpg,stim_fb/posf.jpg,stim_02/e.jpg,stim_02/f.jpg,2,3,j,4,55,295,54,j,1,0.199911498742,02,03,60.0167167684,PLT_learning_02,B,2014_Apr_02_1350,P09,
stim_fb/ques.jpg,stim_fb/negf.jpg,stim_fb/posf.jpg,stim_02/a.jpg,stim_02/b.jpg,2,1,j,4,56,296,16,f,0,0.516588200885,02,03,60.0167167684,PLT_learning_02,B,2014_Apr_02_1350,P09,
stim_fb/ques.jpg,stim_fb/negf.jpg,stim_fb/posf.jpg,stim_02/f.jpg,stim_02/e.jpg,1,3,f,4,57,297,41,f,1,0.216597845889,02,03,60.0167167684,PLT_learning_02,B,2014_Apr_02_1350,P09,
stim_fb/ques.jpg,stim_fb/posf.jpg,stim_fb/negf.jpg,stim_02/c.jpg,stim_02/d.jpg,2,2,j,4,58,298,38,f,0,0.216668975913,02,03,60.0167167684,PLT_learning_02,B,2014_Apr_02_1350,P09,
stim_fb/ques.jpg,stim_fb/posf.jpg,stim_fb/negf.jpg,stim_02/e.jpg,stim_02/f.jpg,2,3,j,4,59,299,59,f,0,0.399938502949,02,03,60.0167167684,PLT_learning_02,B,2014_Apr_02_1350,P09,
stim_fb/ques.jpg,stim_fb/negf.jpg,stim_fb/posf.jpg,stim_02/c.jpg,stim_02/d.jpg,2,2,j,5,0,300,35,j,1,0.366601582689,02,03,60.0167167684,PLT_learning_02,B,2014_Apr_02_1350,P09,
stim_fb/ques.jpg,stim_fb/posf.jpg,stim_fb/negf.jpg,stim_02/c.jpg,stim_02/d.jpg,2,2,j,5,1,301,37,j,1,0.233318267839,02,03,60.0167167684,PLT_learning_02,B,2014_Apr_02_1350,P09,
stim_fb/ques.jpg,stim_fb/negf.jpg,stim_fb/posf.jpg,stim_02/c.jpg,stim_02/d.jpg,2,2,j,5,2,302,31,f,0,0.0666930763937,02,03,60.0167167684,PLT_learning_02,B,2014_Apr_02_1350,P09,
stim_fb/ques.jpg,stim_fb/negf.jpg,stim_fb/posf.jpg,stim_02/f.jpg,stim_02/e.jpg,1,3,f,5,3,303,44,f,1,0.216661547426,02,03,60.0167167684,PLT_learning_02,B,2014_Apr_02_1350,P09,
stim_fb/ques.jpg,stim_fb/posf.jpg,stim_fb/negf.jpg,stim_02/d.jpg,stim_02/c.jpg,1,2,f,5,4,304,28,f,1,0.31667815175,02,03,60.0167167684,PLT_learning_02,B,2014_Apr_02_1350,P09,
stim_fb/ques.jpg,stim_fb/posf.jpg,stim_fb/negf.jpg,stim_02/a.jpg,stim_02/b.jpg,2,1,j,5,5,305,18,f,0,0.266676787855,02,03,60.0167167684,PLT_learning_02,B,2014_Apr_02_1350,P09,
stim_fb/ques.jpg,stim_fb/negf.jpg,stim_fb/posf.jpg,stim_02/a.jpg,stim_02/b.jpg,2,1,j,5,6,306,13,f,0,0.283308227351,02,03,60.0167167684,PLT_learning_02,B,2014_Apr_02_1350,P09,
stim_fb/ques.jpg,stim_fb/negf.jpg,stim_fb/posf.jpg,stim_02/f.jpg,stim_02/e.jpg,1,3,f,5,7,307,41,f,1,0.299897171085,02,03,60.0167167684,PLT_learning_02,B,2014_Apr_02_1350,P09,
stim_fb/ques.jpg,stim_fb/negf.jpg,stim_fb/posf.jpg,stim_02/a.jpg,stim_02/b.jpg,2,1,j,5,8,308,15,j,1,0.366550662963,02,03,60.0167167684,PLT_learning_02,B,2014_Apr_02_1350,P09,
stim_fb/ques.jpg,stim_fb/negf.jpg,stim_fb/posf.jpg,stim_02/a.jpg,stim_02/b.jpg,2,1,j,5,9,309,17,f,0,0.166646084443,02,03,60.0167167684,PLT_learning_02,B,2014_Apr_02_1350,P09,
stim_fb/ques.jpg,stim_fb/negf.jpg,stim_fb/posf.jpg,stim_02/f.jpg,stim_02/e.jpg,1,3,f,5,10,310,45,j,0,0.0167010898376,02,03,60.0167167684,PLT_learning_02,B,2014_Apr_02_1350,P09,
stim_fb/ques.jpg,stim_fb/posf.jpg,stim_fb/negf.jpg,stim_02/e.jpg,stim_02/f.jpg,2,3,j,5,11,311,56,f,0,0.149995505314,02,03,60.0167167684,PLT_learning_02,B,2014_Apr_02_1350,P09,
stim_fb/ques.jpg,stim_fb/posf.jpg,stim_fb/negf.jpg,stim_02/b.jpg,stim_02/a.jpg,1,1,f,5,12,312,8,f,1,0.0833729905298,02,03,60.0167167684,PLT_learning_02,B,2014_Apr_02_1350,P09,
stim_fb/ques.jpg,stim_fb/negf.jpg,stim_fb/posf.jpg,stim_02/b.jpg,stim_02/a.jpg,1,1,f,5,13,313,1,j,0,0.216581653591,02,03,60.0167167684,PLT_learning_02,B,2014_Apr_02_1350,P09,
stim_fb/ques.jpg,stim_fb/negf.jpg,stim_fb/posf.jpg,stim_02/d.jpg,stim_02/c.jpg,1,2,f,5,14,314,21,j,0,0.416548192314,02,03,60.0167167684,PLT_learning_02,B,2014_Apr_02_1350,P09,
stim_fb/ques.jpg,stim_fb/posf.jpg,stim_fb/negf.jpg,stim_02/d.jpg,stim_02/c.jpg,1,2,f,5,15,315,29,j,0,0.183299099634,02,03,60.0167167684,PLT_learning_02,B,2014_Apr_02_1350,P09,
stim_fb/ques.jpg,stim_fb/posf.jpg,stim_fb/negf.jpg,stim_02/f.jpg,stim_02/e.jpg,1,3,f,5,16,316,47,f,1,0.283282381026,02,03,60.0167167684,PLT_learning_02,B,2014_Apr_02_1350,P09,
stim_fb/ques.jpg,stim_fb/negf.jpg,stim_fb/posf.jpg,stim_02/d.jpg,stim_02/c.jpg,1,2,f,5,17,317,26,f,1,0.24995062161,02,03,60.0167167684,PLT_learning_02,B,2014_Apr_02_1350,P09,
stim_fb/ques.jpg,stim_fb/negf.jpg,stim_fb/posf.jpg,stim_02/b.jpg,stim_02/a.jpg,1,1,f,5,18,318,6,j,0,0.083305261971,02,03,60.0167167684,PLT_learning_02,B,2014_Apr_02_1350,P09,
stim_fb/ques.jpg,stim_fb/negf.jpg,stim_fb/posf.jpg,stim_02/a.jpg,stim_02/b.jpg,2,1,j,5,19,319,14,f,0,0.100051563328,02,03,60.0167167684,PLT_learning_02,B,2014_Apr_02_1350,P09,
stim_fb/ques.jpg,stim_fb/negf.jpg,stim_fb/posf.jpg,stim_02/e.jpg,stim_02/f.jpg,2,3,j,5,20,320,55,f,0,0.566546999846,02,03,60.0167167684,PLT_learning_02,B,2014_Apr_02_1350,P09,
stim_fb/ques.jpg,stim_fb/negf.jpg,stim_fb/posf.jpg,stim_02/b.jpg,stim_02/a.jpg,1,1,f,5,21,321,4,j,0,0.233383981384,02,03,60.0167167684,PLT_learning_02,B,2014_Apr_02_1350,P09,
stim_fb/ques.jpg,stim_fb/posf.jpg,stim_fb/negf.jpg,stim_02/c.jpg,stim_02/d.jpg,2,2,j,5,22,322,39,f,0,0.0500109577715,02,03,60.0167167684,PLT_learning_02,B,2014_Apr_02_1350,P09,
stim_fb/ques.jpg,stim_fb/negf.jpg,stim_fb/posf.jpg,stim_02/f.jpg,stim_02/e.jpg,1,3,f,5,23,323,43,j,0,0.0666436333422,02,03,60.0167167684,PLT_learning_02,B,2014_Apr_02_1350,P09,
stim_fb/ques.jpg,stim_fb/posf.jpg,stim_fb/negf.jpg,stim_02/e.jpg,stim_02/f.jpg,2,3,j,5,24,324,58,f,0,0.349988043744,02,03,60.0167167684,PLT_learning_02,B,2014_Apr_02_1350,P09,
stim_fb/ques.jpg,stim_fb/negf.jpg,stim_fb/posf.jpg,stim_02/e.jpg,stim_02/f.jpg,2,3,j,5,25,325,50,j,1,0.433236358988,02,03,60.0167167684,PLT_learning_02,B,2014_Apr_02_1350,P09,
stim_fb/ques.jpg,stim_fb/posf.jpg,stim_fb/negf.jpg,stim_02/a.jpg,stim_02/b.jpg,2,1,j,5,26,326,19,f,0,0.149995989519,02,03,60.0167167684,PLT_learning_02,B,2014_Apr_02_1350,P09,
stim_fb/ques.jpg,stim_fb/negf.jpg,stim_fb/posf.jpg,stim_02/b.jpg,stim_02/a.jpg,1,1,f,5,27,327,0,j,0,0.0333106528869,02,03,60.0167167684,PLT_learning_02,B,2014_Apr_02_1350,P09,
stim_fb/ques.jpg,stim_fb/negf.jpg,stim_fb/posf.jpg,stim_02/d.jpg,stim_02/c.jpg,1,2,f,5,28,328,23,j,0,0.399890918524,02,03,60.0167167684,PLT_learning_02,B,2014_Apr_02_1350,P09,
stim_fb/ques.jpg,stim_fb/posf.jpg,stim_fb/negf.jpg,stim_02/f.jpg,stim_02/e.jpg,1,3,f,5,29,329,49,f,1,0.233345738206,02,03,60.0167167684,PLT_learning_02,B,2014_Apr_02_1350,P09,
stim_fb/ques.jpg,stim_fb/negf.jpg,stim_fb/posf.jpg,stim_02/f.jpg,stim_02/e.jpg,1,3,f,5,30,330,42,f,1,0.0833505577011,02,03,60.0167167684,PLT_learning_02,B,2014_Apr_02_1350,P09,
stim_fb/ques.jpg,stim_fb/negf.jpg,stim_fb/posf.jpg,stim_02/a.jpg,stim_02/b.jpg,2,1,j,5,31,331,12,j,1,0.349957235068,02,03,60.0167167684,PLT_learning_02,B,2014_Apr_02_1350,P09,
stim_fb/ques.jpg,stim_fb/posf.jpg,stim_fb/negf.jpg,stim_02/b.jpg,stim_02/a.jpg,1,1,f,5,32,332,9,f,1,0.483200547363,02,03,60.0167167684,PLT_learning_02,B,2014_Apr_02_1350,P09,
stim_fb/ques.jpg,stim_fb/negf.jpg,stim_fb/posf.jpg,stim_02/b.jpg,stim_02/a.jpg,1,1,f,5,33,333,5,j,0,0.283375604035,02,03,60.0167167684,PLT_learning_02,B,2014_Apr_02_1350,P09,
stim_fb/ques.jpg,stim_fb/negf.jpg,stim_fb/posf.jpg,stim_02/b.jpg,stim_02/a.jpg,1,1,f,5,34,334,7,j,0,0.399950881757,02,03,60.0167167684,PLT_learning_02,B,2014_Apr_02_1350,P09,
stim_fb/ques.jpg,stim_fb/negf.jpg,stim_fb/posf.jpg,stim_02/e.jpg,stim_02/f.jpg,2,3,j,5,35,335,52,f,0,0.91642248546,02,03,60.0167167684,PLT_learning_02,B,2014_Apr_02_1350,P09,
stim_fb/ques.jpg,stim_fb/negf.jpg,stim_fb/posf.jpg,stim_02/e.jpg,stim_02/f.jpg,2,3,j,5,36,336,51,j,1,0.366586954282,02,03,60.0167167684,PLT_learning_02,B,2014_Apr_02_1350,P09,
stim_fb/ques.jpg,stim_fb/negf.jpg,stim_fb/posf.jpg,stim_02/c.jpg,stim_02/d.jpg,2,2,j,5,37,337,34,j,1,0.249949758461,02,03,60.0167167684,PLT_learning_02,B,2014_Apr_02_1350,P09,
stim_fb/ques.jpg,stim_fb/negf.jpg,stim_fb/posf.jpg,stim_02/d.jpg,stim_02/c.jpg,1,2,f,5,38,338,25,j,0,0.416647237813,02,03,60.0167167684,PLT_learning_02,B,2014_Apr_02_1350,P09,
stim_fb/ques.jpg,stim_fb/negf.jpg,stim_fb/posf.jpg,stim_02/a.jpg,stim_02/b.jpg,2,1,j,5,39,339,11,j,1,0.31655149754,02,03,60.0167167684,PLT_learning_02,B,2014_Apr_02_1350,P09,
stim_fb/ques.jpg,stim_fb/negf.jpg,stim_fb/posf.jpg,stim_02/e.jpg,stim_02/f.jpg,2,3,j,5,40,340,54,j,1,0.0333397653412,02,03,60.0167167684,PLT_learning_02,B,2014_Apr_02_1350,P09,
stim_fb/ques.jpg,stim_fb/posf.jpg,stim_fb/negf.jpg,stim_02/e.jpg,stim_02/f.jpg,2,3,j,5,41,341,57,j,1,0.38323819205,02,03,60.0167167684,PLT_learning_02,B,2014_Apr_02_1350,P09,
stim_fb/ques.jpg,stim_fb/negf.jpg,stim_fb/posf.jpg,stim_02/c.jpg,stim_02/d.jpg,2,2,j,5,42,342,36,j,1,0.233261291038,02,03,60.0167167684,PLT_learning_02,B,2014_Apr_02_1350,P09,
stim_fb/ques.jpg,stim_fb/posf.jpg,stim_fb/negf.jpg,stim_02/f.jpg,stim_02/e.jpg,1,3,f,5,43,343,48,f,1,0.100109983721,02,03,60.0167167684,PLT_learning_02,B,2014_Apr_02_1350,P09,
stim_fb/ques.jpg,stim_fb/posf.jpg,stim_fb/negf.jpg,stim_02/f.jpg,stim_02/e.jpg,1,3,f,5,44,344,46,f,1,0.333263245903,02,03,60.0167167684,PLT_learning_02,B,2014_Apr_02_1350,P09,
stim_fb/ques.jpg,stim_fb/negf.jpg,stim_fb/posf.jpg,stim_02/c.jpg,stim_02/d.jpg,2,2,j,5,45,345,33,j,1,0.84974315628,02,03,60.0167167684,PLT_learning_02,B,2014_Apr_02_1350,P09,
stim_fb/ques.jpg,stim_fb/negf.jpg,stim_fb/posf.jpg,stim_02/b.jpg,stim_02/a.jpg,1,1,f,5,46,346,2,j,0,0.299939739025,02,03,60.0167167684,PLT_learning_02,B,2014_Apr_02_1350,P09,
stim_fb/ques.jpg,stim_fb/negf.jpg,stim_fb/posf.jpg,stim_02/e.jpg,stim_02/f.jpg,2,3,j,5,47,347,53,f,0,0.399911432578,02,03,60.0167167684,PLT_learning_02,B,2014_Apr_02_1350,P09,
stim_fb/ques.jpg,stim_fb/negf.jpg,stim_fb/posf.jpg,stim_02/d.jpg,stim_02/c.jpg,1,2,f,5,48,348,24,f,1,0.283301472539,02,03,60.0167167684,PLT_learning_02,B,2014_Apr_02_1350,P09,
stim_fb/ques.jpg,stim_fb/negf.jpg,stim_fb/posf.jpg,stim_02/d.jpg,stim_02/c.jpg,1,2,f,5,49,349,22,f,1,0.38326518122,02,03,60.0167167684,PLT_learning_02,B,2014_Apr_02_1350,P09,
stim_fb/ques.jpg,stim_fb/negf.jpg,stim_fb/posf.jpg,stim_02/a.jpg,stim_02/b.jpg,2,1,j,5,50,350,10,j,1,0.366560713976,02,03,60.0167167684,PLT_learning_02,B,2014_Apr_02_1350,P09,
stim_fb/ques.jpg,stim_fb/posf.jpg,stim_fb/negf.jpg,stim_02/c.jpg,stim_02/d.jpg,2,2,j,5,51,351,38,f,0,0.349924167773,02,03,60.0167167684,PLT_learning_02,B,2014_Apr_02_1350,P09,
stim_fb/ques.jpg,stim_fb/negf.jpg,stim_fb/posf.jpg,stim_02/c.jpg,stim_02/d.jpg,2,2,j,5,52,352,30,j,1,0.483232649255,02,03,60.0167167684,PLT_learning_02,B,2014_Apr_02_1350,P09,
stim_fb/ques.jpg,stim_fb/negf.jpg,stim_fb/posf.jpg,stim_02/d.jpg,stim_02/c.jpg,1,2,f,5,53,353,20,f,1,0.533188350507,02,03,60.0167167684,PLT_learning_02,B,2014_Apr_02_1350,P09,
stim_fb/ques.jpg,stim_fb/negf.jpg,stim_fb/posf.jpg,stim_02/b.jpg,stim_02/a.jpg,1,1,f,5,54,354,3,f,1,0.350003754845,02,03,60.0167167684,PLT_learning_02,B,2014_Apr_02_1350,P09,
stim_fb/ques.jpg,stim_fb/negf.jpg,stim_fb/posf.jpg,stim_02/f.jpg,stim_02/e.jpg,1,3,f,5,55,355,40,f,1,0.383251605434,02,03,60.0167167684,PLT_learning_02,B,2014_Apr_02_1350,P09,
stim_fb/ques.jpg,stim_fb/negf.jpg,stim_fb/posf.jpg,stim_02/a.jpg,stim_02/b.jpg,2,1,j,5,56,356,16,f,0,0.499887971188,02,03,60.0167167684,PLT_learning_02,B,2014_Apr_02_1350,P09,
stim_fb/ques.jpg,stim_fb/posf.jpg,stim_fb/negf.jpg,stim_02/e.jpg,stim_02/f.jpg,2,3,j,5,57,357,59,f,0,0.466544560776,02,03,60.0167167684,PLT_learning_02,B,2014_Apr_02_1350,P09,
stim_fb/ques.jpg,stim_fb/negf.jpg,stim_fb/posf.jpg,stim_02/c.jpg,stim_02/d.jpg,2,2,j,5,58,358,32,f,0,0.0999796874476,02,03,60.0167167684,PLT_learning_02,B,2014_Apr_02_1350,P09,
stim_fb/ques.jpg,stim_fb/posf.jpg,stim_fb/negf.jpg,stim_02/d.jpg,stim_02/c.jpg,1,2,f,5,59,359,27,f,1,0.43322454258,02,03,60.0167167684,PLT_learning_02,B,2014_Apr_02_1350,P09,
