Fb3,Fb2,Fb1,Symbol2,Symbol1,PosCond,Pair,Correct,trials.thisRepN,trials.thisTrialN,trials.thisN,trials.thisIndex,Response.keys,Response.corr,Response.rt,Version,Session Number,frameRate,expName,StimCondition,date,Participant,
stim_fb/ques.jpg,stim_fb/negf.jpg,stim_fb/posf.jpg,stim_01/a.jpg,stim_01/b.jpg,2,1,j,0,0,0,12,j,1,1.31627296938,01,02,60.0191464151,PLT_learning_01,B,2014_Feb_17_1516,P10,
stim_fb/ques.jpg,stim_fb/negf.jpg,stim_fb/posf.jpg,stim_01/b.jpg,stim_01/a.jpg,1,1,f,0,1,1,0,f,1,0.899773018247,01,02,60.0191464151,PLT_learning_01,B,2014_Feb_17_1516,P10,
stim_fb/ques.jpg,stim_fb/negf.jpg,stim_fb/posf.jpg,stim_01/b.jpg,stim_01/a.jpg,1,1,f,0,2,2,7,f,1,0.9997144232,01,02,60.0191464151,PLT_learning_01,B,2014_Feb_17_1516,P10,
stim_fb/ques.jpg,stim_fb/posf.jpg,stim_fb/negf.jpg,stim_01/c.jpg,stim_01/d.jpg,2,2,j,0,3,3,38,j,1,1.19965308532,01,02,60.0191464151,PLT_learning_01,B,2014_Feb_17_1516,P10,
stim_fb/ques.jpg,stim_fb/posf.jpg,stim_fb/negf.jpg,stim_01/e.jpg,stim_01/f.jpg,2,3,j,0,4,4,59,j,1,1.14966771979,01,02,60.0191464151,PLT_learning_01,B,2014_Feb_17_1516,P10,
stim_fb/ques.jpg,stim_fb/posf.jpg,stim_fb/negf.jpg,stim_01/a.jpg,stim_01/b.jpg,2,1,j,0,5,5,18,j,1,0.999712639754,01,02,60.0191464151,PLT_learning_01,B,2014_Feb_17_1516,P10,
stim_fb/ques.jpg,stim_fb/negf.jpg,stim_fb/posf.jpg,stim_01/d.jpg,stim_01/c.jpg,1,2,f,0,6,6,22,f,1,1.36626044015,01,02,60.0191464151,PLT_learning_01,B,2014_Feb_17_1516,P10,
stim_fb/ques.jpg,stim_fb/posf.jpg,stim_fb/negf.jpg,stim_01/c.jpg,stim_01/d.jpg,2,2,j,0,7,7,37,j,1,0.849767162653,01,02,60.0191464151,PLT_learning_01,B,2014_Feb_17_1516,P10,
stim_fb/ques.jpg,stim_fb/negf.jpg,stim_fb/posf.jpg,stim_01/b.jpg,stim_01/a.jpg,1,1,f,0,8,8,6,f,1,0.999707656334,01,02,60.0191464151,PLT_learning_01,B,2014_Feb_17_1516,P10,
stim_fb/ques.jpg,stim_fb/posf.jpg,stim_fb/negf.jpg,stim_01/d.jpg,stim_01/c.jpg,1,2,f,0,9,9,28,j,0,0.86636806039,01,02,60.0191464151,PLT_learning_01,B,2014_Feb_17_1516,P10,
stim_fb/ques.jpg,stim_fb/negf.jpg,stim_fb/posf.jpg,stim_01/c.jpg,stim_01/d.jpg,2,2,j,0,10,10,34,f,0,1.18299910828,01,02,60.0191464151,PLT_learning_01,B,2014_Feb_17_1516,P10,
stim_fb/ques.jpg,stim_fb/negf.jpg,stim_fb/posf.jpg,stim_01/a.jpg,stim_01/b.jpg,2,1,j,0,11,11,10,f,0,1.18301503297,01,02,60.0191464151,PLT_learning_01,B,2014_Feb_17_1516,P10,
stim_fb/ques.jpg,stim_fb/negf.jpg,stim_fb/posf.jpg,stim_01/b.jpg,stim_01/a.jpg,1,1,f,0,12,12,5,f,1,1.16632250284,01,02,60.0191464151,PLT_learning_01,B,2014_Feb_17_1516,P10,
stim_fb/ques.jpg,stim_fb/posf.jpg,stim_fb/negf.jpg,stim_01/b.jpg,stim_01/a.jpg,1,1,f,0,13,13,9,f,1,0.899761682995,01,02,60.0191464151,PLT_learning_01,B,2014_Feb_17_1516,P10,
stim_fb/ques.jpg,stim_fb/negf.jpg,stim_fb/posf.jpg,stim_01/b.jpg,stim_01/a.jpg,1,1,f,0,14,14,2,f,1,0.866452742461,01,02,60.0191464151,PLT_learning_01,B,2014_Feb_17_1516,P10,
stim_fb/ques.jpg,stim_fb/negf.jpg,stim_fb/posf.jpg,stim_01/d.jpg,stim_01/c.jpg,1,2,f,0,15,15,26,j,0,1.16636447245,01,02,60.0191464151,PLT_learning_01,B,2014_Feb_17_1516,P10,
stim_fb/ques.jpg,stim_fb/negf.jpg,stim_fb/posf.jpg,stim_01/b.jpg,stim_01/a.jpg,1,1,f,0,16,16,1,f,1,0.799791772994,01,02,60.0191464151,PLT_learning_01,B,2014_Feb_17_1516,P10,
stim_fb/ques.jpg,stim_fb/negf.jpg,stim_fb/posf.jpg,stim_01/d.jpg,stim_01/c.jpg,1,2,f,0,17,17,21,j,0,1.33292148781,01,02,60.0191464151,PLT_learning_01,B,2014_Feb_17_1516,P10,
stim_fb/ques.jpg,stim_fb/negf.jpg,stim_fb/posf.jpg,stim_01/e.jpg,stim_01/f.jpg,2,3,j,0,18,18,52,f,0,1.03301500289,01,02,60.0191464151,PLT_learning_01,B,2014_Feb_17_1516,P10,
stim_fb/ques.jpg,stim_fb/negf.jpg,stim_fb/posf.jpg,stim_01/f.jpg,stim_01/e.jpg,1,3,f,0,19,19,43,f,1,1.34960733228,01,02,60.0191464151,PLT_learning_01,B,2014_Feb_17_1516,P10,
stim_fb/ques.jpg,stim_fb/negf.jpg,stim_fb/posf.jpg,stim_01/a.jpg,stim_01/b.jpg,2,1,j,0,20,20,15,j,1,1.33295680784,01,02,60.0191464151,PLT_learning_01,B,2014_Feb_17_1516,P10,
stim_fb/ques.jpg,stim_fb/negf.jpg,stim_fb/posf.jpg,stim_01/e.jpg,stim_01/f.jpg,2,3,j,0,21,21,51,f,0,1.16632866219,01,02,60.0191464151,PLT_learning_01,B,2014_Feb_17_1516,P10,
stim_fb/ques.jpg,stim_fb/negf.jpg,stim_fb/posf.jpg,stim_01/d.jpg,stim_01/c.jpg,1,2,f,0,22,22,23,f,1,1.1496656356,01,02,60.0191464151,PLT_learning_01,B,2014_Feb_17_1516,P10,
stim_fb/ques.jpg,stim_fb/negf.jpg,stim_fb/posf.jpg,stim_01/b.jpg,stim_01/a.jpg,1,1,f,0,23,23,4,f,1,1.08303798317,01,02,60.0191464151,PLT_learning_01,B,2014_Feb_17_1516,P10,
stim_fb/ques.jpg,stim_fb/posf.jpg,stim_fb/negf.jpg,stim_01/f.jpg,stim_01/e.jpg,1,3,f,0,24,24,48,j,0,0.983040434282,01,02,60.0191464151,PLT_learning_01,B,2014_Feb_17_1516,P10,
stim_fb/ques.jpg,stim_fb/negf.jpg,stim_fb/posf.jpg,stim_01/f.jpg,stim_01/e.jpg,1,3,f,0,25,25,45,j,0,1.13301380591,01,02,60.0191464151,PLT_learning_01,B,2014_Feb_17_1516,P10,
stim_fb/ques.jpg,stim_fb/posf.jpg,stim_fb/negf.jpg,stim_01/a.jpg,stim_01/b.jpg,2,1,j,0,26,26,19,j,1,1.11632923061,01,02,60.0191464151,PLT_learning_01,B,2014_Feb_17_1516,P10,
stim_fb/ques.jpg,stim_fb/negf.jpg,stim_fb/posf.jpg,stim_01/d.jpg,stim_01/c.jpg,1,2,f,0,27,27,24,f,1,1.23298171893,01,02,60.0191464151,PLT_learning_01,B,2014_Feb_17_1516,P10,
stim_fb/ques.jpg,stim_fb/posf.jpg,stim_fb/negf.jpg,stim_01/f.jpg,stim_01/e.jpg,1,3,f,0,28,28,49,j,0,0.633155789807,01,02,60.0191464151,PLT_learning_01,B,2014_Feb_17_1516,P10,
stim_fb/ques.jpg,stim_fb/posf.jpg,stim_fb/negf.jpg,stim_01/f.jpg,stim_01/e.jpg,1,3,f,0,29,29,47,f,1,1.19963636063,01,02,60.0191464151,PLT_learning_01,B,2014_Feb_17_1516,P10,
stim_fb/ques.jpg,stim_fb/negf.jpg,stim_fb/posf.jpg,stim_01/f.jpg,stim_01/e.jpg,1,3,f,0,30,30,44,j,0,0.849773063361,01,02,60.0191464151,PLT_learning_01,B,2014_Feb_17_1516,P10,
stim_fb/ques.jpg,stim_fb/negf.jpg,stim_fb/posf.jpg,stim_01/c.jpg,stim_01/d.jpg,2,2,j,0,31,31,35,j,1,1.33304522823,01,02,60.0191464151,PLT_learning_01,B,2014_Feb_17_1516,P10,
stim_fb/ques.jpg,stim_fb/posf.jpg,stim_fb/negf.jpg,stim_01/c.jpg,stim_01/d.jpg,2,2,j,0,32,32,39,j,1,0.983036563634,01,02,60.0191464151,PLT_learning_01,B,2014_Feb_17_1516,P10,
stim_fb/ques.jpg,stim_fb/negf.jpg,stim_fb/posf.jpg,stim_01/e.jpg,stim_01/f.jpg,2,3,j,0,33,33,54,f,0,0.933061198036,01,02,60.0191464151,PLT_learning_01,B,2014_Feb_17_1516,P10,
stim_fb/ques.jpg,stim_fb/posf.jpg,stim_fb/negf.jpg,stim_01/b.jpg,stim_01/a.jpg,1,1,f,0,34,34,8,f,1,1.1663614048,01,02,60.0191464151,PLT_learning_01,B,2014_Feb_17_1516,P10,
stim_fb/ques.jpg,stim_fb/negf.jpg,stim_fb/posf.jpg,stim_01/a.jpg,stim_01/b.jpg,2,1,j,0,35,35,13,f,0,1.5828286073,01,02,60.0191464151,PLT_learning_01,B,2014_Feb_17_1516,P10,
stim_fb/ques.jpg,stim_fb/negf.jpg,stim_fb/posf.jpg,stim_01/a.jpg,stim_01/b.jpg,2,1,j,0,36,36,11,f,0,1.29965522665,01,02,60.0191464151,PLT_learning_01,B,2014_Feb_17_1516,P10,
stim_fb/ques.jpg,stim_fb/negf.jpg,stim_fb/posf.jpg,stim_01/e.jpg,stim_01/f.jpg,2,3,j,0,37,37,53,j,1,1.31626166721,01,02,60.0191464151,PLT_learning_01,B,2014_Feb_17_1516,P10,
stim_fb/ques.jpg,stim_fb/negf.jpg,stim_fb/posf.jpg,stim_01/c.jpg,stim_01/d.jpg,2,2,j,0,38,38,36,j,1,0.999718468282,01,02,60.0191464151,PLT_learning_01,B,2014_Feb_17_1516,P10,
stim_fb/ques.jpg,stim_fb/negf.jpg,stim_fb/posf.jpg,stim_01/a.jpg,stim_01/b.jpg,2,1,j,0,39,39,14,j,1,1.13295906347,01,02,60.0191464151,PLT_learning_01,B,2014_Feb_17_1516,P10,
stim_fb/ques.jpg,stim_fb/negf.jpg,stim_fb/posf.jpg,stim_01/c.jpg,stim_01/d.jpg,2,2,j,0,40,40,32,j,1,0.849781132472,01,02,60.0191464151,PLT_learning_01,B,2014_Feb_17_1516,P10,
stim_fb/ques.jpg,stim_fb/negf.jpg,stim_fb/posf.jpg,stim_01/b.jpg,stim_01/a.jpg,1,1,f,0,41,41,3,f,1,1.11639166623,01,02,60.0191464151,PLT_learning_01,B,2014_Feb_17_1516,P10,
stim_fb/ques.jpg,stim_fb/negf.jpg,stim_fb/posf.jpg,stim_01/d.jpg,stim_01/c.jpg,1,2,f,0,42,42,20,f,1,1.11630695108,01,02,60.0191464151,PLT_learning_01,B,2014_Feb_17_1516,P10,
stim_fb/ques.jpg,stim_fb/negf.jpg,stim_fb/posf.jpg,stim_01/f.jpg,stim_01/e.jpg,1,3,f,0,43,43,42,j,0,1.39963636965,01,02,60.0191464151,PLT_learning_01,B,2014_Feb_17_1516,P10,
stim_fb/ques.jpg,stim_fb/negf.jpg,stim_fb/posf.jpg,stim_01/a.jpg,stim_01/b.jpg,2,1,j,0,44,44,17,j,1,1.13304153503,01,02,60.0191464151,PLT_learning_01,B,2014_Feb_17_1516,P10,
stim_fb/ques.jpg,stim_fb/posf.jpg,stim_fb/negf.jpg,stim_01/d.jpg,stim_01/c.jpg,1,2,f,0,45,45,27,f,1,1.06634321546,01,02,60.0191464151,PLT_learning_01,B,2014_Feb_17_1516,P10,
stim_fb/ques.jpg,stim_fb/negf.jpg,stim_fb/posf.jpg,stim_01/f.jpg,stim_01/e.jpg,1,3,f,0,46,46,41,f,1,1.51621573071,01,02,60.0191464151,PLT_learning_01,B,2014_Feb_17_1516,P10,
stim_fb/ques.jpg,stim_fb/posf.jpg,stim_fb/negf.jpg,stim_01/d.jpg,stim_01/c.jpg,1,2,f,0,47,47,29,f,1,1.06633462004,01,02,60.0191464151,PLT_learning_01,B,2014_Feb_17_1516,P10,
stim_fb/ques.jpg,stim_fb/negf.jpg,stim_fb/posf.jpg,stim_01/a.jpg,stim_01/b.jpg,2,1,j,0,48,48,16,j,1,1.13301957128,01,02,60.0191464151,PLT_learning_01,B,2014_Feb_17_1516,P10,
stim_fb/ques.jpg,stim_fb/negf.jpg,stim_fb/posf.jpg,stim_01/c.jpg,stim_01/d.jpg,2,2,j,0,49,49,31,j,1,0.683151567282,01,02,60.0191464151,PLT_learning_01,B,2014_Feb_17_1516,P10,
stim_fb/ques.jpg,stim_fb/negf.jpg,stim_fb/posf.jpg,stim_01/c.jpg,stim_01/d.jpg,2,2,j,0,50,50,33,f,0,1.18283704333,01,02,60.0191464151,PLT_learning_01,B,2014_Feb_17_1516,P10,
stim_fb/ques.jpg,stim_fb/negf.jpg,stim_fb/posf.jpg,stim_01/c.jpg,stim_01/d.jpg,2,2,j,0,51,51,30,j,1,0.716507376635,01,02,60.0191464151,PLT_learning_01,B,2014_Feb_17_1516,P10,
stim_fb/ques.jpg,stim_fb/negf.jpg,stim_fb/posf.jpg,stim_01/d.jpg,stim_01/c.jpg,1,2,f,0,52,52,25,f,1,1.11635311614,01,02,60.0191464151,PLT_learning_01,B,2014_Feb_17_1516,P10,
stim_fb/ques.jpg,stim_fb/negf.jpg,stim_fb/posf.jpg,stim_01/e.jpg,stim_01/f.jpg,2,3,j,0,53,53,55,j,1,1.36627700844,01,02,60.0191464151,PLT_learning_01,B,2014_Feb_17_1516,P10,
stim_fb/ques.jpg,stim_fb/posf.jpg,stim_fb/negf.jpg,stim_01/e.jpg,stim_01/f.jpg,2,3,j,0,54,54,56,f,0,1.38288784295,01,02,60.0191464151,PLT_learning_01,B,2014_Feb_17_1516,P10,
stim_fb/ques.jpg,stim_fb/posf.jpg,stim_fb/negf.jpg,stim_01/f.jpg,stim_01/e.jpg,1,3,f,0,55,55,46,j,0,0.983040741046,01,02,60.0191464151,PLT_learning_01,B,2014_Feb_17_1516,P10,
stim_fb/ques.jpg,stim_fb/negf.jpg,stim_fb/posf.jpg,stim_01/e.jpg,stim_01/f.jpg,2,3,j,0,56,56,50,j,1,1.09968310614,01,02,60.0191464151,PLT_learning_01,B,2014_Feb_17_1516,P10,
stim_fb/ques.jpg,stim_fb/posf.jpg,stim_fb/negf.jpg,stim_01/e.jpg,stim_01/f.jpg,2,3,j,0,57,57,58,j,1,1.09967014985,01,02,60.0191464151,PLT_learning_01,B,2014_Feb_17_1516,P10,
stim_fb/ques.jpg,stim_fb/negf.jpg,stim_fb/posf.jpg,stim_01/f.jpg,stim_01/e.jpg,1,3,f,0,58,58,40,j,0,1.24959064067,01,02,60.0191464151,PLT_learning_01,B,2014_Feb_17_1516,P10,
stim_fb/ques.jpg,stim_fb/posf.jpg,stim_fb/negf.jpg,stim_01/e.jpg,stim_01/f.jpg,2,3,j,0,59,59,57,j,1,1.19961325404,01,02,60.0191464151,PLT_learning_01,B,2014_Feb_17_1516,P10,
stim_fb/ques.jpg,stim_fb/posf.jpg,stim_fb/negf.jpg,stim_01/a.jpg,stim_01/b.jpg,2,1,j,1,0,60,19,j,1,1.06636912204,01,02,60.0191464151,PLT_learning_01,B,2014_Feb_17_1516,P10,
stim_fb/ques.jpg,stim_fb/negf.jpg,stim_fb/posf.jpg,stim_01/b.jpg,stim_01/a.jpg,1,1,f,1,1,61,1,f,1,0.749815841986,01,02,60.0191464151,PLT_learning_01,B,2014_Feb_17_1516,P10,
stim_fb/ques.jpg,stim_fb/negf.jpg,stim_fb/posf.jpg,stim_01/f.jpg,stim_01/e.jpg,1,3,f,1,2,62,40,f,1,1.29952637349,01,02,60.0191464151,PLT_learning_01,B,2014_Feb_17_1516,P10,
stim_fb/ques.jpg,stim_fb/negf.jpg,stim_fb/posf.jpg,stim_01/b.jpg,stim_01/a.jpg,1,1,f,1,3,63,5,f,1,1.29965639958,01,02,60.0191464151,PLT_learning_01,B,2014_Feb_17_1516,P10,
stim_fb/ques.jpg,stim_fb/negf.jpg,stim_fb/posf.jpg,stim_01/d.jpg,stim_01/c.jpg,1,2,f,1,4,64,26,f,1,0.999717214156,01,02,60.0191464151,PLT_learning_01,B,2014_Feb_17_1516,P10,
stim_fb/ques.jpg,stim_fb/negf.jpg,stim_fb/posf.jpg,stim_01/d.jpg,stim_01/c.jpg,1,2,f,1,5,65,23,f,1,0.799789246697,01,02,60.0191464151,PLT_learning_01,B,2014_Feb_17_1516,P10,
stim_fb/ques.jpg,stim_fb/posf.jpg,stim_fb/negf.jpg,stim_01/b.jpg,stim_01/a.jpg,1,1,f,1,6,66,8,f,1,1.2329980737,01,02,60.0191464151,PLT_learning_01,B,2014_Feb_17_1516,P10,
stim_fb/ques.jpg,stim_fb/negf.jpg,stim_fb/posf.jpg,stim_01/a.jpg,stim_01/b.jpg,2,1,j,1,7,67,16,j,1,0.916399239103,01,02,60.0191464151,PLT_learning_01,B,2014_Feb_17_1516,P10,
stim_fb/ques.jpg,stim_fb/negf.jpg,stim_fb/posf.jpg,stim_01/a.jpg,stim_01/b.jpg,2,1,j,1,8,68,14,j,1,0.966408066105,01,02,60.0191464151,PLT_learning_01,B,2014_Feb_17_1516,P10,
stim_fb/ques.jpg,stim_fb/negf.jpg,stim_fb/posf.jpg,stim_01/b.jpg,stim_01/a.jpg,1,1,f,1,9,69,7,f,1,1.38298202269,01,02,60.0191464151,PLT_learning_01,B,2014_Feb_17_1516,P10,
stim_fb/ques.jpg,stim_fb/negf.jpg,stim_fb/posf.jpg,stim_01/c.jpg,stim_01/d.jpg,2,2,j,1,10,70,30,j,1,0.749832608777,01,02,60.0191464151,PLT_learning_01,B,2014_Feb_17_1516,P10,
stim_fb/ques.jpg,stim_fb/posf.jpg,stim_fb/negf.jpg,stim_01/f.jpg,stim_01/e.jpg,1,3,f,1,11,71,46,f,1,0.91640757889,01,02,60.0191464151,PLT_learning_01,B,2014_Feb_17_1516,P10,
stim_fb/ques.jpg,stim_fb/negf.jpg,stim_fb/posf.jpg,stim_01/d.jpg,stim_01/c.jpg,1,2,f,1,12,72,22,f,1,0.649840716987,01,02,60.0191464151,PLT_learning_01,B,2014_Feb_17_1516,P10,
stim_fb/ques.jpg,stim_fb/posf.jpg,stim_fb/negf.jpg,stim_01/e.jpg,stim_01/f.jpg,2,3,j,1,13,73,58,j,1,1.08303947489,01,02,60.0191464151,PLT_learning_01,B,2014_Feb_17_1516,P10,
stim_fb/ques.jpg,stim_fb/negf.jpg,stim_fb/posf.jpg,stim_01/e.jpg,stim_01/f.jpg,2,3,j,1,14,74,52,f,0,1.28297802874,01,02,60.0191464151,PLT_learning_01,B,2014_Feb_17_1516,P10,
stim_fb/ques.jpg,stim_fb/posf.jpg,stim_fb/negf.jpg,stim_01/f.jpg,stim_01/e.jpg,1,3,f,1,15,75,48,f,1,1.11632230735,01,02,60.0191464151,PLT_learning_01,B,2014_Feb_17_1516,P10,
stim_fb/ques.jpg,stim_fb/posf.jpg,stim_fb/negf.jpg,stim_01/b.jpg,stim_01/a.jpg,1,1,f,1,16,76,9,f,1,0.699834073428,01,02,60.0191464151,PLT_learning_01,B,2014_Feb_17_1516,P10,
stim_fb/ques.jpg,stim_fb/posf.jpg,stim_fb/negf.jpg,stim_01/e.jpg,stim_01/f.jpg,2,3,j,1,17,77,57,f,0,1.14969569251,01,02,60.0191464151,PLT_learning_01,B,2014_Feb_17_1516,P10,
stim_fb/ques.jpg,stim_fb/negf.jpg,stim_fb/posf.jpg,stim_01/b.jpg,stim_01/a.jpg,1,1,f,1,18,78,6,f,1,0.883057778513,01,02,60.0191464151,PLT_learning_01,B,2014_Feb_17_1516,P10,
stim_fb/ques.jpg,stim_fb/negf.jpg,stim_fb/posf.jpg,stim_01/a.jpg,stim_01/b.jpg,2,1,j,1,19,79,17,j,1,1.36624464478,01,02,60.0191464151,PLT_learning_01,B,2014_Feb_17_1516,P10,
stim_fb/ques.jpg,stim_fb/negf.jpg,stim_fb/posf.jpg,stim_01/d.jpg,stim_01/c.jpg,1,2,f,1,20,80,24,f,1,0.766453918392,01,02,60.0191464151,PLT_learning_01,B,2014_Feb_17_1516,P10,
stim_fb/ques.jpg,stim_fb/negf.jpg,stim_fb/posf.jpg,stim_01/d.jpg,stim_01/c.jpg,1,2,f,1,21,81,20,f,1,0.749849625191,01,02,60.0191464151,PLT_learning_01,B,2014_Feb_17_1516,P10,
stim_fb/ques.jpg,stim_fb/negf.jpg,stim_fb/posf.jpg,stim_01/c.jpg,stim_01/d.jpg,2,2,j,1,22,82,36,j,1,1.04972005624,01,02,60.0191464151,PLT_learning_01,B,2014_Feb_17_1516,P10,
stim_fb/ques.jpg,stim_fb/negf.jpg,stim_fb/posf.jpg,stim_01/a.jpg,stim_01/b.jpg,2,1,j,1,23,83,15,j,1,1.06634549815,01,02,60.0191464151,PLT_learning_01,B,2014_Feb_17_1516,P10,
stim_fb/ques.jpg,stim_fb/negf.jpg,stim_fb/posf.jpg,stim_01/b.jpg,stim_01/a.jpg,1,1,f,1,24,84,3,f,1,0.816264295757,01,02,60.0191464151,PLT_learning_01,B,2014_Feb_17_1516,P10,
stim_fb/ques.jpg,stim_fb/negf.jpg,stim_fb/posf.jpg,stim_01/e.jpg,stim_01/f.jpg,2,3,j,1,25,85,55,j,1,1.49952108931,01,02,60.0191464151,PLT_learning_01,B,2014_Feb_17_1516,P10,
stim_fb/ques.jpg,stim_fb/negf.jpg,stim_fb/posf.jpg,stim_01/b.jpg,stim_01/a.jpg,1,1,f,1,26,86,2,f,1,0.866418291592,01,02,60.0191464151,PLT_learning_01,B,2014_Feb_17_1516,P10,
stim_fb/ques.jpg,stim_fb/negf.jpg,stim_fb/posf.jpg,stim_01/b.jpg,stim_01/a.jpg,1,1,f,1,27,87,4,f,1,1.16632607875,01,02,60.0191464151,PLT_learning_01,B,2014_Feb_17_1516,P10,
stim_fb/ques.jpg,stim_fb/negf.jpg,stim_fb/posf.jpg,stim_01/e.jpg,stim_01/f.jpg,2,3,j,1,28,88,54,j,1,1.59946757994,01,02,60.0191464151,PLT_learning_01,B,2014_Feb_17_1516,P10,
stim_fb/ques.jpg,stim_fb/negf.jpg,stim_fb/posf.jpg,stim_01/b.jpg,stim_01/a.jpg,1,1,f,1,29,89,0,f,1,0.89976550853,01,02,60.0191464151,PLT_learning_01,B,2014_Feb_17_1516,P10,
stim_fb/ques.jpg,stim_fb/negf.jpg,stim_fb/posf.jpg,stim_01/f.jpg,stim_01/e.jpg,1,3,f,1,30,90,43,j,0,1.49956255366,01,02,60.0191464151,PLT_learning_01,B,2014_Feb_17_1516,P10,
stim_fb/ques.jpg,stim_fb/negf.jpg,stim_fb/posf.jpg,stim_01/a.jpg,stim_01/b.jpg,2,1,j,1,31,91,12,j,1,0.949765758152,01,02,60.0191464151,PLT_learning_01,B,2014_Feb_17_1516,P10,
stim_fb/ques.jpg,stim_fb/posf.jpg,stim_fb/negf.jpg,stim_01/c.jpg,stim_01/d.jpg,2,2,j,1,32,92,37,j,1,0.616474775377,01,02,60.0191464151,PLT_learning_01,B,2014_Feb_17_1516,P10,
stim_fb/ques.jpg,stim_fb/negf.jpg,stim_fb/posf.jpg,stim_01/a.jpg,stim_01/b.jpg,2,1,j,1,33,93,11,j,1,0.766473304711,01,02,60.0191464151,PLT_learning_01,B,2014_Feb_17_1516,P10,
stim_fb/ques.jpg,stim_fb/posf.jpg,stim_fb/negf.jpg,stim_01/e.jpg,stim_01/f.jpg,2,3,j,1,34,94,59,f,0,1.14966158149,01,02,60.0191464151,PLT_learning_01,B,2014_Feb_17_1516,P10,
stim_fb/ques.jpg,stim_fb/negf.jpg,stim_fb/posf.jpg,stim_01/f.jpg,stim_01/e.jpg,1,3,f,1,35,95,42,j,0,1.2162885873,01,02,60.0191464151,PLT_learning_01,B,2014_Feb_17_1516,P10,
stim_fb/ques.jpg,stim_fb/negf.jpg,stim_fb/posf.jpg,stim_01/c.jpg,stim_01/d.jpg,2,2,j,1,36,96,33,j,1,0.716478958805,01,02,60.0191464151,PLT_learning_01,B,2014_Feb_17_1516,P10,
stim_fb/ques.jpg,stim_fb/negf.jpg,stim_fb/posf.jpg,stim_01/e.jpg,stim_01/f.jpg,2,3,j,1,37,97,53,f,0,0.999713686363,01,02,60.0191464151,PLT_learning_01,B,2014_Feb_17_1516,P10,
stim_fb/ques.jpg,stim_fb/posf.jpg,stim_fb/negf.jpg,stim_01/a.jpg,stim_01/b.jpg,2,1,j,1,38,98,18,j,1,0.816453476289,01,02,60.0191464151,PLT_learning_01,B,2014_Feb_17_1516,P10,
stim_fb/ques.jpg,stim_fb/posf.jpg,stim_fb/negf.jpg,stim_01/d.jpg,stim_01/c.jpg,1,2,f,1,39,99,27,f,1,0.783146051534,01,02,60.0191464151,PLT_learning_01,B,2014_Feb_17_1516,P10,
stim_fb/ques.jpg,stim_fb/posf.jpg,stim_fb/negf.jpg,stim_01/f.jpg,stim_01/e.jpg,1,3,f,1,40,100,49,f,1,0.999719388576,01,02,60.0191464151,PLT_learning_01,B,2014_Feb_17_1516,P10,
stim_fb/ques.jpg,stim_fb/posf.jpg,stim_fb/negf.jpg,stim_01/e.jpg,stim_01/f.jpg,2,3,j,1,41,101,56,j,1,1.19963280878,01,02,60.0191464151,PLT_learning_01,B,2014_Feb_17_1516,P10,
stim_fb/ques.jpg,stim_fb/negf.jpg,stim_fb/posf.jpg,stim_01/a.jpg,stim_01/b.jpg,2,1,j,1,42,102,10,j,1,0.716457016112,01,02,60.0191464151,PLT_learning_01,B,2014_Feb_17_1516,P10,
stim_fb/ques.jpg,stim_fb/negf.jpg,stim_fb/posf.jpg,stim_01/c.jpg,stim_01/d.jpg,2,2,j,1,43,103,35,j,1,0.73313906512,01,02,60.0191464151,PLT_learning_01,B,2014_Feb_17_1516,P10,
stim_fb/ques.jpg,stim_fb/posf.jpg,stim_fb/negf.jpg,stim_01/c.jpg,stim_01/d.jpg,2,2,j,1,44,104,38,j,1,0.683165777701,01,02,60.0191464151,PLT_learning_01,B,2014_Feb_17_1516,P10,
stim_fb/ques.jpg,stim_fb/negf.jpg,stim_fb/posf.jpg,stim_01/d.jpg,stim_01/c.jpg,1,2,f,1,45,105,21,f,1,0.699818383321,01,02,60.0191464151,PLT_learning_01,B,2014_Feb_17_1516,P10,
stim_fb/ques.jpg,stim_fb/posf.jpg,stim_fb/negf.jpg,stim_01/d.jpg,stim_01/c.jpg,1,2,f,1,46,106,29,f,1,0.63317018669,01,02,60.0191464151,PLT_learning_01,B,2014_Feb_17_1516,P10,
stim_fb/ques.jpg,stim_fb/posf.jpg,stim_fb/negf.jpg,stim_01/c.jpg,stim_01/d.jpg,2,2,j,1,47,107,39,j,1,0.616497292502,01,02,60.0191464151,PLT_learning_01,B,2014_Feb_17_1516,P10,
stim_fb/ques.jpg,stim_fb/negf.jpg,stim_fb/posf.jpg,stim_01/f.jpg,stim_01/e.jpg,1,3,f,1,48,108,45,f,1,1.36625453643,01,02,60.0191464151,PLT_learning_01,B,2014_Feb_17_1516,P10,
stim_fb/ques.jpg,stim_fb/negf.jpg,stim_fb/posf.jpg,stim_01/c.jpg,stim_01/d.jpg,2,2,j,1,49,109,34,j,1,1.04968713619,01,02,60.0191464151,PLT_learning_01,B,2014_Feb_17_1516,P10,
stim_fb/ques.jpg,stim_fb/negf.jpg,stim_fb/posf.jpg,stim_01/d.jpg,stim_01/c.jpg,1,2,f,1,50,110,25,j,0,0.916451091345,01,02,60.0191464151,PLT_learning_01,B,2014_Feb_17_1516,P10,
stim_fb/ques.jpg,stim_fb/negf.jpg,stim_fb/posf.jpg,stim_01/f.jpg,stim_01/e.jpg,1,3,f,1,51,111,41,f,1,0.649841507959,01,02,60.0191464151,PLT_learning_01,B,2014_Feb_17_1516,P10,
stim_fb/ques.jpg,stim_fb/negf.jpg,stim_fb/posf.jpg,stim_01/e.jpg,stim_01/f.jpg,2,3,j,1,52,112,50,f,0,0.716479367825,01,02,60.0191464151,PLT_learning_01,B,2014_Feb_17_1516,P10,
stim_fb/ques.jpg,stim_fb/negf.jpg,stim_fb/posf.jpg,stim_01/a.jpg,stim_01/b.jpg,2,1,j,1,53,113,13,j,1,0.666500348118,01,02,60.0191464151,PLT_learning_01,B,2014_Feb_17_1516,P10,
stim_fb/ques.jpg,stim_fb/negf.jpg,stim_fb/posf.jpg,stim_01/c.jpg,stim_01/d.jpg,2,2,j,1,54,114,31,j,1,0.649816398372,01,02,60.0191464151,PLT_learning_01,B,2014_Feb_17_1516,P10,
stim_fb/ques.jpg,stim_fb/posf.jpg,stim_fb/negf.jpg,stim_01/d.jpg,stim_01/c.jpg,1,2,f,1,55,115,28,f,1,0.616491797806,01,02,60.0191464151,PLT_learning_01,B,2014_Feb_17_1516,P10,
stim_fb/ques.jpg,stim_fb/negf.jpg,stim_fb/posf.jpg,stim_01/c.jpg,stim_01/d.jpg,2,2,j,1,56,116,32,j,1,0.666484997857,01,02,60.0191464151,PLT_learning_01,B,2014_Feb_17_1516,P10,
stim_fb/ques.jpg,stim_fb/negf.jpg,stim_fb/posf.jpg,stim_01/f.jpg,stim_01/e.jpg,1,3,f,1,57,117,44,j,0,0.849780395636,01,02,60.0191464151,PLT_learning_01,B,2014_Feb_17_1516,P10,
stim_fb/ques.jpg,stim_fb/negf.jpg,stim_fb/posf.jpg,stim_01/e.jpg,stim_01/f.jpg,2,3,j,1,58,118,51,j,1,0.666480528718,01,02,60.0191464151,PLT_learning_01,B,2014_Feb_17_1516,P10,
stim_fb/ques.jpg,stim_fb/posf.jpg,stim_fb/negf.jpg,stim_01/f.jpg,stim_01/e.jpg,1,3,f,1,59,119,47,j,0,0.749824311096,01,02,60.0191464151,PLT_learning_01,B,2014_Feb_17_1516,P10,
stim_fb/ques.jpg,stim_fb/negf.jpg,stim_fb/posf.jpg,stim_01/e.jpg,stim_01/f.jpg,2,3,j,2,0,120,50,f,0,1.18299968872,01,02,60.0191464151,PLT_learning_01,B,2014_Feb_17_1516,P10,
stim_fb/ques.jpg,stim_fb/posf.jpg,stim_fb/negf.jpg,stim_01/b.jpg,stim_01/a.jpg,1,1,f,2,1,121,9,f,1,0.633173194186,01,02,60.0191464151,PLT_learning_01,B,2014_Feb_17_1516,P10,
stim_fb/ques.jpg,stim_fb/negf.jpg,stim_fb/posf.jpg,stim_01/d.jpg,stim_01/c.jpg,1,2,f,2,2,122,26,f,1,0.666474300194,01,02,60.0191464151,PLT_learning_01,B,2014_Feb_17_1516,P10,
stim_fb/ques.jpg,stim_fb/negf.jpg,stim_fb/posf.jpg,stim_01/a.jpg,stim_01/b.jpg,2,1,j,2,3,123,13,j,1,0.733115071315,01,02,60.0191464151,PLT_learning_01,B,2014_Feb_17_1516,P10,
stim_fb/ques.jpg,stim_fb/negf.jpg,stim_fb/posf.jpg,stim_01/b.jpg,stim_01/a.jpg,1,1,f,2,4,124,3,j,0,0.949726224615,01,02,60.0191464151,PLT_learning_01,B,2014_Feb_17_1516,P10,
stim_fb/ques.jpg,stim_fb/negf.jpg,stim_fb/posf.jpg,stim_01/d.jpg,stim_01/c.jpg,1,2,f,2,5,125,25,f,1,1.09968816174,01,02,60.0191464151,PLT_learning_01,B,2014_Feb_17_1516,P10,
stim_fb/ques.jpg,stim_fb/negf.jpg,stim_fb/posf.jpg,stim_01/e.jpg,stim_01/f.jpg,2,3,j,2,6,126,53,j,1,0.683206261608,01,02,60.0191464151,PLT_learning_01,B,2014_Feb_17_1516,P10,
stim_fb/ques.jpg,stim_fb/negf.jpg,stim_fb/posf.jpg,stim_01/d.jpg,stim_01/c.jpg,1,2,f,2,7,127,20,f,1,1.23298516252,01,02,60.0191464151,PLT_learning_01,B,2014_Feb_17_1516,P10,
stim_fb/ques.jpg,stim_fb/negf.jpg,stim_fb/posf.jpg,stim_01/b.jpg,stim_01/a.jpg,1,1,f,2,8,128,7,f,1,1.06636054165,01,02,60.0191464151,PLT_learning_01,B,2014_Feb_17_1516,P10,
stim_fb/ques.jpg,stim_fb/negf.jpg,stim_fb/posf.jpg,stim_01/f.jpg,stim_01/e.jpg,1,3,f,2,9,129,44,f,1,0.916398932339,01,02,60.0191464151,PLT_learning_01,B,2014_Feb_17_1516,P10,
stim_fb/ques.jpg,stim_fb/negf.jpg,stim_fb/posf.jpg,stim_01/a.jpg,stim_01/b.jpg,2,1,j,2,10,130,17,j,1,0.666656605589,01,02,60.0191464151,PLT_learning_01,B,2014_Feb_17_1516,P10,
stim_fb/ques.jpg,stim_fb/negf.jpg,stim_fb/posf.jpg,stim_01/f.jpg,stim_01/e.jpg,1,3,f,2,11,131,41,j,0,1.24963679672,01,02,60.0191464151,PLT_learning_01,B,2014_Feb_17_1516,P10,
stim_fb/ques.jpg,stim_fb/posf.jpg,stim_fb/negf.jpg,stim_01/e.jpg,stim_01/f.jpg,2,3,j,2,12,132,58,j,1,0.766446583109,01,02,60.0191464151,PLT_learning_01,B,2014_Feb_17_1516,P10,
stim_fb/ques.jpg,stim_fb/negf.jpg,stim_fb/posf.jpg,stim_01/f.jpg,stim_01/e.jpg,1,3,f,2,13,133,45,f,1,0.549854470268,01,02,60.0191464151,PLT_learning_01,B,2014_Feb_17_1516,P10,
stim_fb/ques.jpg,stim_fb/negf.jpg,stim_fb/posf.jpg,stim_01/d.jpg,stim_01/c.jpg,1,2,f,2,14,134,23,f,1,0.716495869956,01,02,60.0191464151,PLT_learning_01,B,2014_Feb_17_1516,P10,
stim_fb/ques.jpg,stim_fb/posf.jpg,stim_fb/negf.jpg,stim_01/a.jpg,stim_01/b.jpg,2,1,j,2,15,135,19,j,1,0.666476492658,01,02,60.0191464151,PLT_learning_01,B,2014_Feb_17_1516,P10,
stim_fb/ques.jpg,stim_fb/posf.jpg,stim_fb/negf.jpg,stim_01/b.jpg,stim_01/a.jpg,1,1,f,2,16,136,8,j,0,0.933081967805,01,02,60.0191464151,PLT_learning_01,B,2014_Feb_17_1516,P10,
stim_fb/ques.jpg,stim_fb/negf.jpg,stim_fb/posf.jpg,stim_01/b.jpg,stim_01/a.jpg,1,1,f,2,17,137,0,j,0,0.849765018308,01,02,60.0191464151,PLT_learning_01,B,2014_Feb_17_1516,P10,
stim_fb/ques.jpg,stim_fb/negf.jpg,stim_fb/posf.jpg,stim_01/b.jpg,stim_01/a.jpg,1,1,f,2,18,138,5,j,0,1.33293627867,01,02,60.0191464151,PLT_learning_01,B,2014_Feb_17_1516,P10,
stim_fb/ques.jpg,stim_fb/negf.jpg,stim_fb/posf.jpg,stim_01/c.jpg,stim_01/d.jpg,2,2,j,2,19,139,30,f,0,0.599854792069,01,02,60.0191464151,PLT_learning_01,B,2014_Feb_17_1516,P10,
stim_fb/ques.jpg,stim_fb/posf.jpg,stim_fb/negf.jpg,stim_01/d.jpg,stim_01/c.jpg,1,2,f,2,20,140,28,f,1,0.766327110323,01,02,60.0191464151,PLT_learning_01,B,2014_Feb_17_1516,P10,
stim_fb/ques.jpg,stim_fb/posf.jpg,stim_fb/negf.jpg,stim_01/c.jpg,stim_01/d.jpg,2,2,j,2,21,141,39,j,1,1.08297665431,01,02,60.0191464151,PLT_learning_01,B,2014_Feb_17_1516,P10,
stim_fb/ques.jpg,stim_fb/negf.jpg,stim_fb/posf.jpg,stim_01/c.jpg,stim_01/d.jpg,2,2,j,2,22,142,34,f,0,1.24962016526,01,02,60.0191464151,PLT_learning_01,B,2014_Feb_17_1516,P10,
stim_fb/ques.jpg,stim_fb/negf.jpg,stim_fb/posf.jpg,stim_01/b.jpg,stim_01/a.jpg,1,1,f,2,23,143,2,f,1,0.916379097902,01,02,60.0191464151,PLT_learning_01,B,2014_Feb_17_1516,P10,
stim_fb/ques.jpg,stim_fb/negf.jpg,stim_fb/posf.jpg,stim_01/a.jpg,stim_01/b.jpg,2,1,j,2,24,144,12,j,1,0.966369404741,01,02,60.0191464151,PLT_learning_01,B,2014_Feb_17_1516,P10,
stim_fb/ques.jpg,stim_fb/negf.jpg,stim_fb/posf.jpg,stim_01/d.jpg,stim_01/c.jpg,1,2,f,2,25,145,24,f,1,0.666505569131,01,02,60.0191464151,PLT_learning_01,B,2014_Feb_17_1516,P10,
stim_fb/ques.jpg,stim_fb/posf.jpg,stim_fb/negf.jpg,stim_01/e.jpg,stim_01/f.jpg,2,3,j,2,26,146,59,j,1,0.683144604927,01,02,60.0191464151,PLT_learning_01,B,2014_Feb_17_1516,P10,
stim_fb/ques.jpg,stim_fb/negf.jpg,stim_fb/posf.jpg,stim_01/e.jpg,stim_01/f.jpg,2,3,j,2,27,147,51,f,0,0.799777409193,01,02,60.0191464151,PLT_learning_01,B,2014_Feb_17_1516,P10,
stim_fb/ques.jpg,stim_fb/negf.jpg,stim_fb/posf.jpg,stim_01/a.jpg,stim_01/b.jpg,2,1,j,2,28,148,14,j,1,0.583168604748,01,02,60.0191464151,PLT_learning_01,B,2014_Feb_17_1516,P10,
stim_fb/ques.jpg,stim_fb/negf.jpg,stim_fb/posf.jpg,stim_01/a.jpg,stim_01/b.jpg,2,1,j,2,29,149,10,f,0,0.416578389636,01,02,60.0191464151,PLT_learning_01,B,2014_Feb_17_1516,P10,
stim_fb/ques.jpg,stim_fb/posf.jpg,stim_fb/negf.jpg,stim_01/f.jpg,stim_01/e.jpg,1,3,f,2,30,150,46,f,1,1.04969602033,01,02,60.0191464151,PLT_learning_01,B,2014_Feb_17_1516,P10,
stim_fb/ques.jpg,stim_fb/negf.jpg,stim_fb/posf.jpg,stim_01/f.jpg,stim_01/e.jpg,1,3,f,2,31,151,42,f,1,0.949706928519,01,02,60.0191464151,PLT_learning_01,B,2014_Feb_17_1516,P10,
stim_fb/ques.jpg,stim_fb/posf.jpg,stim_fb/negf.jpg,stim_01/f.jpg,stim_01/e.jpg,1,3,f,2,32,152,47,j,0,0.883084921166,01,02,60.0191464151,PLT_learning_01,B,2014_Feb_17_1516,P10,
stim_fb/ques.jpg,stim_fb/negf.jpg,stim_fb/posf.jpg,stim_01/c.jpg,stim_01/d.jpg,2,2,j,2,33,153,35,j,1,0.78308341441,01,02,60.0191464151,PLT_learning_01,B,2014_Feb_17_1516,P10,
stim_fb/ques.jpg,stim_fb/posf.jpg,stim_fb/negf.jpg,stim_01/e.jpg,stim_01/f.jpg,2,3,j,2,34,154,56,f,0,0.73313470425,01,02,60.0191464151,PLT_learning_01,B,2014_Feb_17_1516,P10,
stim_fb/ques.jpg,stim_fb/negf.jpg,stim_fb/posf.jpg,stim_01/a.jpg,stim_01/b.jpg,2,1,j,2,35,155,15,j,1,1.01637767235,01,02,60.0191464151,PLT_learning_01,B,2014_Feb_17_1516,P10,
stim_fb/ques.jpg,stim_fb/negf.jpg,stim_fb/posf.jpg,stim_01/c.jpg,stim_01/d.jpg,2,2,j,2,36,156,32,f,0,0.916395004549,01,02,60.0191464151,PLT_learning_01,B,2014_Feb_17_1516,P10,
stim_fb/ques.jpg,stim_fb/negf.jpg,stim_fb/posf.jpg,stim_01/c.jpg,stim_01/d.jpg,2,2,j,2,37,157,33,j,1,0.849833505011,01,02,60.0191464151,PLT_learning_01,B,2014_Feb_17_1516,P10,
stim_fb/ques.jpg,stim_fb/negf.jpg,stim_fb/posf.jpg,stim_01/c.jpg,stim_01/d.jpg,2,2,j,2,38,158,36,j,1,0.949730615559,01,02,60.0191464151,PLT_learning_01,B,2014_Feb_17_1516,P10,
stim_fb/ques.jpg,stim_fb/negf.jpg,stim_fb/posf.jpg,stim_01/d.jpg,stim_01/c.jpg,1,2,f,2,39,159,22,f,1,0.733143865084,01,02,60.0191464151,PLT_learning_01,B,2014_Feb_17_1516,P10,
stim_fb/ques.jpg,stim_fb/negf.jpg,stim_fb/posf.jpg,stim_01/b.jpg,stim_01/a.jpg,1,1,f,2,40,160,4,f,1,0.933045712438,01,02,60.0191464151,PLT_learning_01,B,2014_Feb_17_1516,P10,
stim_fb/ques.jpg,stim_fb/posf.jpg,stim_fb/negf.jpg,stim_01/a.jpg,stim_01/b.jpg,2,1,j,2,41,161,18,j,1,1.03303245239,01,02,60.0191464151,PLT_learning_01,B,2014_Feb_17_1516,P10,
stim_fb/ques.jpg,stim_fb/posf.jpg,stim_fb/negf.jpg,stim_01/c.jpg,stim_01/d.jpg,2,2,j,2,42,162,37,j,1,0.933101158638,01,02,60.0191464151,PLT_learning_01,B,2014_Feb_17_1516,P10,
stim_fb/ques.jpg,stim_fb/negf.jpg,stim_fb/posf.jpg,stim_01/d.jpg,stim_01/c.jpg,1,2,f,2,43,163,21,f,1,0.783068680686,01,02,60.0191464151,PLT_learning_01,B,2014_Feb_17_1516,P10,
stim_fb/ques.jpg,stim_fb/posf.jpg,stim_fb/negf.jpg,stim_01/f.jpg,stim_01/e.jpg,1,3,f,2,44,164,49,j,0,1.21631328787,01,02,60.0191464151,PLT_learning_01,B,2014_Feb_17_1516,P10,
stim_fb/ques.jpg,stim_fb/negf.jpg,stim_fb/posf.jpg,stim_01/b.jpg,stim_01/a.jpg,1,1,f,2,45,165,6,f,1,0.76646928369,01,02,60.0191464151,PLT_learning_01,B,2014_Feb_17_1516,P10,
stim_fb/ques.jpg,stim_fb/negf.jpg,stim_fb/posf.jpg,stim_01/f.jpg,stim_01/e.jpg,1,3,f,2,46,166,40,j,0,0.583199756393,01,02,60.0191464151,PLT_learning_01,B,2014_Feb_17_1516,P10,
stim_fb/ques.jpg,stim_fb/negf.jpg,stim_fb/posf.jpg,stim_01/e.jpg,stim_01/f.jpg,2,3,j,2,47,167,55,j,1,0.866424682521,01,02,60.0191464151,PLT_learning_01,B,2014_Feb_17_1516,P10,
stim_fb/ques.jpg,stim_fb/posf.jpg,stim_fb/negf.jpg,stim_01/c.jpg,stim_01/d.jpg,2,2,j,2,48,168,38,j,1,0.616544807934,01,02,60.0191464151,PLT_learning_01,B,2014_Feb_17_1516,P10,
stim_fb/ques.jpg,stim_fb/negf.jpg,stim_fb/posf.jpg,stim_01/f.jpg,stim_01/e.jpg,1,3,f,2,49,169,43,j,0,0.74980933978,01,02,60.0191464151,PLT_learning_01,B,2014_Feb_17_1516,P10,
stim_fb/ques.jpg,stim_fb/posf.jpg,stim_fb/negf.jpg,stim_01/d.jpg,stim_01/c.jpg,1,2,f,2,50,170,27,f,1,0.666526654687,01,02,60.0191464151,PLT_learning_01,B,2014_Feb_17_1516,P10,
stim_fb/ques.jpg,stim_fb/posf.jpg,stim_fb/negf.jpg,stim_01/d.jpg,stim_01/c.jpg,1,2,f,2,51,171,29,j,0,0.58318804821,01,02,60.0191464151,PLT_learning_01,B,2014_Feb_17_1516,P10,
stim_fb/ques.jpg,stim_fb/posf.jpg,stim_fb/negf.jpg,stim_01/e.jpg,stim_01/f.jpg,2,3,j,2,52,172,57,f,0,0.633050124435,01,02,60.0191464151,PLT_learning_01,B,2014_Feb_17_1516,P10,
stim_fb/ques.jpg,stim_fb/negf.jpg,stim_fb/posf.jpg,stim_01/a.jpg,stim_01/b.jpg,2,1,j,2,53,173,16,j,1,0.499870187442,01,02,60.0191464151,PLT_learning_01,B,2014_Feb_17_1516,P10,
stim_fb/ques.jpg,stim_fb/posf.jpg,stim_fb/negf.jpg,stim_01/f.jpg,stim_01/e.jpg,1,3,f,2,54,174,48,j,0,0.766474718235,01,02,60.0191464151,PLT_learning_01,B,2014_Feb_17_1516,P10,
stim_fb/ques.jpg,stim_fb/negf.jpg,stim_fb/posf.jpg,stim_01/b.jpg,stim_01/a.jpg,1,1,f,2,55,175,1,f,1,0.733144268089,01,02,60.0191464151,PLT_learning_01,B,2014_Feb_17_1516,P10,
stim_fb/ques.jpg,stim_fb/negf.jpg,stim_fb/posf.jpg,stim_01/c.jpg,stim_01/d.jpg,2,2,j,2,56,176,31,j,1,1.21636093563,01,02,60.0191464151,PLT_learning_01,B,2014_Feb_17_1516,P10,
stim_fb/ques.jpg,stim_fb/negf.jpg,stim_fb/posf.jpg,stim_01/e.jpg,stim_01/f.jpg,2,3,j,2,57,177,54,f,0,1.04972230886,01,02,60.0191464151,PLT_learning_01,B,2014_Feb_17_1516,P10,
stim_fb/ques.jpg,stim_fb/negf.jpg,stim_fb/posf.jpg,stim_01/a.jpg,stim_01/b.jpg,2,1,j,2,58,178,11,j,1,0.599841210217,01,02,60.0191464151,PLT_learning_01,B,2014_Feb_17_1516,P10,
stim_fb/ques.jpg,stim_fb/negf.jpg,stim_fb/posf.jpg,stim_01/e.jpg,stim_01/f.jpg,2,3,j,2,59,179,52,f,0,1.06636976564,01,02,60.0191464151,PLT_learning_01,B,2014_Feb_17_1516,P10,
stim_fb/ques.jpg,stim_fb/posf.jpg,stim_fb/negf.jpg,stim_01/f.jpg,stim_01/e.jpg,1,3,f,3,0,180,46,f,1,0.866460486764,01,02,60.0191464151,PLT_learning_01,B,2014_Feb_17_1516,P10,
stim_fb/ques.jpg,stim_fb/posf.jpg,stim_fb/negf.jpg,stim_01/e.jpg,stim_01/f.jpg,2,3,j,3,1,181,57,j,1,0.616480700145,01,02,60.0191464151,PLT_learning_01,B,2014_Feb_17_1516,P10,
stim_fb/ques.jpg,stim_fb/negf.jpg,stim_fb/posf.jpg,stim_01/f.jpg,stim_01/e.jpg,1,3,f,3,2,182,40,f,1,0.733122962985,01,02,60.0191464151,PLT_learning_01,B,2014_Feb_17_1516,P10,
stim_fb/ques.jpg,stim_fb/negf.jpg,stim_fb/posf.jpg,stim_01/f.jpg,stim_01/e.jpg,1,3,f,3,3,183,42,j,0,0.749792281262,01,02,60.0191464151,PLT_learning_01,B,2014_Feb_17_1516,P10,
stim_fb/ques.jpg,stim_fb/negf.jpg,stim_fb/posf.jpg,stim_01/b.jpg,stim_01/a.jpg,1,1,f,3,4,184,0,f,1,0.599926469726,01,02,60.0191464151,PLT_learning_01,B,2014_Feb_17_1516,P10,
stim_fb/ques.jpg,stim_fb/posf.jpg,stim_fb/negf.jpg,stim_01/b.jpg,stim_01/a.jpg,1,1,f,3,5,185,8,f,1,0.633143588394,01,02,60.0191464151,PLT_learning_01,B,2014_Feb_17_1516,P10,
stim_fb/ques.jpg,stim_fb/negf.jpg,stim_fb/posf.jpg,stim_01/b.jpg,stim_01/a.jpg,1,1,f,3,6,186,2,f,1,0.566461807054,01,02,60.0191464151,PLT_learning_01,B,2014_Feb_17_1516,P10,
stim_fb/ques.jpg,stim_fb/negf.jpg,stim_fb/posf.jpg,stim_01/f.jpg,stim_01/e.jpg,1,3,f,3,7,187,45,j,0,0.9497337614,01,02,60.0191464151,PLT_learning_01,B,2014_Feb_17_1516,P10,
stim_fb/ques.jpg,stim_fb/negf.jpg,stim_fb/posf.jpg,stim_01/d.jpg,stim_01/c.jpg,1,2,f,3,8,188,26,f,1,1.11634355531,01,02,60.0191464151,PLT_learning_01,B,2014_Feb_17_1516,P10,
stim_fb/ques.jpg,stim_fb/negf.jpg,stim_fb/posf.jpg,stim_01/a.jpg,stim_01/b.jpg,2,1,j,3,9,189,10,j,1,1.03304654251,01,02,60.0191464151,PLT_learning_01,B,2014_Feb_17_1516,P10,
stim_fb/ques.jpg,stim_fb/negf.jpg,stim_fb/posf.jpg,stim_01/e.jpg,stim_01/f.jpg,2,3,j,3,10,190,55,f,0,1.19965577101,01,02,60.0191464151,PLT_learning_01,B,2014_Feb_17_1516,P10,
stim_fb/ques.jpg,stim_fb/posf.jpg,stim_fb/negf.jpg,stim_01/e.jpg,stim_01/f.jpg,2,3,j,3,11,191,59,f,0,0.916423566739,01,02,60.0191464151,PLT_learning_01,B,2014_Feb_17_1516,P10,
stim_fb/ques.jpg,stim_fb/negf.jpg,stim_fb/posf.jpg,stim_01/c.jpg,stim_01/d.jpg,2,2,j,3,12,192,33,j,1,0.599843330501,01,02,60.0191464151,PLT_learning_01,B,2014_Feb_17_1516,P10,
stim_fb/ques.jpg,stim_fb/negf.jpg,stim_fb/posf.jpg,stim_01/c.jpg,stim_01/d.jpg,2,2,j,3,13,193,34,j,1,0.666509617221,01,02,60.0191464151,PLT_learning_01,B,2014_Feb_17_1516,P10,
stim_fb/ques.jpg,stim_fb/negf.jpg,stim_fb/posf.jpg,stim_01/a.jpg,stim_01/b.jpg,2,1,j,3,14,194,16,j,1,0.733006717242,01,02,60.0191464151,PLT_learning_01,B,2014_Feb_17_1516,P10,
stim_fb/ques.jpg,stim_fb/negf.jpg,stim_fb/posf.jpg,stim_01/d.jpg,stim_01/c.jpg,1,2,f,3,15,195,24,f,1,0.566508474372,01,02,60.0191464151,PLT_learning_01,B,2014_Feb_17_1516,P10,
stim_fb/ques.jpg,stim_fb/negf.jpg,stim_fb/posf.jpg,stim_01/f.jpg,stim_01/e.jpg,1,3,f,3,16,196,44,j,0,0.832933262155,01,02,60.0191464151,PLT_learning_01,B,2014_Feb_17_1516,P10,
stim_fb/ques.jpg,stim_fb/posf.jpg,stim_fb/negf.jpg,stim_01/f.jpg,stim_01/e.jpg,1,3,f,3,17,197,47,j,0,1.18302632612,01,02,60.0191464151,PLT_learning_01,B,2014_Feb_17_1516,P10,
stim_fb/ques.jpg,stim_fb/negf.jpg,stim_fb/posf.jpg,stim_01/a.jpg,stim_01/b.jpg,2,1,j,3,18,198,11,j,1,0.649848328961,01,02,60.0191464151,PLT_learning_01,B,2014_Feb_17_1516,P10,
stim_fb/ques.jpg,stim_fb/negf.jpg,stim_fb/posf.jpg,stim_01/f.jpg,stim_01/e.jpg,1,3,f,3,19,199,41,f,1,0.99972410433,01,02,60.0191464151,PLT_learning_01,B,2014_Feb_17_1516,P10,
stim_fb/ques.jpg,stim_fb/negf.jpg,stim_fb/posf.jpg,stim_01/c.jpg,stim_01/d.jpg,2,2,j,3,20,200,36,j,1,0.583142671107,01,02,60.0191464151,PLT_learning_01,B,2014_Feb_17_1516,P10,
stim_fb/ques.jpg,stim_fb/posf.jpg,stim_fb/negf.jpg,stim_01/b.jpg,stim_01/a.jpg,1,1,f,3,21,201,9,f,1,0.54985618454,01,02,60.0191464151,PLT_learning_01,B,2014_Feb_17_1516,P10,
stim_fb/ques.jpg,stim_fb/posf.jpg,stim_fb/negf.jpg,stim_01/d.jpg,stim_01/c.jpg,1,2,f,3,22,202,28,f,1,0.633180294885,01,02,60.0191464151,PLT_learning_01,B,2014_Feb_17_1516,P10,
stim_fb/ques.jpg,stim_fb/negf.jpg,stim_fb/posf.jpg,stim_01/b.jpg,stim_01/a.jpg,1,1,f,3,23,203,3,f,1,0.616531180968,01,02,60.0191464151,PLT_learning_01,B,2014_Feb_17_1516,P10,
stim_fb/ques.jpg,stim_fb/negf.jpg,stim_fb/posf.jpg,stim_01/b.jpg,stim_01/a.jpg,1,1,f,3,24,204,7,f,1,0.983052930429,01,02,60.0191464151,PLT_learning_01,B,2014_Feb_17_1516,P10,
stim_fb/ques.jpg,stim_fb/posf.jpg,stim_fb/negf.jpg,stim_01/d.jpg,stim_01/c.jpg,1,2,f,3,25,205,27,f,1,0.583126015594,01,02,60.0191464151,PLT_learning_01,B,2014_Feb_17_1516,P10,
stim_fb/ques.jpg,stim_fb/negf.jpg,stim_fb/posf.jpg,stim_01/a.jpg,stim_01/b.jpg,2,1,j,3,26,206,13,j,1,0.749808034527,01,02,60.0191464151,PLT_learning_01,B,2014_Feb_17_1516,P10,
stim_fb/ques.jpg,stim_fb/posf.jpg,stim_fb/negf.jpg,stim_01/c.jpg,stim_01/d.jpg,2,2,j,3,27,207,37,f,0,1.41625449132,01,02,60.0191464151,PLT_learning_01,B,2014_Feb_17_1516,P10,
stim_fb/ques.jpg,stim_fb/posf.jpg,stim_fb/negf.jpg,stim_01/f.jpg,stim_01/e.jpg,1,3,f,3,28,208,49,f,1,0.933044130495,01,02,60.0191464151,PLT_learning_01,B,2014_Feb_17_1516,P10,
stim_fb/ques.jpg,stim_fb/negf.jpg,stim_fb/posf.jpg,stim_01/d.jpg,stim_01/c.jpg,1,2,f,3,29,209,20,j,0,1.08305618755,01,02,60.0191464151,PLT_learning_01,B,2014_Feb_17_1516,P10,
stim_fb/ques.jpg,stim_fb/negf.jpg,stim_fb/posf.jpg,stim_01/c.jpg,stim_01/d.jpg,2,2,j,3,30,210,35,j,1,1.01637575657,01,02,60.0191464151,PLT_learning_01,B,2014_Feb_17_1516,P10,
stim_fb/ques.jpg,stim_fb/posf.jpg,stim_fb/negf.jpg,stim_01/f.jpg,stim_01/e.jpg,1,3,f,3,31,211,48,j,0,1.13298984519,01,02,60.0191464151,PLT_learning_01,B,2014_Feb_17_1516,P10,
stim_fb/ques.jpg,stim_fb/negf.jpg,stim_fb/posf.jpg,stim_01/d.jpg,stim_01/c.jpg,1,2,f,3,32,212,25,f,1,0.616511653296,01,02,60.0191464151,PLT_learning_01,B,2014_Feb_17_1516,P10,
stim_fb/ques.jpg,stim_fb/negf.jpg,stim_fb/posf.jpg,stim_01/e.jpg,stim_01/f.jpg,2,3,j,3,33,213,50,j,1,0.599825201315,01,02,60.0191464151,PLT_learning_01,B,2014_Feb_17_1516,P10,
stim_fb/ques.jpg,stim_fb/negf.jpg,stim_fb/posf.jpg,stim_01/d.jpg,stim_01/c.jpg,1,2,f,3,34,214,21,f,1,0.516535177931,01,02,60.0191464151,PLT_learning_01,B,2014_Feb_17_1516,P10,
stim_fb/ques.jpg,stim_fb/negf.jpg,stim_fb/posf.jpg,stim_01/c.jpg,stim_01/d.jpg,2,2,j,3,35,215,30,j,1,0.899715424696,01,02,60.0191464151,PLT_learning_01,B,2014_Feb_17_1516,P10,
stim_fb/ques.jpg,stim_fb/negf.jpg,stim_fb/posf.jpg,stim_01/c.jpg,stim_01/d.jpg,2,2,j,3,36,216,31,j,1,1.31623980572,01,02,60.0191464151,PLT_learning_01,B,2014_Feb_17_1516,P10,
stim_fb/ques.jpg,stim_fb/negf.jpg,stim_fb/posf.jpg,stim_01/e.jpg,stim_01/f.jpg,2,3,j,3,37,217,51,j,1,1.51621515928,01,02,60.0191464151,PLT_learning_01,B,2014_Feb_17_1516,P10,
stim_fb/ques.jpg,stim_fb/negf.jpg,stim_fb/posf.jpg,stim_01/e.jpg,stim_01/f.jpg,2,3,j,3,38,218,54,j,1,0.999732122315,01,02,60.0191464151,PLT_learning_01,B,2014_Feb_17_1516,P10,
stim_fb/ques.jpg,stim_fb/negf.jpg,stim_fb/posf.jpg,stim_01/b.jpg,stim_01/a.jpg,1,1,f,3,39,219,4,f,1,0.683164430343,01,02,60.0191464151,PLT_learning_01,B,2014_Feb_17_1516,P10,
stim_fb/ques.jpg,stim_fb/posf.jpg,stim_fb/negf.jpg,stim_01/a.jpg,stim_01/b.jpg,2,1,j,3,40,220,19,j,1,0.833123814106,01,02,60.0191464151,PLT_learning_01,B,2014_Feb_17_1516,P10,
stim_fb/ques.jpg,stim_fb/negf.jpg,stim_fb/posf.jpg,stim_01/d.jpg,stim_01/c.jpg,1,2,f,3,41,221,23,j,0,0.766454107864,01,02,60.0191464151,PLT_learning_01,B,2014_Feb_17_1516,P10,
stim_fb/ques.jpg,stim_fb/negf.jpg,stim_fb/posf.jpg,stim_01/c.jpg,stim_01/d.jpg,2,2,j,3,42,222,32,j,1,1.18298606477,01,02,60.0191464151,PLT_learning_01,B,2014_Feb_17_1516,P10,
stim_fb/ques.jpg,stim_fb/negf.jpg,stim_fb/posf.jpg,stim_01/f.jpg,stim_01/e.jpg,1,3,f,3,43,223,43,j,0,0.916437100473,01,02,60.0191464151,PLT_learning_01,B,2014_Feb_17_1516,P10,
stim_fb/ques.jpg,stim_fb/posf.jpg,stim_fb/negf.jpg,stim_01/e.jpg,stim_01/f.jpg,2,3,j,3,44,224,56,f,0,1.06634632221,01,02,60.0191464151,PLT_learning_01,B,2014_Feb_17_1516,P10,
stim_fb/ques.jpg,stim_fb/negf.jpg,stim_fb/posf.jpg,stim_01/a.jpg,stim_01/b.jpg,2,1,j,3,45,225,15,j,1,0.71647060398,01,02,60.0191464151,PLT_learning_01,B,2014_Feb_17_1516,P10,
stim_fb/ques.jpg,stim_fb/negf.jpg,stim_fb/posf.jpg,stim_01/b.jpg,stim_01/a.jpg,1,1,f,3,46,226,6,f,1,0.549852885317,01,02,60.0191464151,PLT_learning_01,B,2014_Feb_17_1516,P10,
stim_fb/ques.jpg,stim_fb/negf.jpg,stim_fb/posf.jpg,stim_01/a.jpg,stim_01/b.jpg,2,1,j,3,47,227,12,j,1,0.616510125487,01,02,60.0191464151,PLT_learning_01,B,2014_Feb_17_1516,P10,
stim_fb/ques.jpg,stim_fb/posf.jpg,stim_fb/negf.jpg,stim_01/d.jpg,stim_01/c.jpg,1,2,f,3,48,228,29,f,1,0.566534919287,01,02,60.0191464151,PLT_learning_01,B,2014_Feb_17_1516,P10,
stim_fb/ques.jpg,stim_fb/negf.jpg,stim_fb/posf.jpg,stim_01/e.jpg,stim_01/f.jpg,2,3,j,3,49,229,52,j,1,1.01635596123,01,02,60.0191464151,PLT_learning_01,B,2014_Feb_17_1516,P10,
stim_fb/ques.jpg,stim_fb/negf.jpg,stim_fb/posf.jpg,stim_01/b.jpg,stim_01/a.jpg,1,1,f,3,50,230,5,f,1,0.483218054,01,02,60.0191464151,PLT_learning_01,B,2014_Feb_17_1516,P10,
stim_fb/ques.jpg,stim_fb/posf.jpg,stim_fb/negf.jpg,stim_01/c.jpg,stim_01/d.jpg,2,2,j,3,51,231,38,j,1,0.699773568619,01,02,60.0191464151,PLT_learning_01,B,2014_Feb_17_1516,P10,
stim_fb/ques.jpg,stim_fb/posf.jpg,stim_fb/negf.jpg,stim_01/a.jpg,stim_01/b.jpg,2,1,j,3,52,232,18,j,1,0.566520170525,01,02,60.0191464151,PLT_learning_01,B,2014_Feb_17_1516,P10,
stim_fb/ques.jpg,stim_fb/posf.jpg,stim_fb/negf.jpg,stim_01/e.jpg,stim_01/f.jpg,2,3,j,3,53,233,58,f,0,0.816449467297,01,02,60.0191464151,PLT_learning_01,B,2014_Feb_17_1516,P10,
stim_fb/ques.jpg,stim_fb/negf.jpg,stim_fb/posf.jpg,stim_01/d.jpg,stim_01/c.jpg,1,2,f,3,54,234,22,f,1,0.699795246652,01,02,60.0191464151,PLT_learning_01,B,2014_Feb_17_1516,P10,
stim_fb/ques.jpg,stim_fb/negf.jpg,stim_fb/posf.jpg,stim_01/b.jpg,stim_01/a.jpg,1,1,f,3,55,235,1,f,1,0.583188929406,01,02,60.0191464151,PLT_learning_01,B,2014_Feb_17_1516,P10,
stim_fb/ques.jpg,stim_fb/negf.jpg,stim_fb/posf.jpg,stim_01/a.jpg,stim_01/b.jpg,2,1,j,3,56,236,17,j,1,0.56654964098,01,02,60.0191464151,PLT_learning_01,B,2014_Feb_17_1516,P10,
stim_fb/ques.jpg,stim_fb/negf.jpg,stim_fb/posf.jpg,stim_01/e.jpg,stim_01/f.jpg,2,3,j,3,57,237,53,f,0,0.999729162939,01,02,60.0191464151,PLT_learning_01,B,2014_Feb_17_1516,P10,
stim_fb/ques.jpg,stim_fb/posf.jpg,stim_fb/negf.jpg,stim_01/c.jpg,stim_01/d.jpg,2,2,j,3,58,238,39,j,1,0.583178845272,01,02,60.0191464151,PLT_learning_01,B,2014_Feb_17_1516,P10,
stim_fb/ques.jpg,stim_fb/negf.jpg,stim_fb/posf.jpg,stim_01/a.jpg,stim_01/b.jpg,2,1,j,3,59,239,14,j,1,0.549859580004,01,02,60.0191464151,PLT_learning_01,B,2014_Feb_17_1516,P10,
stim_fb/ques.jpg,stim_fb/posf.jpg,stim_fb/negf.jpg,stim_01/e.jpg,stim_01/f.jpg,2,3,j,4,0,240,59,f,0,0.683187807611,01,02,60.0191464151,PLT_learning_01,B,2014_Feb_17_1516,P10,
stim_fb/ques.jpg,stim_fb/negf.jpg,stim_fb/posf.jpg,stim_01/f.jpg,stim_01/e.jpg,1,3,f,4,1,241,41,f,1,0.966391497808,01,02,60.0191464151,PLT_learning_01,B,2014_Feb_17_1516,P10,
stim_fb/ques.jpg,stim_fb/negf.jpg,stim_fb/posf.jpg,stim_01/d.jpg,stim_01/c.jpg,1,2,f,4,2,242,24,f,1,0.583190727889,01,02,60.0191464151,PLT_learning_01,B,2014_Feb_17_1516,P10,
stim_fb/ques.jpg,stim_fb/posf.jpg,stim_fb/negf.jpg,stim_01/f.jpg,stim_01/e.jpg,1,3,f,4,3,243,48,j,0,0.599860873227,01,02,60.0191464151,PLT_learning_01,B,2014_Feb_17_1516,P10,
stim_fb/ques.jpg,stim_fb/negf.jpg,stim_fb/posf.jpg,stim_01/d.jpg,stim_01/c.jpg,1,2,f,4,4,244,20,f,1,0.633183308396,01,02,60.0191464151,PLT_learning_01,B,2014_Feb_17_1516,P10,
stim_fb/ques.jpg,stim_fb/posf.jpg,stim_fb/negf.jpg,stim_01/f.jpg,stim_01/e.jpg,1,3,f,4,5,245,49,f,1,1.46622975166,01,02,60.0191464151,PLT_learning_01,B,2014_Feb_17_1516,P10,
stim_fb/ques.jpg,stim_fb/posf.jpg,stim_fb/negf.jpg,stim_01/f.jpg,stim_01/e.jpg,1,3,f,4,6,246,46,j,0,0.699847537989,01,02,60.0191464151,PLT_learning_01,B,2014_Feb_17_1516,P10,
stim_fb/ques.jpg,stim_fb/posf.jpg,stim_fb/negf.jpg,stim_01/e.jpg,stim_01/f.jpg,2,3,j,4,7,247,56,f,0,0.616514621694,01,02,60.0191464151,PLT_learning_01,B,2014_Feb_17_1516,P10,
stim_fb/ques.jpg,stim_fb/negf.jpg,stim_fb/posf.jpg,stim_01/c.jpg,stim_01/d.jpg,2,2,j,4,8,248,30,j,1,0.566530420072,01,02,60.0191464151,PLT_learning_01,B,2014_Feb_17_1516,P10,
stim_fb/ques.jpg,stim_fb/posf.jpg,stim_fb/negf.jpg,stim_01/a.jpg,stim_01/b.jpg,2,1,j,4,9,249,18,j,1,0.699793733881,01,02,60.0191464151,PLT_learning_01,B,2014_Feb_17_1516,P10,
stim_fb/ques.jpg,stim_fb/negf.jpg,stim_fb/posf.jpg,stim_01/f.jpg,stim_01/e.jpg,1,3,f,4,10,250,45,j,0,0.799813863054,01,02,60.0191464151,PLT_learning_01,B,2014_Feb_17_1516,P10,
stim_fb/ques.jpg,stim_fb/negf.jpg,stim_fb/posf.jpg,stim_01/e.jpg,stim_01/f.jpg,2,3,j,4,11,251,52,j,1,0.616517475809,01,02,60.0191464151,PLT_learning_01,B,2014_Feb_17_1516,P10,
stim_fb/ques.jpg,stim_fb/negf.jpg,stim_fb/posf.jpg,stim_01/e.jpg,stim_01/f.jpg,2,3,j,4,12,252,55,f,0,0.58318460162,01,02,60.0191464151,PLT_learning_01,B,2014_Feb_17_1516,P10,
stim_fb/ques.jpg,stim_fb/negf.jpg,stim_fb/posf.jpg,stim_01/a.jpg,stim_01/b.jpg,2,1,j,4,13,253,16,j,1,0.466546275592,01,02,60.0191464151,PLT_learning_01,B,2014_Feb_17_1516,P10,
stim_fb/ques.jpg,stim_fb/negf.jpg,stim_fb/posf.jpg,stim_01/c.jpg,stim_01/d.jpg,2,2,j,4,14,254,32,j,1,0.533219160759,01,02,60.0191464151,PLT_learning_01,B,2014_Feb_17_1516,P10,
stim_fb/ques.jpg,stim_fb/posf.jpg,stim_fb/negf.jpg,stim_01/d.jpg,stim_01/c.jpg,1,2,f,4,15,255,27,f,1,0.533227133631,01,02,60.0191464151,PLT_learning_01,B,2014_Feb_17_1516,P10,
stim_fb/ques.jpg,stim_fb/negf.jpg,stim_fb/posf.jpg,stim_01/b.jpg,stim_01/a.jpg,1,1,f,4,16,256,3,f,1,0.56650268795,01,02,60.0191464151,PLT_learning_01,B,2014_Feb_17_1516,P10,
stim_fb/ques.jpg,stim_fb/negf.jpg,stim_fb/posf.jpg,stim_01/a.jpg,stim_01/b.jpg,2,1,j,4,17,257,15,j,1,0.516565523568,01,02,60.0191464151,PLT_learning_01,B,2014_Feb_17_1516,P10,
stim_fb/ques.jpg,stim_fb/posf.jpg,stim_fb/negf.jpg,stim_01/b.jpg,stim_01/a.jpg,1,1,f,4,18,258,9,f,1,0.516561168713,01,02,60.0191464151,PLT_learning_01,B,2014_Feb_17_1516,P10,
stim_fb/ques.jpg,stim_fb/negf.jpg,stim_fb/posf.jpg,stim_01/b.jpg,stim_01/a.jpg,1,1,f,4,19,259,1,f,1,0.666493545162,01,02,60.0191464151,PLT_learning_01,B,2014_Feb_17_1516,P10,
stim_fb/ques.jpg,stim_fb/posf.jpg,stim_fb/negf.jpg,stim_01/a.jpg,stim_01/b.jpg,2,1,j,4,20,260,19,j,1,0.44993717942,01,02,60.0191464151,PLT_learning_01,B,2014_Feb_17_1516,P10,
stim_fb/ques.jpg,stim_fb/negf.jpg,stim_fb/posf.jpg,stim_01/d.jpg,stim_01/c.jpg,1,2,f,4,21,261,26,f,1,0.533159019857,01,02,60.0191464151,PLT_learning_01,B,2014_Feb_17_1516,P10,
stim_fb/ques.jpg,stim_fb/negf.jpg,stim_fb/posf.jpg,stim_01/b.jpg,stim_01/a.jpg,1,1,f,4,22,262,7,f,1,0.533197963925,01,02,60.0191464151,PLT_learning_01,B,2014_Feb_17_1516,P10,
stim_fb/ques.jpg,stim_fb/negf.jpg,stim_fb/posf.jpg,stim_01/a.jpg,stim_01/b.jpg,2,1,j,4,23,263,14,j,1,0.649807586408,01,02,60.0191464151,PLT_learning_01,B,2014_Feb_17_1516,P10,
stim_fb/ques.jpg,stim_fb/negf.jpg,stim_fb/posf.jpg,stim_01/e.jpg,stim_01/f.jpg,2,3,j,4,24,264,54,f,0,0.666428739633,01,02,60.0191464151,PLT_learning_01,B,2014_Feb_17_1516,P10,
stim_fb/ques.jpg,stim_fb/negf.jpg,stim_fb/posf.jpg,stim_01/a.jpg,stim_01/b.jpg,2,1,j,4,25,265,13,j,1,0.783109733009,01,02,60.0191464151,PLT_learning_01,B,2014_Feb_17_1516,P10,
stim_fb/ques.jpg,stim_fb/posf.jpg,stim_fb/negf.jpg,stim_01/c.jpg,stim_01/d.jpg,2,2,j,4,26,266,38,j,1,0.549843736513,01,02,60.0191464151,PLT_learning_01,B,2014_Feb_17_1516,P10,
stim_fb/ques.jpg,stim_fb/negf.jpg,stim_fb/posf.jpg,stim_01/a.jpg,stim_01/b.jpg,2,1,j,4,27,267,11,j,1,0.53321786152,01,02,60.0191464151,PLT_learning_01,B,2014_Feb_17_1516,P10,
stim_fb/ques.jpg,stim_fb/negf.jpg,stim_fb/posf.jpg,stim_01/a.jpg,stim_01/b.jpg,2,1,j,4,28,268,12,j,1,0.649833829821,01,02,60.0191464151,PLT_learning_01,B,2014_Feb_17_1516,P10,
stim_fb/ques.jpg,stim_fb/negf.jpg,stim_fb/posf.jpg,stim_01/c.jpg,stim_01/d.jpg,2,2,j,4,29,269,35,j,1,0.483229211811,01,02,60.0191464151,PLT_learning_01,B,2014_Feb_17_1516,P10,
stim_fb/ques.jpg,stim_fb/negf.jpg,stim_fb/posf.jpg,stim_01/c.jpg,stim_01/d.jpg,2,2,j,4,30,270,34,j,1,0.499862449155,01,02,60.0191464151,PLT_learning_01,B,2014_Feb_17_1516,P10,
stim_fb/ques.jpg,stim_fb/negf.jpg,stim_fb/posf.jpg,stim_01/b.jpg,stim_01/a.jpg,1,1,f,4,31,271,0,f,1,0.69975957474,01,02,60.0191464151,PLT_learning_01,B,2014_Feb_17_1516,P10,
stim_fb/ques.jpg,stim_fb/negf.jpg,stim_fb/posf.jpg,stim_01/c.jpg,stim_01/d.jpg,2,2,j,4,32,272,31,j,1,0.483200971422,01,02,60.0191464151,PLT_learning_01,B,2014_Feb_17_1516,P10,
stim_fb/ques.jpg,stim_fb/negf.jpg,stim_fb/posf.jpg,stim_01/d.jpg,stim_01/c.jpg,1,2,f,4,33,273,22,f,1,0.516522889302,01,02,60.0191464151,PLT_learning_01,B,2014_Feb_17_1516,P10,
stim_fb/ques.jpg,stim_fb/posf.jpg,stim_fb/negf.jpg,stim_01/b.jpg,stim_01/a.jpg,1,1,f,4,34,274,8,f,1,0.566521662244,01,02,60.0191464151,PLT_learning_01,B,2014_Feb_17_1516,P10,
stim_fb/ques.jpg,stim_fb/negf.jpg,stim_fb/posf.jpg,stim_01/e.jpg,stim_01/f.jpg,2,3,j,4,35,275,50,j,1,0.683160812325,01,02,60.0191464151,PLT_learning_01,B,2014_Feb_17_1516,P10,
stim_fb/ques.jpg,stim_fb/negf.jpg,stim_fb/posf.jpg,stim_01/d.jpg,stim_01/c.jpg,1,2,f,4,36,276,21,f,1,0.533209181885,01,02,60.0191464151,PLT_learning_01,B,2014_Feb_17_1516,P10,
stim_fb/ques.jpg,stim_fb/negf.jpg,stim_fb/posf.jpg,stim_01/f.jpg,stim_01/e.jpg,1,3,f,4,37,277,42,j,0,0.749796335366,01,02,60.0191464151,PLT_learning_01,B,2014_Feb_17_1516,P10,
stim_fb/ques.jpg,stim_fb/negf.jpg,stim_fb/posf.jpg,stim_01/b.jpg,stim_01/a.jpg,1,1,f,4,38,278,6,f,1,0.449911871339,01,02,60.0191464151,PLT_learning_01,B,2014_Feb_17_1516,P10,
stim_fb/ques.jpg,stim_fb/negf.jpg,stim_fb/posf.jpg,stim_01/f.jpg,stim_01/e.jpg,1,3,f,4,39,279,40,j,0,0.666445683867,01,02,60.0191464151,PLT_learning_01,B,2014_Feb_17_1516,P10,
stim_fb/ques.jpg,stim_fb/negf.jpg,stim_fb/posf.jpg,stim_01/b.jpg,stim_01/a.jpg,1,1,f,4,40,280,4,f,1,0.49984556507,01,02,60.0191464151,PLT_learning_01,B,2014_Feb_17_1516,P10,
stim_fb/ques.jpg,stim_fb/negf.jpg,stim_fb/posf.jpg,stim_01/d.jpg,stim_01/c.jpg,1,2,f,4,41,281,25,f,1,0.833127005059,01,02,60.0191464151,PLT_learning_01,B,2014_Feb_17_1516,P10,
stim_fb/ques.jpg,stim_fb/negf.jpg,stim_fb/posf.jpg,stim_01/b.jpg,stim_01/a.jpg,1,1,f,4,42,282,5,f,1,0.533164478463,01,02,60.0191464151,PLT_learning_01,B,2014_Feb_17_1516,P10,
stim_fb/ques.jpg,stim_fb/negf.jpg,stim_fb/posf.jpg,stim_01/e.jpg,stim_01/f.jpg,2,3,j,4,43,283,53,j,1,0.483224868985,01,02,60.0191464151,PLT_learning_01,B,2014_Feb_17_1516,P10,
stim_fb/ques.jpg,stim_fb/negf.jpg,stim_fb/posf.jpg,stim_01/a.jpg,stim_01/b.jpg,2,1,j,4,44,284,17,j,1,0.649803469147,01,02,60.0191464151,PLT_learning_01,B,2014_Feb_17_1516,P10,
stim_fb/ques.jpg,stim_fb/posf.jpg,stim_fb/negf.jpg,stim_01/f.jpg,stim_01/e.jpg,1,3,f,4,45,285,47,j,0,0.716446144014,01,02,60.0191464151,PLT_learning_01,B,2014_Feb_17_1516,P10,
stim_fb/ques.jpg,stim_fb/negf.jpg,stim_fb/posf.jpg,stim_01/f.jpg,stim_01/e.jpg,1,3,f,4,46,286,43,f,1,1.2153241735,01,02,60.0191464151,PLT_learning_01,B,2014_Feb_17_1516,P10,
stim_fb/ques.jpg,stim_fb/negf.jpg,stim_fb/posf.jpg,stim_01/d.jpg,stim_01/c.jpg,1,2,f,4,47,287,23,f,1,0.566501127059,01,02,60.0191464151,PLT_learning_01,B,2014_Feb_17_1516,P10,
stim_fb/ques.jpg,stim_fb/posf.jpg,stim_fb/negf.jpg,stim_01/d.jpg,stim_01/c.jpg,1,2,f,4,48,288,28,f,1,0.666505581161,01,02,60.0191464151,PLT_learning_01,B,2014_Feb_17_1516,P10,
stim_fb/ques.jpg,stim_fb/posf.jpg,stim_fb/negf.jpg,stim_01/d.jpg,stim_01/c.jpg,1,2,f,4,49,289,29,j,0,0.54986603409,01,02,60.0191464151,PLT_learning_01,B,2014_Feb_17_1516,P10,
stim_fb/ques.jpg,stim_fb/negf.jpg,stim_fb/posf.jpg,stim_01/e.jpg,stim_01/f.jpg,2,3,j,4,50,290,51,j,1,0.699815941234,01,02,60.0191464151,PLT_learning_01,B,2014_Feb_17_1516,P10,
stim_fb/ques.jpg,stim_fb/posf.jpg,stim_fb/negf.jpg,stim_01/e.jpg,stim_01/f.jpg,2,3,j,4,51,291,58,j,1,0.716528931362,01,02,60.0191464151,PLT_learning_01,B,2014_Feb_17_1516,P10,
stim_fb/ques.jpg,stim_fb/negf.jpg,stim_fb/posf.jpg,stim_01/c.jpg,stim_01/d.jpg,2,2,j,4,52,292,33,j,1,0.799771090443,01,02,60.0191464151,PLT_learning_01,B,2014_Feb_17_1516,P10,
stim_fb/ques.jpg,stim_fb/posf.jpg,stim_fb/negf.jpg,stim_01/c.jpg,stim_01/d.jpg,2,2,j,4,53,293,39,j,1,0.549861844648,01,02,60.0191464151,PLT_learning_01,B,2014_Feb_17_1516,P10,
stim_fb/ques.jpg,stim_fb/negf.jpg,stim_fb/posf.jpg,stim_01/b.jpg,stim_01/a.jpg,1,1,f,4,54,294,2,f,1,0.666495623342,01,02,60.0191464151,PLT_learning_01,B,2014_Feb_17_1516,P10,
stim_fb/ques.jpg,stim_fb/negf.jpg,stim_fb/posf.jpg,stim_01/c.jpg,stim_01/d.jpg,2,2,j,4,55,295,36,j,1,0.583220790822,01,02,60.0191464151,PLT_learning_01,B,2014_Feb_17_1516,P10,
stim_fb/ques.jpg,stim_fb/posf.jpg,stim_fb/negf.jpg,stim_01/c.jpg,stim_01/d.jpg,2,2,j,4,56,296,37,j,1,0.516546892129,01,02,60.0191464151,PLT_learning_01,B,2014_Feb_17_1516,P10,
stim_fb/ques.jpg,stim_fb/posf.jpg,stim_fb/negf.jpg,stim_01/e.jpg,stim_01/f.jpg,2,3,j,4,57,297,57,f,0,1.26630265938,01,02,60.0191464151,PLT_learning_01,B,2014_Feb_17_1516,P10,
stim_fb/ques.jpg,stim_fb/negf.jpg,stim_fb/posf.jpg,stim_01/a.jpg,stim_01/b.jpg,2,1,j,4,58,298,10,j,1,0.683142274118,01,02,60.0191464151,PLT_learning_01,B,2014_Feb_17_1516,P10,
stim_fb/ques.jpg,stim_fb/negf.jpg,stim_fb/posf.jpg,stim_01/f.jpg,stim_01/e.jpg,1,3,f,4,59,299,44,j,0,0.716469590454,01,02,60.0191464151,PLT_learning_01,B,2014_Feb_17_1516,P10,
stim_fb/ques.jpg,stim_fb/posf.jpg,stim_fb/negf.jpg,stim_01/c.jpg,stim_01/d.jpg,2,2,j,5,0,300,37,j,1,0.566547460546,01,02,60.0191464151,PLT_learning_01,B,2014_Feb_17_1516,P10,
stim_fb/ques.jpg,stim_fb/negf.jpg,stim_fb/posf.jpg,stim_01/e.jpg,stim_01/f.jpg,2,3,j,5,1,301,51,j,1,0.616510110451,01,02,60.0191464151,PLT_learning_01,B,2014_Feb_17_1516,P10,
stim_fb/ques.jpg,stim_fb/negf.jpg,stim_fb/posf.jpg,stim_01/c.jpg,stim_01/d.jpg,2,2,j,5,2,302,30,j,1,0.68319340456,01,02,60.0191464151,PLT_learning_01,B,2014_Feb_17_1516,P10,
stim_fb/ques.jpg,stim_fb/negf.jpg,stim_fb/posf.jpg,stim_01/d.jpg,stim_01/c.jpg,1,2,f,5,3,303,22,f,1,0.566514341997,01,02,60.0191464151,PLT_learning_01,B,2014_Feb_17_1516,P10,
stim_fb/ques.jpg,stim_fb/negf.jpg,stim_fb/posf.jpg,stim_01/a.jpg,stim_01/b.jpg,2,1,j,5,4,304,12,j,1,0.616758839407,01,02,60.0191464151,PLT_learning_01,B,2014_Feb_17_1516,P10,
stim_fb/ques.jpg,stim_fb/negf.jpg,stim_fb/posf.jpg,stim_01/a.jpg,stim_01/b.jpg,2,1,j,5,5,305,10,j,1,0.566576717469,01,02,60.0191464151,PLT_learning_01,B,2014_Feb_17_1516,P10,
stim_fb/ques.jpg,stim_fb/negf.jpg,stim_fb/posf.jpg,stim_01/b.jpg,stim_01/a.jpg,1,1,f,5,6,306,5,f,1,0.533199633085,01,02,60.0191464151,PLT_learning_01,B,2014_Feb_17_1516,P10,
stim_fb/ques.jpg,stim_fb/negf.jpg,stim_fb/posf.jpg,stim_01/a.jpg,stim_01/b.jpg,2,1,j,5,7,307,11,j,1,0.549850999617,01,02,60.0191464151,PLT_learning_01,B,2014_Feb_17_1516,P10,
stim_fb/ques.jpg,stim_fb/negf.jpg,stim_fb/posf.jpg,stim_01/e.jpg,stim_01/f.jpg,2,3,j,5,8,308,55,f,0,1.24963505838,01,02,60.0191464151,PLT_learning_01,B,2014_Feb_17_1516,P10,
stim_fb/ques.jpg,stim_fb/negf.jpg,stim_fb/posf.jpg,stim_01/e.jpg,stim_01/f.jpg,2,3,j,5,9,309,50,j,1,1.46624191999,01,02,60.0191464151,PLT_learning_01,B,2014_Feb_17_1516,P10,
stim_fb/ques.jpg,stim_fb/negf.jpg,stim_fb/posf.jpg,stim_01/c.jpg,stim_01/d.jpg,2,2,j,5,10,310,31,f,0,1.36628681589,01,02,60.0191464151,PLT_learning_01,B,2014_Feb_17_1516,P10,
stim_fb/ques.jpg,stim_fb/negf.jpg,stim_fb/posf.jpg,stim_01/d.jpg,stim_01/c.jpg,1,2,f,5,11,311,21,j,0,1.31629391659,01,02,60.0191464151,PLT_learning_01,B,2014_Feb_17_1516,P10,
stim_fb/ques.jpg,stim_fb/negf.jpg,stim_fb/posf.jpg,stim_01/c.jpg,stim_01/d.jpg,2,2,j,5,12,312,35,j,1,1.08304255457,01,02,60.0191464151,PLT_learning_01,B,2014_Feb_17_1516,P10,
stim_fb/ques.jpg,stim_fb/negf.jpg,stim_fb/posf.jpg,stim_01/f.jpg,stim_01/e.jpg,1,3,f,5,13,313,43,j,0,1.16631424726,01,02,60.0191464151,PLT_learning_01,B,2014_Feb_17_1516,P10,
stim_fb/ques.jpg,stim_fb/negf.jpg,stim_fb/posf.jpg,stim_01/e.jpg,stim_01/f.jpg,2,3,j,5,14,314,54,j,1,1.29962401185,01,02,60.0191464151,PLT_learning_01,B,2014_Feb_17_1516,P10,
stim_fb/ques.jpg,stim_fb/posf.jpg,stim_fb/negf.jpg,stim_01/d.jpg,stim_01/c.jpg,1,2,f,5,15,315,29,f,1,0.883088987301,01,02,60.0191464151,PLT_learning_01,B,2014_Feb_17_1516,P10,
stim_fb/ques.jpg,stim_fb/posf.jpg,stim_fb/negf.jpg,stim_01/f.jpg,stim_01/e.jpg,1,3,f,5,16,316,46,f,1,1.03290577966,01,02,60.0191464151,PLT_learning_01,B,2014_Feb_17_1516,P10,
stim_fb/ques.jpg,stim_fb/posf.jpg,stim_fb/negf.jpg,stim_01/a.jpg,stim_01/b.jpg,2,1,j,5,17,317,18,j,1,0.749765670935,01,02,60.0191464151,PLT_learning_01,B,2014_Feb_17_1516,P10,
stim_fb/ques.jpg,stim_fb/negf.jpg,stim_fb/posf.jpg,stim_01/a.jpg,stim_01/b.jpg,2,1,j,5,18,318,15,j,1,0.583269957368,01,02,60.0191464151,PLT_learning_01,B,2014_Feb_17_1516,P10,
stim_fb/ques.jpg,stim_fb/negf.jpg,stim_fb/posf.jpg,stim_01/d.jpg,stim_01/c.jpg,1,2,f,5,19,319,23,f,1,0.6831486861,01,02,60.0191464151,PLT_learning_01,B,2014_Feb_17_1516,P10,
stim_fb/ques.jpg,stim_fb/posf.jpg,stim_fb/negf.jpg,stim_01/e.jpg,stim_01/f.jpg,2,3,j,5,20,320,57,j,1,1.0163819039,01,02,60.0191464151,PLT_learning_01,B,2014_Feb_17_1516,P10,
stim_fb/ques.jpg,stim_fb/negf.jpg,stim_fb/posf.jpg,stim_01/e.jpg,stim_01/f.jpg,2,3,j,5,21,321,53,j,1,0.633156920625,01,02,60.0191464151,PLT_learning_01,B,2014_Feb_17_1516,P10,
stim_fb/ques.jpg,stim_fb/negf.jpg,stim_fb/posf.jpg,stim_01/a.jpg,stim_01/b.jpg,2,1,j,5,22,322,14,j,1,0.716496194766,01,02,60.0191464151,PLT_learning_01,B,2014_Feb_17_1516,P10,
stim_fb/ques.jpg,stim_fb/posf.jpg,stim_fb/negf.jpg,stim_01/f.jpg,stim_01/e.jpg,1,3,f,5,23,323,48,f,1,0.866422429907,01,02,60.0191464151,PLT_learning_01,B,2014_Feb_17_1516,P10,
stim_fb/ques.jpg,stim_fb/negf.jpg,stim_fb/posf.jpg,stim_01/b.jpg,stim_01/a.jpg,1,1,f,5,24,324,7,f,1,0.783142244043,01,02,60.0191464151,PLT_learning_01,B,2014_Feb_17_1516,P10,
stim_fb/ques.jpg,stim_fb/posf.jpg,stim_fb/negf.jpg,stim_01/c.jpg,stim_01/d.jpg,2,2,j,5,25,325,39,j,1,0.633162695017,01,02,60.0191464151,PLT_learning_01,B,2014_Feb_17_1516,P10,
stim_fb/ques.jpg,stim_fb/posf.jpg,stim_fb/negf.jpg,stim_01/a.jpg,stim_01/b.jpg,2,1,j,5,26,326,19,j,1,0.599854461244,01,02,60.0191464151,PLT_learning_01,B,2014_Feb_17_1516,P10,
stim_fb/ques.jpg,stim_fb/negf.jpg,stim_fb/posf.jpg,stim_01/e.jpg,stim_01/f.jpg,2,3,j,5,27,327,52,j,1,0.633165837851,01,02,60.0191464151,PLT_learning_01,B,2014_Feb_17_1516,P10,
stim_fb/ques.jpg,stim_fb/negf.jpg,stim_fb/posf.jpg,stim_01/f.jpg,stim_01/e.jpg,1,3,f,5,28,328,44,j,0,0.649847438741,01,02,60.0191464151,PLT_learning_01,B,2014_Feb_17_1516,P10,
stim_fb/ques.jpg,stim_fb/negf.jpg,stim_fb/posf.jpg,stim_01/c.jpg,stim_01/d.jpg,2,2,j,5,29,329,36,j,1,0.466579051285,01,02,60.0191464151,PLT_learning_01,B,2014_Feb_17_1516,P10,
stim_fb/ques.jpg,stim_fb/negf.jpg,stim_fb/posf.jpg,stim_01/c.jpg,stim_01/d.jpg,2,2,j,5,30,330,32,f,0,0.699793174487,01,02,60.0191464151,PLT_learning_01,B,2014_Feb_17_1516,P10,
stim_fb/ques.jpg,stim_fb/negf.jpg,stim_fb/posf.jpg,stim_01/b.jpg,stim_01/a.jpg,1,1,f,5,31,331,1,f,1,0.766476119728,01,02,60.0191464151,PLT_learning_01,B,2014_Feb_17_1516,P10,
stim_fb/ques.jpg,stim_fb/negf.jpg,stim_fb/posf.jpg,stim_01/b.jpg,stim_01/a.jpg,1,1,f,5,32,332,2,f,1,0.499849312411,01,02,60.0191464151,PLT_learning_01,B,2014_Feb_17_1516,P10,
stim_fb/ques.jpg,stim_fb/negf.jpg,stim_fb/posf.jpg,stim_01/c.jpg,stim_01/d.jpg,2,2,j,5,33,333,33,j,1,0.716492288027,01,02,60.0191464151,PLT_learning_01,B,2014_Feb_17_1516,P10,
stim_fb/ques.jpg,stim_fb/negf.jpg,stim_fb/posf.jpg,stim_01/f.jpg,stim_01/e.jpg,1,3,f,5,34,334,42,j,0,0.816475575372,01,02,60.0191464151,PLT_learning_01,B,2014_Feb_17_1516,P10,
stim_fb/ques.jpg,stim_fb/posf.jpg,stim_fb/negf.jpg,stim_01/e.jpg,stim_01/f.jpg,2,3,j,5,35,335,59,f,0,0.733117588589,01,02,60.0191464151,PLT_learning_01,B,2014_Feb_17_1516,P10,
stim_fb/ques.jpg,stim_fb/posf.jpg,stim_fb/negf.jpg,stim_01/f.jpg,stim_01/e.jpg,1,3,f,5,36,336,47,j,0,0.416569670905,01,02,60.0191464151,PLT_learning_01,B,2014_Feb_17_1516,P10,
stim_fb/ques.jpg,stim_fb/negf.jpg,stim_fb/posf.jpg,stim_01/a.jpg,stim_01/b.jpg,2,1,j,5,37,337,16,j,1,0.633187515883,01,02,60.0191464151,PLT_learning_01,B,2014_Feb_17_1516,P10,
stim_fb/ques.jpg,stim_fb/negf.jpg,stim_fb/posf.jpg,stim_01/b.jpg,stim_01/a.jpg,1,1,f,5,38,338,0,f,1,0.466535256126,01,02,60.0191464151,PLT_learning_01,B,2014_Feb_17_1516,P10,
stim_fb/ques.jpg,stim_fb/negf.jpg,stim_fb/posf.jpg,stim_01/a.jpg,stim_01/b.jpg,2,1,j,5,39,339,13,j,1,0.499908445801,01,02,60.0191464151,PLT_learning_01,B,2014_Feb_17_1516,P10,
stim_fb/ques.jpg,stim_fb/posf.jpg,stim_fb/negf.jpg,stim_01/e.jpg,stim_01/f.jpg,2,3,j,5,40,340,56,j,1,0.633152908625,01,02,60.0191464151,PLT_learning_01,B,2014_Feb_17_1516,P10,
stim_fb/ques.jpg,stim_fb/negf.jpg,stim_fb/posf.jpg,stim_01/a.jpg,stim_01/b.jpg,2,1,j,5,41,341,17,j,1,0.599921462244,01,02,60.0191464151,PLT_learning_01,B,2014_Feb_17_1516,P10,
stim_fb/ques.jpg,stim_fb/negf.jpg,stim_fb/posf.jpg,stim_01/c.jpg,stim_01/d.jpg,2,2,j,5,42,342,34,j,1,0.649811547281,01,02,60.0191464151,PLT_learning_01,B,2014_Feb_17_1516,P10,
stim_fb/ques.jpg,stim_fb/negf.jpg,stim_fb/posf.jpg,stim_01/d.jpg,stim_01/c.jpg,1,2,f,5,43,343,24,f,1,0.566540660597,01,02,60.0191464151,PLT_learning_01,B,2014_Feb_17_1516,P10,
stim_fb/ques.jpg,stim_fb/posf.jpg,stim_fb/negf.jpg,stim_01/d.jpg,stim_01/c.jpg,1,2,f,5,44,344,27,f,1,0.583045595145,01,02,60.0191464151,PLT_learning_01,B,2014_Feb_17_1516,P10,
stim_fb/ques.jpg,stim_fb/posf.jpg,stim_fb/negf.jpg,stim_01/c.jpg,stim_01/d.jpg,2,2,j,5,45,345,38,j,1,0.649802693212,01,02,60.0191464151,PLT_learning_01,B,2014_Feb_17_1516,P10,
stim_fb/ques.jpg,stim_fb/negf.jpg,stim_fb/posf.jpg,stim_01/f.jpg,stim_01/e.jpg,1,3,f,5,46,346,41,j,0,0.999698606777,01,02,60.0191464151,PLT_learning_01,B,2014_Feb_17_1516,P10,
stim_fb/ques.jpg,stim_fb/negf.jpg,stim_fb/posf.jpg,stim_01/d.jpg,stim_01/c.jpg,1,2,f,5,47,347,25,f,1,0.516540329771,01,02,60.0191464151,PLT_learning_01,B,2014_Feb_17_1516,P10,
stim_fb/ques.jpg,stim_fb/posf.jpg,stim_fb/negf.jpg,stim_01/d.jpg,stim_01/c.jpg,1,2,f,5,48,348,28,f,1,0.549877477612,01,02,60.0191464151,PLT_learning_01,B,2014_Feb_17_1516,P10,
stim_fb/ques.jpg,stim_fb/posf.jpg,stim_fb/negf.jpg,stim_01/f.jpg,stim_01/e.jpg,1,3,f,5,49,349,49,j,0,0.749816296118,01,02,60.0191464151,PLT_learning_01,B,2014_Feb_17_1516,P10,
stim_fb/ques.jpg,stim_fb/posf.jpg,stim_fb/negf.jpg,stim_01/e.jpg,stim_01/f.jpg,2,3,j,5,50,350,58,j,1,0.58317800618,01,02,60.0191464151,PLT_learning_01,B,2014_Feb_17_1516,P10,
stim_fb/ques.jpg,stim_fb/negf.jpg,stim_fb/posf.jpg,stim_01/f.jpg,stim_01/e.jpg,1,3,f,5,51,351,40,f,1,0.783132202013,01,02,60.0191464151,PLT_learning_01,B,2014_Feb_17_1516,P10,
stim_fb/ques.jpg,stim_fb/negf.jpg,stim_fb/posf.jpg,stim_01/d.jpg,stim_01/c.jpg,1,2,f,5,52,352,20,f,1,0.633168767152,01,02,60.0191464151,PLT_learning_01,B,2014_Feb_17_1516,P10,
stim_fb/ques.jpg,stim_fb/posf.jpg,stim_fb/negf.jpg,stim_01/b.jpg,stim_01/a.jpg,1,1,f,5,53,353,9,f,1,0.766442366599,01,02,60.0191464151,PLT_learning_01,B,2014_Feb_17_1516,P10,
stim_fb/ques.jpg,stim_fb/negf.jpg,stim_fb/posf.jpg,stim_01/b.jpg,stim_01/a.jpg,1,1,f,5,54,354,6,f,1,0.783125104323,01,02,60.0191464151,PLT_learning_01,B,2014_Feb_17_1516,P10,
stim_fb/ques.jpg,stim_fb/negf.jpg,stim_fb/posf.jpg,stim_01/b.jpg,stim_01/a.jpg,1,1,f,5,55,355,4,f,1,0.566507698439,01,02,60.0191464151,PLT_learning_01,B,2014_Feb_17_1516,P10,
stim_fb/ques.jpg,stim_fb/negf.jpg,stim_fb/posf.jpg,stim_01/f.jpg,stim_01/e.jpg,1,3,f,5,56,356,45,j,0,0.616483012909,01,02,60.0191464151,PLT_learning_01,B,2014_Feb_17_1516,P10,
stim_fb/ques.jpg,stim_fb/posf.jpg,stim_fb/negf.jpg,stim_01/b.jpg,stim_01/a.jpg,1,1,f,5,57,357,8,f,1,0.583169476921,01,02,60.0191464151,PLT_learning_01,B,2014_Feb_17_1516,P10,
stim_fb/ques.jpg,stim_fb/negf.jpg,stim_fb/posf.jpg,stim_01/b.jpg,stim_01/a.jpg,1,1,f,5,58,358,3,f,1,0.633219939699,01,02,60.0191464151,PLT_learning_01,B,2014_Feb_17_1516,P10,
stim_fb/ques.jpg,stim_fb/negf.jpg,stim_fb/posf.jpg,stim_01/d.jpg,stim_01/c.jpg,1,2,f,5,59,359,26,f,1,0.78308543244,01,02,60.0191464151,PLT_learning_01,B,2014_Feb_17_1516,P10,
