Fb3,Fb2,Fb1,Symbol2,Symbol1,PosCond,Pair,Correct,trials.thisRepN,trials.thisTrialN,trials.thisN,trials.thisIndex,Response.keys,Response.corr,Response.rt,Version,Session Number,frameRate,expName,StimCondition,date,Participant,
stim_fb/ques.jpg,stim_fb/negf.jpg,stim_fb/posf.jpg,stim_01/a.jpg,stim_01/b.jpg,2,1,j,0,0,0,10,f,0,0.983065041615,01,03,60.0243612223,PLT_learning_01,B,2014_Feb_24_1900,P11,
stim_fb/ques.jpg,stim_fb/negf.jpg,stim_fb/posf.jpg,stim_01/b.jpg,stim_01/a.jpg,1,1,f,0,1,1,1,None,0,,01,03,60.0243612223,PLT_learning_01,B,2014_Feb_24_1900,P11,
stim_fb/ques.jpg,stim_fb/negf.jpg,stim_fb/posf.jpg,stim_01/f.jpg,stim_01/e.jpg,1,3,f,0,2,2,41,f,1,1.08305758002,01,03,60.0243612223,PLT_learning_01,B,2014_Feb_24_1900,P11,
stim_fb/ques.jpg,stim_fb/negf.jpg,stim_fb/posf.jpg,stim_01/a.jpg,stim_01/b.jpg,2,1,j,0,3,3,13,j,1,1.04967823099,01,03,60.0243612223,PLT_learning_01,B,2014_Feb_24_1900,P11,
stim_fb/ques.jpg,stim_fb/negf.jpg,stim_fb/posf.jpg,stim_01/d.jpg,stim_01/c.jpg,1,2,f,0,4,4,24,j,0,1.0996593379,01,03,60.0243612223,PLT_learning_01,B,2014_Feb_24_1900,P11,
stim_fb/ques.jpg,stim_fb/posf.jpg,stim_fb/negf.jpg,stim_01/f.jpg,stim_01/e.jpg,1,3,f,0,5,5,46,f,1,1.34963324787,01,03,60.0243612223,PLT_learning_01,B,2014_Feb_24_1900,P11,
stim_fb/ques.jpg,stim_fb/negf.jpg,stim_fb/posf.jpg,stim_01/e.jpg,stim_01/f.jpg,2,3,j,0,6,6,53,f,0,0.749986944462,01,03,60.0243612223,PLT_learning_01,B,2014_Feb_24_1900,P11,
stim_fb/ques.jpg,stim_fb/negf.jpg,stim_fb/posf.jpg,stim_01/b.jpg,stim_01/a.jpg,1,1,f,0,7,7,6,j,0,0.983094659441,01,03,60.0243612223,PLT_learning_01,B,2014_Feb_24_1900,P11,
stim_fb/ques.jpg,stim_fb/negf.jpg,stim_fb/posf.jpg,stim_01/c.jpg,stim_01/d.jpg,2,2,j,0,8,8,35,j,1,1.04968630912,01,03,60.0243612223,PLT_learning_01,B,2014_Feb_24_1900,P11,
stim_fb/ques.jpg,stim_fb/negf.jpg,stim_fb/posf.jpg,stim_01/e.jpg,stim_01/f.jpg,2,3,j,0,9,9,54,f,0,1.16633763957,01,03,60.0243612223,PLT_learning_01,B,2014_Feb_24_1900,P11,
stim_fb/ques.jpg,stim_fb/negf.jpg,stim_fb/posf.jpg,stim_01/f.jpg,stim_01/e.jpg,1,3,f,0,10,10,42,f,1,0.949731220066,01,03,60.0243612223,PLT_learning_01,B,2014_Feb_24_1900,P11,
stim_fb/ques.jpg,stim_fb/posf.jpg,stim_fb/negf.jpg,stim_01/c.jpg,stim_01/d.jpg,2,2,j,0,11,11,38,j,1,1.06635108007,01,03,60.0243612223,PLT_learning_01,B,2014_Feb_24_1900,P11,
stim_fb/ques.jpg,stim_fb/posf.jpg,stim_fb/negf.jpg,stim_01/e.jpg,stim_01/f.jpg,2,3,j,0,12,12,56,j,1,0.883104328539,01,03,60.0243612223,PLT_learning_01,B,2014_Feb_24_1900,P11,
stim_fb/ques.jpg,stim_fb/posf.jpg,stim_fb/negf.jpg,stim_01/a.jpg,stim_01/b.jpg,2,1,j,0,13,13,19,f,0,1.14954239442,01,03,60.0243612223,PLT_learning_01,B,2014_Feb_24_1900,P11,
stim_fb/ques.jpg,stim_fb/negf.jpg,stim_fb/posf.jpg,stim_01/f.jpg,stim_01/e.jpg,1,3,f,0,14,14,45,f,1,1.09967875129,01,03,60.0243612223,PLT_learning_01,B,2014_Feb_24_1900,P11,
stim_fb/ques.jpg,stim_fb/posf.jpg,stim_fb/negf.jpg,stim_01/d.jpg,stim_01/c.jpg,1,2,f,0,15,15,27,f,1,0.766513514936,01,03,60.0243612223,PLT_learning_01,B,2014_Feb_24_1900,P11,
stim_fb/ques.jpg,stim_fb/negf.jpg,stim_fb/posf.jpg,stim_01/a.jpg,stim_01/b.jpg,2,1,j,0,16,16,16,f,0,1.0497086037,01,03,60.0243612223,PLT_learning_01,B,2014_Feb_24_1900,P11,
stim_fb/ques.jpg,stim_fb/posf.jpg,stim_fb/negf.jpg,stim_01/f.jpg,stim_01/e.jpg,1,3,f,0,17,17,49,f,1,1.11634206359,01,03,60.0243612223,PLT_learning_01,B,2014_Feb_24_1900,P11,
stim_fb/ques.jpg,stim_fb/posf.jpg,stim_fb/negf.jpg,stim_01/b.jpg,stim_01/a.jpg,1,1,f,0,18,18,9,j,0,0.783100475935,01,03,60.0243612223,PLT_learning_01,B,2014_Feb_24_1900,P11,
stim_fb/ques.jpg,stim_fb/posf.jpg,stim_fb/negf.jpg,stim_01/c.jpg,stim_01/d.jpg,2,2,j,0,19,19,39,j,1,0.783125871236,01,03,60.0243612223,PLT_learning_01,B,2014_Feb_24_1900,P11,
stim_fb/ques.jpg,stim_fb/negf.jpg,stim_fb/posf.jpg,stim_01/b.jpg,stim_01/a.jpg,1,1,f,0,20,20,7,j,0,0.816451900362,01,03,60.0243612223,PLT_learning_01,B,2014_Feb_24_1900,P11,
stim_fb/ques.jpg,stim_fb/negf.jpg,stim_fb/posf.jpg,stim_01/e.jpg,stim_01/f.jpg,2,3,j,0,21,21,55,j,1,0.866389079783,01,03,60.0243612223,PLT_learning_01,B,2014_Feb_24_1900,P11,
stim_fb/ques.jpg,stim_fb/posf.jpg,stim_fb/negf.jpg,stim_01/e.jpg,stim_01/f.jpg,2,3,j,0,22,22,59,j,1,0.899739496694,01,03,60.0243612223,PLT_learning_01,B,2014_Feb_24_1900,P11,
stim_fb/ques.jpg,stim_fb/negf.jpg,stim_fb/posf.jpg,stim_01/c.jpg,stim_01/d.jpg,2,2,j,0,23,23,30,j,1,0.699772768628,01,03,60.0243612223,PLT_learning_01,B,2014_Feb_24_1900,P11,
stim_fb/ques.jpg,stim_fb/negf.jpg,stim_fb/posf.jpg,stim_01/d.jpg,stim_01/c.jpg,1,2,f,0,24,24,26,f,1,0.899758654446,01,03,60.0243612223,PLT_learning_01,B,2014_Feb_24_1900,P11,
stim_fb/ques.jpg,stim_fb/negf.jpg,stim_fb/posf.jpg,stim_01/e.jpg,stim_01/f.jpg,2,3,j,0,25,25,51,j,1,0.966381717433,01,03,60.0243612223,PLT_learning_01,B,2014_Feb_24_1900,P11,
stim_fb/ques.jpg,stim_fb/negf.jpg,stim_fb/posf.jpg,stim_01/b.jpg,stim_01/a.jpg,1,1,f,0,26,26,4,f,1,1.19969157826,01,03,60.0243612223,PLT_learning_01,B,2014_Feb_24_1900,P11,
stim_fb/ques.jpg,stim_fb/posf.jpg,stim_fb/negf.jpg,stim_01/c.jpg,stim_01/d.jpg,2,2,j,0,27,27,37,j,1,0.649821751718,01,03,60.0243612223,PLT_learning_01,B,2014_Feb_24_1900,P11,
stim_fb/ques.jpg,stim_fb/negf.jpg,stim_fb/posf.jpg,stim_01/a.jpg,stim_01/b.jpg,2,1,j,0,28,28,12,j,1,0.949730074208,01,03,60.0243612223,PLT_learning_01,B,2014_Feb_24_1900,P11,
stim_fb/ques.jpg,stim_fb/posf.jpg,stim_fb/negf.jpg,stim_01/f.jpg,stim_01/e.jpg,1,3,f,0,29,29,48,f,1,0.849778257307,01,03,60.0243612223,PLT_learning_01,B,2014_Feb_24_1900,P11,
stim_fb/ques.jpg,stim_fb/posf.jpg,stim_fb/negf.jpg,stim_01/e.jpg,stim_01/f.jpg,2,3,j,0,30,30,57,f,0,0.749786356493,01,03,60.0243612223,PLT_learning_01,B,2014_Feb_24_1900,P11,
stim_fb/ques.jpg,stim_fb/negf.jpg,stim_fb/posf.jpg,stim_01/e.jpg,stim_01/f.jpg,2,3,j,0,31,31,50,f,0,1.46621734273,01,03,60.0243612223,PLT_learning_01,B,2014_Feb_24_1900,P11,
stim_fb/ques.jpg,stim_fb/posf.jpg,stim_fb/negf.jpg,stim_01/d.jpg,stim_01/c.jpg,1,2,f,0,32,32,29,j,0,0.983048079339,01,03,60.0243612223,PLT_learning_01,B,2014_Feb_24_1900,P11,
stim_fb/ques.jpg,stim_fb/negf.jpg,stim_fb/posf.jpg,stim_01/b.jpg,stim_01/a.jpg,1,1,f,0,33,33,2,f,1,1.13299601356,01,03,60.0243612223,PLT_learning_01,B,2014_Feb_24_1900,P11,
stim_fb/ques.jpg,stim_fb/posf.jpg,stim_fb/negf.jpg,stim_01/e.jpg,stim_01/f.jpg,2,3,j,0,34,34,58,j,1,1.09968418282,01,03,60.0243612223,PLT_learning_01,B,2014_Feb_24_1900,P11,
stim_fb/ques.jpg,stim_fb/posf.jpg,stim_fb/negf.jpg,stim_01/f.jpg,stim_01/e.jpg,1,3,f,0,35,35,47,f,1,1.0163841535,01,03,60.0243612223,PLT_learning_01,B,2014_Feb_24_1900,P11,
stim_fb/ques.jpg,stim_fb/negf.jpg,stim_fb/posf.jpg,stim_01/b.jpg,stim_01/a.jpg,1,1,f,0,36,36,5,f,1,0.949772964112,01,03,60.0243612223,PLT_learning_01,B,2014_Feb_24_1900,P11,
stim_fb/ques.jpg,stim_fb/negf.jpg,stim_fb/posf.jpg,stim_01/d.jpg,stim_01/c.jpg,1,2,f,0,37,37,23,j,0,0.733154364254,01,03,60.0243612223,PLT_learning_01,B,2014_Feb_24_1900,P11,
stim_fb/ques.jpg,stim_fb/negf.jpg,stim_fb/posf.jpg,stim_01/d.jpg,stim_01/c.jpg,1,2,f,0,38,38,21,j,0,0.899762272464,01,03,60.0243612223,PLT_learning_01,B,2014_Feb_24_1900,P11,
stim_fb/ques.jpg,stim_fb/negf.jpg,stim_fb/posf.jpg,stim_01/b.jpg,stim_01/a.jpg,1,1,f,0,39,39,3,f,1,0.683184382073,01,03,60.0243612223,PLT_learning_01,B,2014_Feb_24_1900,P11,
stim_fb/ques.jpg,stim_fb/negf.jpg,stim_fb/posf.jpg,stim_01/c.jpg,stim_01/d.jpg,2,2,j,0,40,40,31,f,0,1.01637148593,01,03,60.0243612223,PLT_learning_01,B,2014_Feb_24_1900,P11,
stim_fb/ques.jpg,stim_fb/negf.jpg,stim_fb/posf.jpg,stim_01/c.jpg,stim_01/d.jpg,2,2,j,0,41,41,34,f,0,0.666519929924,01,03,60.0243612223,PLT_learning_01,B,2014_Feb_24_1900,P11,
stim_fb/ques.jpg,stim_fb/negf.jpg,stim_fb/posf.jpg,stim_01/a.jpg,stim_01/b.jpg,2,1,j,0,42,42,11,j,1,0.716497551144,01,03,60.0243612223,PLT_learning_01,B,2014_Feb_24_1900,P11,
stim_fb/ques.jpg,stim_fb/negf.jpg,stim_fb/posf.jpg,stim_01/b.jpg,stim_01/a.jpg,1,1,f,0,43,43,0,f,1,0.799763812302,01,03,60.0243612223,PLT_learning_01,B,2014_Feb_24_1900,P11,
stim_fb/ques.jpg,stim_fb/negf.jpg,stim_fb/posf.jpg,stim_01/d.jpg,stim_01/c.jpg,1,2,f,0,44,44,22,j,0,0.78312231036,01,03,60.0243612223,PLT_learning_01,B,2014_Feb_24_1900,P11,
stim_fb/ques.jpg,stim_fb/negf.jpg,stim_fb/posf.jpg,stim_01/d.jpg,stim_01/c.jpg,1,2,f,0,45,45,25,f,1,0.433224947181,01,03,60.0243612223,PLT_learning_01,B,2014_Feb_24_1900,P11,
stim_fb/ques.jpg,stim_fb/negf.jpg,stim_fb/posf.jpg,stim_01/c.jpg,stim_01/d.jpg,2,2,j,0,46,46,32,j,1,0.783112319456,01,03,60.0243612223,PLT_learning_01,B,2014_Feb_24_1900,P11,
stim_fb/ques.jpg,stim_fb/posf.jpg,stim_fb/negf.jpg,stim_01/a.jpg,stim_01/b.jpg,2,1,j,0,47,47,18,f,0,0.84976789949,01,03,60.0243612223,PLT_learning_01,B,2014_Feb_24_1900,P11,
stim_fb/ques.jpg,stim_fb/negf.jpg,stim_fb/posf.jpg,stim_01/f.jpg,stim_01/e.jpg,1,3,f,0,48,48,40,f,1,1.16633219901,01,03,60.0243612223,PLT_learning_01,B,2014_Feb_24_1900,P11,
stim_fb/ques.jpg,stim_fb/negf.jpg,stim_fb/posf.jpg,stim_01/a.jpg,stim_01/b.jpg,2,1,j,0,49,49,17,j,1,0.983040286916,01,03,60.0243612223,PLT_learning_01,B,2014_Feb_24_1900,P11,
stim_fb/ques.jpg,stim_fb/negf.jpg,stim_fb/posf.jpg,stim_01/c.jpg,stim_01/d.jpg,2,2,j,0,50,50,33,j,1,0.79982738175,01,03,60.0243612223,PLT_learning_01,B,2014_Feb_24_1900,P11,
stim_fb/ques.jpg,stim_fb/negf.jpg,stim_fb/posf.jpg,stim_01/c.jpg,stim_01/d.jpg,2,2,j,0,51,51,36,j,1,0.483245398154,01,03,60.0243612223,PLT_learning_01,B,2014_Feb_24_1900,P11,
stim_fb/ques.jpg,stim_fb/posf.jpg,stim_fb/negf.jpg,stim_01/b.jpg,stim_01/a.jpg,1,1,f,0,52,52,8,f,1,0.783155125151,01,03,60.0243612223,PLT_learning_01,B,2014_Feb_24_1900,P11,
stim_fb/ques.jpg,stim_fb/negf.jpg,stim_fb/posf.jpg,stim_01/f.jpg,stim_01/e.jpg,1,3,f,0,53,53,44,j,0,0.783161919084,01,03,60.0243612223,PLT_learning_01,B,2014_Feb_24_1900,P11,
stim_fb/ques.jpg,stim_fb/negf.jpg,stim_fb/posf.jpg,stim_01/f.jpg,stim_01/e.jpg,1,3,f,0,54,54,43,f,1,0.883094424855,01,03,60.0243612223,PLT_learning_01,B,2014_Feb_24_1900,P11,
stim_fb/ques.jpg,stim_fb/negf.jpg,stim_fb/posf.jpg,stim_01/a.jpg,stim_01/b.jpg,2,1,j,0,55,55,15,j,1,1.16626404614,01,03,60.0243612223,PLT_learning_01,B,2014_Feb_24_1900,P11,
stim_fb/ques.jpg,stim_fb/negf.jpg,stim_fb/posf.jpg,stim_01/e.jpg,stim_01/f.jpg,2,3,j,0,56,56,52,j,1,0.79975359283,01,03,60.0243612223,PLT_learning_01,B,2014_Feb_24_1900,P11,
stim_fb/ques.jpg,stim_fb/negf.jpg,stim_fb/posf.jpg,stim_01/a.jpg,stim_01/b.jpg,2,1,j,0,57,57,14,j,1,0.883125753942,01,03,60.0243612223,PLT_learning_01,B,2014_Feb_24_1900,P11,
stim_fb/ques.jpg,stim_fb/posf.jpg,stim_fb/negf.jpg,stim_01/d.jpg,stim_01/c.jpg,1,2,f,0,58,58,28,f,1,0.666513987115,01,03,60.0243612223,PLT_learning_01,B,2014_Feb_24_1900,P11,
stim_fb/ques.jpg,stim_fb/negf.jpg,stim_fb/posf.jpg,stim_01/d.jpg,stim_01/c.jpg,1,2,f,0,59,59,20,j,0,0.883074773876,01,03,60.0243612223,PLT_learning_01,B,2014_Feb_24_1900,P11,
stim_fb/ques.jpg,stim_fb/negf.jpg,stim_fb/posf.jpg,stim_01/d.jpg,stim_01/c.jpg,1,2,f,1,0,60,23,f,1,0.633200042106,01,03,60.0243612223,PLT_learning_01,B,2014_Feb_24_1900,P11,
stim_fb/ques.jpg,stim_fb/posf.jpg,stim_fb/negf.jpg,stim_01/d.jpg,stim_01/c.jpg,1,2,f,1,1,61,29,f,1,0.683172860354,01,03,60.0243612223,PLT_learning_01,B,2014_Feb_24_1900,P11,
stim_fb/ques.jpg,stim_fb/negf.jpg,stim_fb/posf.jpg,stim_01/a.jpg,stim_01/b.jpg,2,1,j,1,2,62,14,j,1,0.533181133975,01,03,60.0243612223,PLT_learning_01,B,2014_Feb_24_1900,P11,
stim_fb/ques.jpg,stim_fb/negf.jpg,stim_fb/posf.jpg,stim_01/d.jpg,stim_01/c.jpg,1,2,f,1,3,63,24,j,0,0.966388797075,01,03,60.0243612223,PLT_learning_01,B,2014_Feb_24_1900,P11,
stim_fb/ques.jpg,stim_fb/posf.jpg,stim_fb/negf.jpg,stim_01/f.jpg,stim_01/e.jpg,1,3,f,1,4,64,49,f,1,0.783130063683,01,03,60.0243612223,PLT_learning_01,B,2014_Feb_24_1900,P11,
stim_fb/ques.jpg,stim_fb/negf.jpg,stim_fb/posf.jpg,stim_01/b.jpg,stim_01/a.jpg,1,1,f,1,5,65,7,f,1,0.849724444179,01,03,60.0243612223,PLT_learning_01,B,2014_Feb_24_1900,P11,
stim_fb/ques.jpg,stim_fb/posf.jpg,stim_fb/negf.jpg,stim_01/d.jpg,stim_01/c.jpg,1,2,f,1,6,66,27,f,1,0.816443933505,01,03,60.0243612223,PLT_learning_01,B,2014_Feb_24_1900,P11,
stim_fb/ques.jpg,stim_fb/negf.jpg,stim_fb/posf.jpg,stim_01/e.jpg,stim_01/f.jpg,2,3,j,1,7,67,52,j,1,0.716497945126,01,03,60.0243612223,PLT_learning_01,B,2014_Feb_24_1900,P11,
stim_fb/ques.jpg,stim_fb/posf.jpg,stim_fb/negf.jpg,stim_01/b.jpg,stim_01/a.jpg,1,1,f,1,8,68,8,f,1,0.516517981068,01,03,60.0243612223,PLT_learning_01,B,2014_Feb_24_1900,P11,
stim_fb/ques.jpg,stim_fb/negf.jpg,stim_fb/posf.jpg,stim_01/c.jpg,stim_01/d.jpg,2,2,j,1,9,69,32,j,1,0.833098782718,01,03,60.0243612223,PLT_learning_01,B,2014_Feb_24_1900,P11,
stim_fb/ques.jpg,stim_fb/negf.jpg,stim_fb/posf.jpg,stim_01/d.jpg,stim_01/c.jpg,1,2,f,1,10,70,22,f,1,0.816399440606,01,03,60.0243612223,PLT_learning_01,B,2014_Feb_24_1900,P11,
stim_fb/ques.jpg,stim_fb/negf.jpg,stim_fb/posf.jpg,stim_01/a.jpg,stim_01/b.jpg,2,1,j,1,11,71,16,j,1,0.74979703912,01,03,60.0243612223,PLT_learning_01,B,2014_Feb_24_1900,P11,
stim_fb/ques.jpg,stim_fb/negf.jpg,stim_fb/posf.jpg,stim_01/f.jpg,stim_01/e.jpg,1,3,f,1,12,72,45,f,1,0.616510414206,01,03,60.0243612223,PLT_learning_01,B,2014_Feb_24_1900,P11,
stim_fb/ques.jpg,stim_fb/posf.jpg,stim_fb/negf.jpg,stim_01/d.jpg,stim_01/c.jpg,1,2,f,1,13,73,28,f,1,0.816461864197,01,03,60.0243612223,PLT_learning_01,B,2014_Feb_24_1900,P11,
stim_fb/ques.jpg,stim_fb/negf.jpg,stim_fb/posf.jpg,stim_01/e.jpg,stim_01/f.jpg,2,3,j,1,14,74,55,j,1,0.749801315782,01,03,60.0243612223,PLT_learning_01,B,2014_Feb_24_1900,P11,
stim_fb/ques.jpg,stim_fb/negf.jpg,stim_fb/posf.jpg,stim_01/c.jpg,stim_01/d.jpg,2,2,j,1,15,75,36,j,1,0.666539135796,01,03,60.0243612223,PLT_learning_01,B,2014_Feb_24_1900,P11,
stim_fb/ques.jpg,stim_fb/negf.jpg,stim_fb/posf.jpg,stim_01/b.jpg,stim_01/a.jpg,1,1,f,1,16,76,5,f,1,0.733152460511,01,03,60.0243612223,PLT_learning_01,B,2014_Feb_24_1900,P11,
stim_fb/ques.jpg,stim_fb/negf.jpg,stim_fb/posf.jpg,stim_01/e.jpg,stim_01/f.jpg,2,3,j,1,17,77,53,j,1,1.19965096804,01,03,60.0243612223,PLT_learning_01,B,2014_Feb_24_1900,P11,
stim_fb/ques.jpg,stim_fb/posf.jpg,stim_fb/negf.jpg,stim_01/b.jpg,stim_01/a.jpg,1,1,f,1,18,78,9,f,1,0.433150322177,01,03,60.0243612223,PLT_learning_01,B,2014_Feb_24_1900,P11,
stim_fb/ques.jpg,stim_fb/negf.jpg,stim_fb/posf.jpg,stim_01/c.jpg,stim_01/d.jpg,2,2,j,1,19,79,34,j,1,0.599864858159,01,03,60.0243612223,PLT_learning_01,B,2014_Feb_24_1900,P11,
stim_fb/ques.jpg,stim_fb/posf.jpg,stim_fb/negf.jpg,stim_01/f.jpg,stim_01/e.jpg,1,3,f,1,20,80,47,f,1,0.766487121149,01,03,60.0243612223,PLT_learning_01,B,2014_Feb_24_1900,P11,
stim_fb/ques.jpg,stim_fb/negf.jpg,stim_fb/posf.jpg,stim_01/f.jpg,stim_01/e.jpg,1,3,f,1,21,81,44,j,0,0.616510113457,01,03,60.0243612223,PLT_learning_01,B,2014_Feb_24_1900,P11,
stim_fb/ques.jpg,stim_fb/negf.jpg,stim_fb/posf.jpg,stim_01/b.jpg,stim_01/a.jpg,1,1,f,1,22,82,3,f,1,0.499861844648,01,03,60.0243612223,PLT_learning_01,B,2014_Feb_24_1900,P11,
stim_fb/ques.jpg,stim_fb/negf.jpg,stim_fb/posf.jpg,stim_01/a.jpg,stim_01/b.jpg,2,1,j,1,23,83,13,j,1,0.649816816414,01,03,60.0243612223,PLT_learning_01,B,2014_Feb_24_1900,P11,
stim_fb/ques.jpg,stim_fb/posf.jpg,stim_fb/negf.jpg,stim_01/f.jpg,stim_01/e.jpg,1,3,f,1,24,84,46,f,1,0.749816133713,01,03,60.0243612223,PLT_learning_01,B,2014_Feb_24_1900,P11,
stim_fb/ques.jpg,stim_fb/negf.jpg,stim_fb/posf.jpg,stim_01/b.jpg,stim_01/a.jpg,1,1,f,1,25,85,0,f,1,0.816422105097,01,03,60.0243612223,PLT_learning_01,B,2014_Feb_24_1900,P11,
stim_fb/ques.jpg,stim_fb/posf.jpg,stim_fb/negf.jpg,stim_01/c.jpg,stim_01/d.jpg,2,2,j,1,26,86,38,j,1,0.933068446102,01,03,60.0243612223,PLT_learning_01,B,2014_Feb_24_1900,P11,
stim_fb/ques.jpg,stim_fb/negf.jpg,stim_fb/posf.jpg,stim_01/b.jpg,stim_01/a.jpg,1,1,f,1,27,87,2,f,1,0.633174637784,01,03,60.0243612223,PLT_learning_01,B,2014_Feb_24_1900,P11,
stim_fb/ques.jpg,stim_fb/negf.jpg,stim_fb/posf.jpg,stim_01/b.jpg,stim_01/a.jpg,1,1,f,1,28,88,4,f,1,0.966389991052,01,03,60.0243612223,PLT_learning_01,B,2014_Feb_24_1900,P11,
stim_fb/ques.jpg,stim_fb/posf.jpg,stim_fb/negf.jpg,stim_01/e.jpg,stim_01/f.jpg,2,3,j,1,29,89,56,j,1,0.733123311857,01,03,60.0243612223,PLT_learning_01,B,2014_Feb_24_1900,P11,
stim_fb/ques.jpg,stim_fb/negf.jpg,stim_fb/posf.jpg,stim_01/c.jpg,stim_01/d.jpg,2,2,j,1,30,90,35,j,1,0.816454143951,01,03,60.0243612223,PLT_learning_01,B,2014_Feb_24_1900,P11,
stim_fb/ques.jpg,stim_fb/negf.jpg,stim_fb/posf.jpg,stim_01/b.jpg,stim_01/a.jpg,1,1,f,1,31,91,1,f,1,0.666548401892,01,03,60.0243612223,PLT_learning_01,B,2014_Feb_24_1900,P11,
stim_fb/ques.jpg,stim_fb/negf.jpg,stim_fb/posf.jpg,stim_01/a.jpg,stim_01/b.jpg,2,1,j,1,32,92,17,j,1,0.733133606514,01,03,60.0243612223,PLT_learning_01,B,2014_Feb_24_1900,P11,
stim_fb/ques.jpg,stim_fb/negf.jpg,stim_fb/posf.jpg,stim_01/c.jpg,stim_01/d.jpg,2,2,j,1,33,93,30,f,0,0.89975577627,01,03,60.0243612223,PLT_learning_01,B,2014_Feb_24_1900,P11,
stim_fb/ques.jpg,stim_fb/negf.jpg,stim_fb/posf.jpg,stim_01/d.jpg,stim_01/c.jpg,1,2,f,1,34,94,20,f,1,0.549819408876,01,03,60.0243612223,PLT_learning_01,B,2014_Feb_24_1900,P11,
stim_fb/ques.jpg,stim_fb/posf.jpg,stim_fb/negf.jpg,stim_01/e.jpg,stim_01/f.jpg,2,3,j,1,35,95,58,f,0,1.09964793648,01,03,60.0243612223,PLT_learning_01,B,2014_Feb_24_1900,P11,
stim_fb/ques.jpg,stim_fb/posf.jpg,stim_fb/negf.jpg,stim_01/c.jpg,stim_01/d.jpg,2,2,j,1,36,96,39,j,1,1.44957926632,01,03,60.0243612223,PLT_learning_01,B,2014_Feb_24_1900,P11,
stim_fb/ques.jpg,stim_fb/negf.jpg,stim_fb/posf.jpg,stim_01/a.jpg,stim_01/b.jpg,2,1,j,1,37,97,12,f,0,0.633144800413,01,03,60.0243612223,PLT_learning_01,B,2014_Feb_24_1900,P11,
stim_fb/ques.jpg,stim_fb/negf.jpg,stim_fb/posf.jpg,stim_01/c.jpg,stim_01/d.jpg,2,2,j,1,38,98,31,j,1,0.766456925889,01,03,60.0243612223,PLT_learning_01,B,2014_Feb_24_1900,P11,
stim_fb/ques.jpg,stim_fb/negf.jpg,stim_fb/posf.jpg,stim_01/f.jpg,stim_01/e.jpg,1,3,f,1,39,99,41,j,0,1.36628053022,01,03,60.0243612223,PLT_learning_01,B,2014_Feb_24_1900,P11,
stim_fb/ques.jpg,stim_fb/negf.jpg,stim_fb/posf.jpg,stim_01/d.jpg,stim_01/c.jpg,1,2,f,1,40,100,21,f,1,0.599840268871,01,03,60.0243612223,PLT_learning_01,B,2014_Feb_24_1900,P11,
stim_fb/ques.jpg,stim_fb/negf.jpg,stim_fb/posf.jpg,stim_01/d.jpg,stim_01/c.jpg,1,2,f,1,41,101,26,f,1,0.58324171698,01,03,60.0243612223,PLT_learning_01,B,2014_Feb_24_1900,P11,
stim_fb/ques.jpg,stim_fb/posf.jpg,stim_fb/negf.jpg,stim_01/a.jpg,stim_01/b.jpg,2,1,j,1,42,102,18,j,1,0.716508426252,01,03,60.0243612223,PLT_learning_01,B,2014_Feb_24_1900,P11,
stim_fb/ques.jpg,stim_fb/posf.jpg,stim_fb/negf.jpg,stim_01/c.jpg,stim_01/d.jpg,2,2,j,1,43,103,37,j,1,0.866479725719,01,03,60.0243612223,PLT_learning_01,B,2014_Feb_24_1900,P11,
stim_fb/ques.jpg,stim_fb/negf.jpg,stim_fb/posf.jpg,stim_01/f.jpg,stim_01/e.jpg,1,3,f,1,44,104,42,j,0,0.966362379229,01,03,60.0243612223,PLT_learning_01,B,2014_Feb_24_1900,P11,
stim_fb/ques.jpg,stim_fb/negf.jpg,stim_fb/posf.jpg,stim_01/b.jpg,stim_01/a.jpg,1,1,f,1,45,105,6,f,1,0.533199630077,01,03,60.0243612223,PLT_learning_01,B,2014_Feb_24_1900,P11,
stim_fb/ques.jpg,stim_fb/negf.jpg,stim_fb/posf.jpg,stim_01/e.jpg,stim_01/f.jpg,2,3,j,1,46,106,51,f,0,0.616535980935,01,03,60.0243612223,PLT_learning_01,B,2014_Feb_24_1900,P11,
stim_fb/ques.jpg,stim_fb/negf.jpg,stim_fb/posf.jpg,stim_01/f.jpg,stim_01/e.jpg,1,3,f,1,47,107,43,j,0,0.666473843055,01,03,60.0243612223,PLT_learning_01,B,2014_Feb_24_1900,P11,
stim_fb/ques.jpg,stim_fb/posf.jpg,stim_fb/negf.jpg,stim_01/f.jpg,stim_01/e.jpg,1,3,f,1,48,108,48,f,1,0.466538029035,01,03,60.0243612223,PLT_learning_01,B,2014_Feb_24_1900,P11,
stim_fb/ques.jpg,stim_fb/negf.jpg,stim_fb/posf.jpg,stim_01/e.jpg,stim_01/f.jpg,2,3,j,1,49,109,54,f,0,0.633200923301,01,03,60.0243612223,PLT_learning_01,B,2014_Feb_24_1900,P11,
stim_fb/ques.jpg,stim_fb/negf.jpg,stim_fb/posf.jpg,stim_01/f.jpg,stim_01/e.jpg,1,3,f,1,50,110,40,j,0,0.483242718477,01,03,60.0243612223,PLT_learning_01,B,2014_Feb_24_1900,P11,
stim_fb/ques.jpg,stim_fb/negf.jpg,stim_fb/posf.jpg,stim_01/d.jpg,stim_01/c.jpg,1,2,f,1,51,111,25,f,1,0.766487864003,01,03,60.0243612223,PLT_learning_01,B,2014_Feb_24_1900,P11,
stim_fb/ques.jpg,stim_fb/negf.jpg,stim_fb/posf.jpg,stim_01/a.jpg,stim_01/b.jpg,2,1,j,1,52,112,10,j,1,0.999721144952,01,03,60.0243612223,PLT_learning_01,B,2014_Feb_24_1900,P11,
stim_fb/ques.jpg,stim_fb/negf.jpg,stim_fb/posf.jpg,stim_01/a.jpg,stim_01/b.jpg,2,1,j,1,53,113,11,j,1,0.733137789943,01,03,60.0243612223,PLT_learning_01,B,2014_Feb_24_1900,P11,
stim_fb/ques.jpg,stim_fb/posf.jpg,stim_fb/negf.jpg,stim_01/e.jpg,stim_01/f.jpg,2,3,j,1,54,114,57,f,0,1.14964826129,01,03,60.0243612223,PLT_learning_01,B,2014_Feb_24_1900,P11,
stim_fb/ques.jpg,stim_fb/negf.jpg,stim_fb/posf.jpg,stim_01/e.jpg,stim_01/f.jpg,2,3,j,1,55,115,50,f,0,0.516607228517,01,03,60.0243612223,PLT_learning_01,B,2014_Feb_24_1900,P11,
stim_fb/ques.jpg,stim_fb/negf.jpg,stim_fb/posf.jpg,stim_01/a.jpg,stim_01/b.jpg,2,1,j,1,56,116,15,j,1,0.783130608041,01,03,60.0243612223,PLT_learning_01,B,2014_Feb_24_1900,P11,
stim_fb/ques.jpg,stim_fb/negf.jpg,stim_fb/posf.jpg,stim_01/c.jpg,stim_01/d.jpg,2,2,j,1,57,117,33,j,1,0.666420682552,01,03,60.0243612223,PLT_learning_01,B,2014_Feb_24_1900,P11,
stim_fb/ques.jpg,stim_fb/posf.jpg,stim_fb/negf.jpg,stim_01/a.jpg,stim_01/b.jpg,2,1,j,1,58,118,19,j,1,0.783147540242,01,03,60.0243612223,PLT_learning_01,B,2014_Feb_24_1900,P11,
stim_fb/ques.jpg,stim_fb/posf.jpg,stim_fb/negf.jpg,stim_01/e.jpg,stim_01/f.jpg,2,3,j,1,59,119,59,f,0,1.06625966121,01,03,60.0243612223,PLT_learning_01,B,2014_Feb_24_1900,P11,
stim_fb/ques.jpg,stim_fb/posf.jpg,stim_fb/negf.jpg,stim_01/a.jpg,stim_01/b.jpg,2,1,j,2,0,120,18,j,1,0.88314714927,01,03,60.0243612223,PLT_learning_01,B,2014_Feb_24_1900,P11,
stim_fb/ques.jpg,stim_fb/negf.jpg,stim_fb/posf.jpg,stim_01/e.jpg,stim_01/f.jpg,2,3,j,2,1,121,55,f,0,0.683141534275,01,03,60.0243612223,PLT_learning_01,B,2014_Feb_24_1900,P11,
stim_fb/ques.jpg,stim_fb/posf.jpg,stim_fb/negf.jpg,stim_01/f.jpg,stim_01/e.jpg,1,3,f,2,2,122,48,j,0,0.666493951176,01,03,60.0243612223,PLT_learning_01,B,2014_Feb_24_1900,P11,
stim_fb/ques.jpg,stim_fb/negf.jpg,stim_fb/posf.jpg,stim_01/a.jpg,stim_01/b.jpg,2,1,j,2,3,123,15,j,1,0.683152406375,01,03,60.0243612223,PLT_learning_01,B,2014_Feb_24_1900,P11,
stim_fb/ques.jpg,stim_fb/negf.jpg,stim_fb/posf.jpg,stim_01/c.jpg,stim_01/d.jpg,2,2,j,2,4,124,35,j,1,0.816446348526,01,03,60.0243612223,PLT_learning_01,B,2014_Feb_24_1900,P11,
stim_fb/ques.jpg,stim_fb/negf.jpg,stim_fb/posf.jpg,stim_01/c.jpg,stim_01/d.jpg,2,2,j,2,5,125,36,j,1,0.599846271834,01,03,60.0243612223,PLT_learning_01,B,2014_Feb_24_1900,P11,
stim_fb/ques.jpg,stim_fb/negf.jpg,stim_fb/posf.jpg,stim_01/f.jpg,stim_01/e.jpg,1,3,f,2,6,126,40,f,1,0.666500856387,01,03,60.0243612223,PLT_learning_01,B,2014_Feb_24_1900,P11,
stim_fb/ques.jpg,stim_fb/negf.jpg,stim_fb/posf.jpg,stim_01/d.jpg,stim_01/c.jpg,1,2,f,2,7,127,20,f,1,1.09965210186,01,03,60.0243612223,PLT_learning_01,B,2014_Feb_24_1900,P11,
stim_fb/ques.jpg,stim_fb/posf.jpg,stim_fb/negf.jpg,stim_01/b.jpg,stim_01/a.jpg,1,1,f,2,8,128,9,f,1,0.766456703332,01,03,60.0243612223,PLT_learning_01,B,2014_Feb_24_1900,P11,
stim_fb/ques.jpg,stim_fb/negf.jpg,stim_fb/posf.jpg,stim_01/c.jpg,stim_01/d.jpg,2,2,j,2,9,129,30,j,1,0.633171666377,01,03,60.0243612223,PLT_learning_01,B,2014_Feb_24_1900,P11,
stim_fb/ques.jpg,stim_fb/negf.jpg,stim_fb/posf.jpg,stim_01/b.jpg,stim_01/a.jpg,1,1,f,2,10,130,7,f,1,0.683320020151,01,03,60.0243612223,PLT_learning_01,B,2014_Feb_24_1900,P11,
stim_fb/ques.jpg,stim_fb/posf.jpg,stim_fb/negf.jpg,stim_01/f.jpg,stim_01/e.jpg,1,3,f,2,11,131,46,j,0,0.849764365681,01,03,60.0243612223,PLT_learning_01,B,2014_Feb_24_1900,P11,
stim_fb/ques.jpg,stim_fb/posf.jpg,stim_fb/negf.jpg,stim_01/d.jpg,stim_01/c.jpg,1,2,f,2,12,132,27,f,1,0.566520236687,01,03,60.0243612223,PLT_learning_01,B,2014_Feb_24_1900,P11,
stim_fb/ques.jpg,stim_fb/posf.jpg,stim_fb/negf.jpg,stim_01/e.jpg,stim_01/f.jpg,2,3,j,2,13,133,56,j,1,1.04970266088,01,03,60.0243612223,PLT_learning_01,B,2014_Feb_24_1900,P11,
stim_fb/ques.jpg,stim_fb/negf.jpg,stim_fb/posf.jpg,stim_01/a.jpg,stim_01/b.jpg,2,1,j,2,14,134,11,j,1,0.833081799385,01,03,60.0243612223,PLT_learning_01,B,2014_Feb_24_1900,P11,
stim_fb/ques.jpg,stim_fb/negf.jpg,stim_fb/posf.jpg,stim_01/d.jpg,stim_01/c.jpg,1,2,f,2,15,135,26,f,1,0.583188153472,01,03,60.0243612223,PLT_learning_01,B,2014_Feb_24_1900,P11,
stim_fb/ques.jpg,stim_fb/negf.jpg,stim_fb/posf.jpg,stim_01/b.jpg,stim_01/a.jpg,1,1,f,2,16,136,6,f,1,0.733125681763,01,03,60.0243612223,PLT_learning_01,B,2014_Feb_24_1900,P11,
stim_fb/ques.jpg,stim_fb/negf.jpg,stim_fb/posf.jpg,stim_01/b.jpg,stim_01/a.jpg,1,1,f,2,17,137,1,f,1,0.533195494772,01,03,60.0243612223,PLT_learning_01,B,2014_Feb_24_1900,P11,
stim_fb/ques.jpg,stim_fb/negf.jpg,stim_fb/posf.jpg,stim_01/a.jpg,stim_01/b.jpg,2,1,j,2,18,138,10,j,1,0.716482766296,01,03,60.0243612223,PLT_learning_01,B,2014_Feb_24_1900,P11,
stim_fb/ques.jpg,stim_fb/negf.jpg,stim_fb/posf.jpg,stim_01/c.jpg,stim_01/d.jpg,2,2,j,2,19,139,31,j,1,0.633171034802,01,03,60.0243612223,PLT_learning_01,B,2014_Feb_24_1900,P11,
stim_fb/ques.jpg,stim_fb/posf.jpg,stim_fb/negf.jpg,stim_01/c.jpg,stim_01/d.jpg,2,2,j,2,20,140,38,j,1,0.599843174114,01,03,60.0243612223,PLT_learning_01,B,2014_Feb_24_1900,P11,
stim_fb/ques.jpg,stim_fb/negf.jpg,stim_fb/posf.jpg,stim_01/a.jpg,stim_01/b.jpg,2,1,j,2,21,141,13,f,0,0.54984555304,01,03,60.0243612223,PLT_learning_01,B,2014_Feb_24_1900,P11,
stim_fb/ques.jpg,stim_fb/negf.jpg,stim_fb/posf.jpg,stim_01/e.jpg,stim_01/f.jpg,2,3,j,2,22,142,50,f,0,1.41625579958,01,03,60.0243612223,PLT_learning_01,B,2014_Feb_24_1900,P11,
stim_fb/ques.jpg,stim_fb/posf.jpg,stim_fb/negf.jpg,stim_01/d.jpg,stim_01/c.jpg,1,2,f,2,23,143,29,f,1,0.733090039925,01,03,60.0243612223,PLT_learning_01,B,2014_Feb_24_1900,P11,
stim_fb/ques.jpg,stim_fb/negf.jpg,stim_fb/posf.jpg,stim_01/e.jpg,stim_01/f.jpg,2,3,j,2,24,144,53,j,1,0.916435235824,01,03,60.0243612223,PLT_learning_01,B,2014_Feb_24_1900,P11,
stim_fb/ques.jpg,stim_fb/negf.jpg,stim_fb/posf.jpg,stim_01/f.jpg,stim_01/e.jpg,1,3,f,2,25,145,43,f,1,0.783105134549,01,03,60.0243612223,PLT_learning_01,B,2014_Feb_24_1900,P11,
stim_fb/ques.jpg,stim_fb/negf.jpg,stim_fb/posf.jpg,stim_01/d.jpg,stim_01/c.jpg,1,2,f,2,26,146,24,f,1,0.799756501081,01,03,60.0243612223,PLT_learning_01,B,2014_Feb_24_1900,P11,
stim_fb/ques.jpg,stim_fb/negf.jpg,stim_fb/posf.jpg,stim_01/e.jpg,stim_01/f.jpg,2,3,j,2,27,147,52,j,1,0.883088551214,01,03,60.0243612223,PLT_learning_01,B,2014_Feb_24_1900,P11,
stim_fb/ques.jpg,stim_fb/posf.jpg,stim_fb/negf.jpg,stim_01/e.jpg,stim_01/f.jpg,2,3,j,2,28,148,58,j,1,1.06637121826,01,03,60.0243612223,PLT_learning_01,B,2014_Feb_24_1900,P11,
stim_fb/ques.jpg,stim_fb/posf.jpg,stim_fb/negf.jpg,stim_01/e.jpg,stim_01/f.jpg,2,3,j,2,29,149,59,j,1,0.915413451028,01,03,60.0243612223,PLT_learning_01,B,2014_Feb_24_1900,P11,
stim_fb/ques.jpg,stim_fb/negf.jpg,stim_fb/posf.jpg,stim_01/e.jpg,stim_01/f.jpg,2,3,j,2,30,150,54,j,1,0.633179091888,01,03,60.0243612223,PLT_learning_01,B,2014_Feb_24_1900,P11,
stim_fb/ques.jpg,stim_fb/negf.jpg,stim_fb/posf.jpg,stim_01/d.jpg,stim_01/c.jpg,1,2,f,2,31,151,23,f,1,1.24962700732,01,03,60.0243612223,PLT_learning_01,B,2014_Feb_24_1900,P11,
stim_fb/ques.jpg,stim_fb/negf.jpg,stim_fb/posf.jpg,stim_01/a.jpg,stim_01/b.jpg,2,1,j,2,32,152,12,j,1,0.933078912189,01,03,60.0243612223,PLT_learning_01,B,2014_Feb_24_1900,P11,
stim_fb/ques.jpg,stim_fb/posf.jpg,stim_fb/negf.jpg,stim_01/c.jpg,stim_01/d.jpg,2,2,j,2,33,153,39,j,1,0.666485322668,01,03,60.0243612223,PLT_learning_01,B,2014_Feb_24_1900,P11,
stim_fb/ques.jpg,stim_fb/posf.jpg,stim_fb/negf.jpg,stim_01/f.jpg,stim_01/e.jpg,1,3,f,2,34,154,49,f,1,0.783128929856,01,03,60.0243612223,PLT_learning_01,B,2014_Feb_24_1900,P11,
stim_fb/ques.jpg,stim_fb/negf.jpg,stim_fb/posf.jpg,stim_01/a.jpg,stim_01/b.jpg,2,1,j,2,35,155,16,j,1,0.566532588477,01,03,60.0243612223,PLT_learning_01,B,2014_Feb_24_1900,P11,
stim_fb/ques.jpg,stim_fb/negf.jpg,stim_fb/posf.jpg,stim_01/f.jpg,stim_01/e.jpg,1,3,f,2,36,156,45,j,0,0.849797312803,01,03,60.0243612223,PLT_learning_01,B,2014_Feb_24_1900,P11,
stim_fb/ques.jpg,stim_fb/negf.jpg,stim_fb/posf.jpg,stim_01/f.jpg,stim_01/e.jpg,1,3,f,2,37,157,41,f,1,0.383312363065,01,03,60.0243612223,PLT_learning_01,B,2014_Feb_24_1900,P11,
stim_fb/ques.jpg,stim_fb/negf.jpg,stim_fb/posf.jpg,stim_01/b.jpg,stim_01/a.jpg,1,1,f,2,38,158,3,f,1,0.749775592663,01,03,60.0243612223,PLT_learning_01,B,2014_Feb_24_1900,P11,
stim_fb/ques.jpg,stim_fb/negf.jpg,stim_fb/posf.jpg,stim_01/e.jpg,stim_01/f.jpg,2,3,j,2,39,159,51,j,1,0.566574137036,01,03,60.0243612223,PLT_learning_01,B,2014_Feb_24_1900,P11,
stim_fb/ques.jpg,stim_fb/negf.jpg,stim_fb/posf.jpg,stim_01/f.jpg,stim_01/e.jpg,1,3,f,2,40,160,44,f,1,0.733133212532,01,03,60.0243612223,PLT_learning_01,B,2014_Feb_24_1900,P11,
stim_fb/ques.jpg,stim_fb/posf.jpg,stim_fb/negf.jpg,stim_01/f.jpg,stim_01/e.jpg,1,3,f,2,41,161,47,f,1,0.733141540288,01,03,60.0243612223,PLT_learning_01,B,2014_Feb_24_1900,P11,
stim_fb/ques.jpg,stim_fb/posf.jpg,stim_fb/negf.jpg,stim_01/a.jpg,stim_01/b.jpg,2,1,j,2,42,162,19,j,1,0.583218658507,01,03,60.0243612223,PLT_learning_01,B,2014_Feb_24_1900,P11,
stim_fb/ques.jpg,stim_fb/negf.jpg,stim_fb/posf.jpg,stim_01/a.jpg,stim_01/b.jpg,2,1,j,2,43,163,14,f,0,0.583189672256,01,03,60.0243612223,PLT_learning_01,B,2014_Feb_24_1900,P11,
stim_fb/ques.jpg,stim_fb/negf.jpg,stim_fb/posf.jpg,stim_01/a.jpg,stim_01/b.jpg,2,1,j,2,44,164,17,j,1,0.483183798617,01,03,60.0243612223,PLT_learning_01,B,2014_Feb_24_1900,P11,
stim_fb/ques.jpg,stim_fb/negf.jpg,stim_fb/posf.jpg,stim_01/c.jpg,stim_01/d.jpg,2,2,j,2,45,165,34,j,1,0.766455262743,01,03,60.0243612223,PLT_learning_01,B,2014_Feb_24_1900,P11,
stim_fb/ques.jpg,stim_fb/posf.jpg,stim_fb/negf.jpg,stim_01/e.jpg,stim_01/f.jpg,2,3,j,2,46,166,57,j,1,0.749806864609,01,03,60.0243612223,PLT_learning_01,B,2014_Feb_24_1900,P11,
stim_fb/ques.jpg,stim_fb/posf.jpg,stim_fb/negf.jpg,stim_01/d.jpg,stim_01/c.jpg,1,2,f,2,47,167,28,f,1,0.616503725538,01,03,60.0243612223,PLT_learning_01,B,2014_Feb_24_1900,P11,
stim_fb/ques.jpg,stim_fb/negf.jpg,stim_fb/posf.jpg,stim_01/d.jpg,stim_01/c.jpg,1,2,f,2,48,168,22,j,0,0.749786831679,01,03,60.0243612223,PLT_learning_01,B,2014_Feb_24_1900,P11,
stim_fb/ques.jpg,stim_fb/negf.jpg,stim_fb/posf.jpg,stim_01/b.jpg,stim_01/a.jpg,1,1,f,2,49,169,5,f,1,0.949765764166,01,03,60.0243612223,PLT_learning_01,B,2014_Feb_24_1900,P11,
stim_fb/ques.jpg,stim_fb/negf.jpg,stim_fb/posf.jpg,stim_01/f.jpg,stim_01/e.jpg,1,3,f,2,50,170,42,j,0,0.783122274268,01,03,60.0243612223,PLT_learning_01,B,2014_Feb_24_1900,P11,
stim_fb/ques.jpg,stim_fb/negf.jpg,stim_fb/posf.jpg,stim_01/d.jpg,stim_01/c.jpg,1,2,f,2,51,171,21,f,1,0.566516591603,01,03,60.0243612223,PLT_learning_01,B,2014_Feb_24_1900,P11,
stim_fb/ques.jpg,stim_fb/negf.jpg,stim_fb/posf.jpg,stim_01/c.jpg,stim_01/d.jpg,2,2,j,2,52,172,32,j,1,0.649821050971,01,03,60.0243612223,PLT_learning_01,B,2014_Feb_24_1900,P11,
stim_fb/ques.jpg,stim_fb/negf.jpg,stim_fb/posf.jpg,stim_01/d.jpg,stim_01/c.jpg,1,2,f,2,53,173,25,f,1,0.583170352103,01,03,60.0243612223,PLT_learning_01,B,2014_Feb_24_1900,P11,
stim_fb/ques.jpg,stim_fb/posf.jpg,stim_fb/negf.jpg,stim_01/b.jpg,stim_01/a.jpg,1,1,f,2,54,174,8,f,1,0.716477503174,01,03,60.0243612223,PLT_learning_01,B,2014_Feb_24_1900,P11,
stim_fb/ques.jpg,stim_fb/posf.jpg,stim_fb/negf.jpg,stim_01/c.jpg,stim_01/d.jpg,2,2,j,2,55,175,37,j,1,0.533182839226,01,03,60.0243612223,PLT_learning_01,B,2014_Feb_24_1900,P11,
stim_fb/ques.jpg,stim_fb/negf.jpg,stim_fb/posf.jpg,stim_01/b.jpg,stim_01/a.jpg,1,1,f,2,56,176,0,f,1,0.549872139305,01,03,60.0243612223,PLT_learning_01,B,2014_Feb_24_1900,P11,
stim_fb/ques.jpg,stim_fb/negf.jpg,stim_fb/posf.jpg,stim_01/c.jpg,stim_01/d.jpg,2,2,j,2,57,177,33,j,1,0.699852298854,01,03,60.0243612223,PLT_learning_01,B,2014_Feb_24_1900,P11,
stim_fb/ques.jpg,stim_fb/negf.jpg,stim_fb/posf.jpg,stim_01/b.jpg,stim_01/a.jpg,1,1,f,2,58,178,4,f,1,0.566495256426,01,03,60.0243612223,PLT_learning_01,B,2014_Feb_24_1900,P11,
stim_fb/ques.jpg,stim_fb/negf.jpg,stim_fb/posf.jpg,stim_01/b.jpg,stim_01/a.jpg,1,1,f,2,59,179,2,f,1,0.683186132435,01,03,60.0243612223,PLT_learning_01,B,2014_Feb_24_1900,P11,
stim_fb/ques.jpg,stim_fb/negf.jpg,stim_fb/posf.jpg,stim_01/b.jpg,stim_01/a.jpg,1,1,f,3,0,180,0,f,1,0.716477821974,01,03,60.0243612223,PLT_learning_01,B,2014_Feb_24_1900,P11,
stim_fb/ques.jpg,stim_fb/posf.jpg,stim_fb/negf.jpg,stim_01/e.jpg,stim_01/f.jpg,2,3,j,3,1,181,58,j,1,0.966371091945,01,03,60.0243612223,PLT_learning_01,B,2014_Feb_24_1900,P11,
stim_fb/ques.jpg,stim_fb/negf.jpg,stim_fb/posf.jpg,stim_01/d.jpg,stim_01/c.jpg,1,2,f,3,2,182,24,f,1,0.583179515943,01,03,60.0243612223,PLT_learning_01,B,2014_Feb_24_1900,P11,
stim_fb/ques.jpg,stim_fb/posf.jpg,stim_fb/negf.jpg,stim_01/f.jpg,stim_01/e.jpg,1,3,f,3,3,183,47,j,0,0.833127143407,01,03,60.0243612223,PLT_learning_01,B,2014_Feb_24_1900,P11,
stim_fb/ques.jpg,stim_fb/negf.jpg,stim_fb/posf.jpg,stim_01/c.jpg,stim_01/d.jpg,2,2,j,3,4,184,35,j,1,0.916361110067,01,03,60.0243612223,PLT_learning_01,B,2014_Feb_24_1900,P11,
stim_fb/ques.jpg,stim_fb/posf.jpg,stim_fb/negf.jpg,stim_01/d.jpg,stim_01/c.jpg,1,2,f,3,5,185,28,f,1,0.666489157225,01,03,60.0243612223,PLT_learning_01,B,2014_Feb_24_1900,P11,
stim_fb/ques.jpg,stim_fb/negf.jpg,stim_fb/posf.jpg,stim_01/a.jpg,stim_01/b.jpg,2,1,j,3,6,186,17,j,1,0.499862674715,01,03,60.0243612223,PLT_learning_01,B,2014_Feb_24_1900,P11,
stim_fb/ques.jpg,stim_fb/negf.jpg,stim_fb/posf.jpg,stim_01/c.jpg,stim_01/d.jpg,2,2,j,3,7,187,36,j,1,0.783132773438,01,03,60.0243612223,PLT_learning_01,B,2014_Feb_24_1900,P11,
stim_fb/ques.jpg,stim_fb/negf.jpg,stim_fb/posf.jpg,stim_01/e.jpg,stim_01/f.jpg,2,3,j,3,8,188,50,f,0,0.449878452044,01,03,60.0243612223,PLT_learning_01,B,2014_Feb_24_1900,P11,
stim_fb/ques.jpg,stim_fb/negf.jpg,stim_fb/posf.jpg,stim_01/c.jpg,stim_01/d.jpg,2,2,j,3,9,189,30,j,1,0.483153555237,01,03,60.0243612223,PLT_learning_01,B,2014_Feb_24_1900,P11,
stim_fb/ques.jpg,stim_fb/negf.jpg,stim_fb/posf.jpg,stim_01/e.jpg,stim_01/f.jpg,2,3,j,3,10,190,53,f,0,0.39987072879,01,03,60.0243612223,PLT_learning_01,B,2014_Feb_24_1900,P11,
stim_fb/ques.jpg,stim_fb/negf.jpg,stim_fb/posf.jpg,stim_01/e.jpg,stim_01/f.jpg,2,3,j,3,11,191,51,j,1,0.566533974932,01,03,60.0243612223,PLT_learning_01,B,2014_Feb_24_1900,P11,
stim_fb/ques.jpg,stim_fb/negf.jpg,stim_fb/posf.jpg,stim_01/a.jpg,stim_01/b.jpg,2,1,j,3,12,192,15,f,0,0.399968595724,01,03,60.0243612223,PLT_learning_01,B,2014_Feb_24_1900,P11,
stim_fb/ques.jpg,stim_fb/negf.jpg,stim_fb/posf.jpg,stim_01/f.jpg,stim_01/e.jpg,1,3,f,3,13,193,41,j,0,0.516549027452,01,03,60.0243612223,PLT_learning_01,B,2014_Feb_24_1900,P11,
stim_fb/ques.jpg,stim_fb/posf.jpg,stim_fb/negf.jpg,stim_01/c.jpg,stim_01/d.jpg,2,2,j,3,14,194,38,j,1,0.766445347028,01,03,60.0243612223,PLT_learning_01,B,2014_Feb_24_1900,P11,
stim_fb/ques.jpg,stim_fb/negf.jpg,stim_fb/posf.jpg,stim_01/d.jpg,stim_01/c.jpg,1,2,f,3,15,195,20,f,1,0.383236162135,01,03,60.0243612223,PLT_learning_01,B,2014_Feb_24_1900,P11,
stim_fb/ques.jpg,stim_fb/negf.jpg,stim_fb/posf.jpg,stim_01/b.jpg,stim_01/a.jpg,1,1,f,3,16,196,6,j,0,0.533259909327,01,03,60.0243612223,PLT_learning_01,B,2014_Feb_24_1900,P11,
stim_fb/ques.jpg,stim_fb/negf.jpg,stim_fb/posf.jpg,stim_01/b.jpg,stim_01/a.jpg,1,1,f,3,17,197,2,f,1,0.349941413977,01,03,60.0243612223,PLT_learning_01,B,2014_Feb_24_1900,P11,
stim_fb/ques.jpg,stim_fb/negf.jpg,stim_fb/posf.jpg,stim_01/c.jpg,stim_01/d.jpg,2,2,j,3,18,198,31,j,1,0.566530567441,01,03,60.0243612223,PLT_learning_01,B,2014_Feb_24_1900,P11,
stim_fb/ques.jpg,stim_fb/negf.jpg,stim_fb/posf.jpg,stim_01/b.jpg,stim_01/a.jpg,1,1,f,3,19,199,5,f,1,0.499897681973,01,03,60.0243612223,PLT_learning_01,B,2014_Feb_24_1900,P11,
stim_fb/ques.jpg,stim_fb/posf.jpg,stim_fb/negf.jpg,stim_01/b.jpg,stim_01/a.jpg,1,1,f,3,20,200,9,j,0,0.533190129398,01,03,60.0243612223,PLT_learning_01,B,2014_Feb_24_1900,P11,
stim_fb/ques.jpg,stim_fb/posf.jpg,stim_fb/negf.jpg,stim_01/b.jpg,stim_01/a.jpg,1,1,f,3,21,201,8,f,1,0.349926965962,01,03,60.0243612223,PLT_learning_01,B,2014_Feb_24_1900,P11,
stim_fb/ques.jpg,stim_fb/posf.jpg,stim_fb/negf.jpg,stim_01/e.jpg,stim_01/f.jpg,2,3,j,3,22,202,56,j,1,0.266619838949,01,03,60.0243612223,PLT_learning_01,B,2014_Feb_24_1900,P11,
stim_fb/ques.jpg,stim_fb/negf.jpg,stim_fb/posf.jpg,stim_01/a.jpg,stim_01/b.jpg,2,1,j,3,23,203,14,f,0,0.349925636649,01,03,60.0243612223,PLT_learning_01,B,2014_Feb_24_1900,P11,
stim_fb/ques.jpg,stim_fb/posf.jpg,stim_fb/negf.jpg,stim_01/a.jpg,stim_01/b.jpg,2,1,j,3,24,204,19,j,1,0.666457731895,01,03,60.0243612223,PLT_learning_01,B,2014_Feb_24_1900,P11,
stim_fb/ques.jpg,stim_fb/negf.jpg,stim_fb/posf.jpg,stim_01/e.jpg,stim_01/f.jpg,2,3,j,3,25,205,54,f,0,0.899750723678,01,03,60.0243612223,PLT_learning_01,B,2014_Feb_24_1900,P11,
stim_fb/ques.jpg,stim_fb/negf.jpg,stim_fb/posf.jpg,stim_01/e.jpg,stim_01/f.jpg,2,3,j,3,26,206,52,j,1,0.683219747218,01,03,60.0243612223,PLT_learning_01,B,2014_Feb_24_1900,P11,
stim_fb/ques.jpg,stim_fb/negf.jpg,stim_fb/posf.jpg,stim_01/c.jpg,stim_01/d.jpg,2,2,j,3,27,207,33,j,1,0.699848906399,01,03,60.0243612223,PLT_learning_01,B,2014_Feb_24_1900,P11,
stim_fb/ques.jpg,stim_fb/negf.jpg,stim_fb/posf.jpg,stim_01/f.jpg,stim_01/e.jpg,1,3,f,3,28,208,40,f,1,0.599828783244,01,03,60.0243612223,PLT_learning_01,B,2014_Feb_24_1900,P11,
stim_fb/ques.jpg,stim_fb/posf.jpg,stim_fb/negf.jpg,stim_01/c.jpg,stim_01/d.jpg,2,2,j,3,29,209,37,j,1,0.816409431511,01,03,60.0243612223,PLT_learning_01,B,2014_Feb_24_1900,P11,
stim_fb/ques.jpg,stim_fb/negf.jpg,stim_fb/posf.jpg,stim_01/f.jpg,stim_01/e.jpg,1,3,f,3,30,210,43,f,1,0.549865050638,01,03,60.0243612223,PLT_learning_01,B,2014_Feb_24_1900,P11,
stim_fb/ques.jpg,stim_fb/posf.jpg,stim_fb/negf.jpg,stim_01/c.jpg,stim_01/d.jpg,2,2,j,3,31,211,39,j,1,0.616481449011,01,03,60.0243612223,PLT_learning_01,B,2014_Feb_24_1900,P11,
stim_fb/ques.jpg,stim_fb/posf.jpg,stim_fb/negf.jpg,stim_01/a.jpg,stim_01/b.jpg,2,1,j,3,32,212,18,j,1,0.766438384675,01,03,60.0243612223,PLT_learning_01,B,2014_Feb_24_1900,P11,
stim_fb/ques.jpg,stim_fb/negf.jpg,stim_fb/posf.jpg,stim_01/b.jpg,stim_01/a.jpg,1,1,f,3,33,213,3,f,1,0.549863351403,01,03,60.0243612223,PLT_learning_01,B,2014_Feb_24_1900,P11,
stim_fb/ques.jpg,stim_fb/negf.jpg,stim_fb/posf.jpg,stim_01/a.jpg,stim_01/b.jpg,2,1,j,3,34,214,10,f,0,0.399901952616,01,03,60.0243612223,PLT_learning_01,B,2014_Feb_24_1900,P11,
stim_fb/ques.jpg,stim_fb/negf.jpg,stim_fb/posf.jpg,stim_01/d.jpg,stim_01/c.jpg,1,2,f,3,35,215,23,j,0,0.483273100202,01,03,60.0243612223,PLT_learning_01,B,2014_Feb_24_1900,P11,
stim_fb/ques.jpg,stim_fb/posf.jpg,stim_fb/negf.jpg,stim_01/d.jpg,stim_01/c.jpg,1,2,f,3,36,216,29,f,1,0.749845547023,01,03,60.0243612223,PLT_learning_01,B,2014_Feb_24_1900,P11,
stim_fb/ques.jpg,stim_fb/negf.jpg,stim_fb/posf.jpg,stim_01/d.jpg,stim_01/c.jpg,1,2,f,3,37,217,22,j,0,0.516554452974,01,03,60.0243612223,PLT_learning_01,B,2014_Feb_24_1900,P11,
stim_fb/ques.jpg,stim_fb/posf.jpg,stim_fb/negf.jpg,stim_01/e.jpg,stim_01/f.jpg,2,3,j,3,38,218,59,j,1,0.949710432251,01,03,60.0243612223,PLT_learning_01,B,2014_Feb_24_1900,P11,
stim_fb/ques.jpg,stim_fb/posf.jpg,stim_fb/negf.jpg,stim_01/d.jpg,stim_01/c.jpg,1,2,f,3,39,219,27,f,1,0.749805742817,01,03,60.0243612223,PLT_learning_01,B,2014_Feb_24_1900,P11,
stim_fb/ques.jpg,stim_fb/posf.jpg,stim_fb/negf.jpg,stim_01/f.jpg,stim_01/e.jpg,1,3,f,3,40,220,46,j,0,0.416621174278,01,03,60.0243612223,PLT_learning_01,B,2014_Feb_24_1900,P11,
stim_fb/ques.jpg,stim_fb/negf.jpg,stim_fb/posf.jpg,stim_01/b.jpg,stim_01/a.jpg,1,1,f,3,41,221,7,f,1,0.766371125028,01,03,60.0243612223,PLT_learning_01,B,2014_Feb_24_1900,P11,
stim_fb/ques.jpg,stim_fb/negf.jpg,stim_fb/posf.jpg,stim_01/a.jpg,stim_01/b.jpg,2,1,j,3,42,222,11,j,1,0.616452483813,01,03,60.0243612223,PLT_learning_01,B,2014_Feb_24_1900,P11,
stim_fb/ques.jpg,stim_fb/negf.jpg,stim_fb/posf.jpg,stim_01/c.jpg,stim_01/d.jpg,2,2,j,3,43,223,32,f,0,0.816499265416,01,03,60.0243612223,PLT_learning_01,B,2014_Feb_24_1900,P11,
stim_fb/ques.jpg,stim_fb/negf.jpg,stim_fb/posf.jpg,stim_01/c.jpg,stim_01/d.jpg,2,2,j,3,44,224,34,j,1,0.566507211224,01,03,60.0243612223,PLT_learning_01,B,2014_Feb_24_1900,P11,
stim_fb/ques.jpg,stim_fb/negf.jpg,stim_fb/posf.jpg,stim_01/a.jpg,stim_01/b.jpg,2,1,j,3,45,225,16,j,1,0.749810744281,01,03,60.0243612223,PLT_learning_01,B,2014_Feb_24_1900,P11,
stim_fb/ques.jpg,stim_fb/negf.jpg,stim_fb/posf.jpg,stim_01/f.jpg,stim_01/e.jpg,1,3,f,3,46,226,42,f,1,0.816485671538,01,03,60.0243612223,PLT_learning_01,B,2014_Feb_24_1900,P11,
stim_fb/ques.jpg,stim_fb/negf.jpg,stim_fb/posf.jpg,stim_01/d.jpg,stim_01/c.jpg,1,2,f,3,47,227,25,j,0,0.63317557612,01,03,60.0243612223,PLT_learning_01,B,2014_Feb_24_1900,P11,
stim_fb/ques.jpg,stim_fb/negf.jpg,stim_fb/posf.jpg,stim_01/b.jpg,stim_01/a.jpg,1,1,f,3,48,228,4,f,1,0.799784482824,01,03,60.0243612223,PLT_learning_01,B,2014_Feb_24_1900,P11,
stim_fb/ques.jpg,stim_fb/negf.jpg,stim_fb/posf.jpg,stim_01/f.jpg,stim_01/e.jpg,1,3,f,3,49,229,45,f,1,1.24961146759,01,03,60.0243612223,PLT_learning_01,B,2014_Feb_24_1900,P11,
stim_fb/ques.jpg,stim_fb/negf.jpg,stim_fb/posf.jpg,stim_01/b.jpg,stim_01/a.jpg,1,1,f,3,50,230,1,f,1,0.766344105683,01,03,60.0243612223,PLT_learning_01,B,2014_Feb_24_1900,P11,
stim_fb/ques.jpg,stim_fb/posf.jpg,stim_fb/negf.jpg,stim_01/f.jpg,stim_01/e.jpg,1,3,f,3,51,231,48,f,1,1.01638770836,01,03,60.0243612223,PLT_learning_01,B,2014_Feb_24_1900,P11,
stim_fb/ques.jpg,stim_fb/negf.jpg,stim_fb/posf.jpg,stim_01/e.jpg,stim_01/f.jpg,2,3,j,3,52,232,55,f,0,0.699822930656,01,03,60.0243612223,PLT_learning_01,B,2014_Feb_24_1900,P11,
stim_fb/ques.jpg,stim_fb/negf.jpg,stim_fb/posf.jpg,stim_01/d.jpg,stim_01/c.jpg,1,2,f,3,53,233,21,j,0,0.349898367684,01,03,60.0243612223,PLT_learning_01,B,2014_Feb_24_1900,P11,
stim_fb/ques.jpg,stim_fb/negf.jpg,stim_fb/posf.jpg,stim_01/a.jpg,stim_01/b.jpg,2,1,j,3,54,234,13,f,0,0.34992932083,01,03,60.0243612223,PLT_learning_01,B,2014_Feb_24_1900,P11,
stim_fb/ques.jpg,stim_fb/negf.jpg,stim_fb/posf.jpg,stim_01/a.jpg,stim_01/b.jpg,2,1,j,3,55,235,12,j,1,0.549847571074,01,03,60.0243612223,PLT_learning_01,B,2014_Feb_24_1900,P11,
stim_fb/ques.jpg,stim_fb/posf.jpg,stim_fb/negf.jpg,stim_01/f.jpg,stim_01/e.jpg,1,3,f,3,56,236,49,j,0,0.716479704664,01,03,60.0243612223,PLT_learning_01,B,2014_Feb_24_1900,P11,
stim_fb/ques.jpg,stim_fb/negf.jpg,stim_fb/posf.jpg,stim_01/f.jpg,stim_01/e.jpg,1,3,f,3,57,237,44,j,0,0.549866951376,01,03,60.0243612223,PLT_learning_01,B,2014_Feb_24_1900,P11,
stim_fb/ques.jpg,stim_fb/posf.jpg,stim_fb/negf.jpg,stim_01/e.jpg,stim_01/f.jpg,2,3,j,3,58,238,57,f,0,0.58319116999,01,03,60.0243612223,PLT_learning_01,B,2014_Feb_24_1900,P11,
stim_fb/ques.jpg,stim_fb/negf.jpg,stim_fb/posf.jpg,stim_01/d.jpg,stim_01/c.jpg,1,2,f,3,59,239,26,f,1,0.833114535981,01,03,60.0243612223,PLT_learning_01,B,2014_Feb_24_1900,P11,
stim_fb/ques.jpg,stim_fb/negf.jpg,stim_fb/posf.jpg,stim_01/f.jpg,stim_01/e.jpg,1,3,f,4,0,240,40,f,1,1.16635258081,01,03,60.0243612223,PLT_learning_01,B,2014_Feb_24_1900,P11,
stim_fb/ques.jpg,stim_fb/negf.jpg,stim_fb/posf.jpg,stim_01/d.jpg,stim_01/c.jpg,1,2,f,4,1,241,25,f,1,0.7330929993,01,03,60.0243612223,PLT_learning_01,B,2014_Feb_24_1900,P11,
stim_fb/ques.jpg,stim_fb/negf.jpg,stim_fb/posf.jpg,stim_01/e.jpg,stim_01/f.jpg,2,3,j,4,2,242,52,j,1,0.733150725184,01,03,60.0243612223,PLT_learning_01,B,2014_Feb_24_1900,P11,
stim_fb/ques.jpg,stim_fb/posf.jpg,stim_fb/negf.jpg,stim_01/a.jpg,stim_01/b.jpg,2,1,j,4,3,243,18,f,0,0.74980126465,01,03,60.0243612223,PLT_learning_01,B,2014_Feb_24_1900,P11,
stim_fb/ques.jpg,stim_fb/negf.jpg,stim_fb/posf.jpg,stim_01/a.jpg,stim_01/b.jpg,2,1,j,4,4,244,11,j,1,0.56649457974,01,03,60.0243612223,PLT_learning_01,B,2014_Feb_24_1900,P11,
stim_fb/ques.jpg,stim_fb/negf.jpg,stim_fb/posf.jpg,stim_01/d.jpg,stim_01/c.jpg,1,2,f,4,5,245,26,f,1,0.733169516017,01,03,60.0243612223,PLT_learning_01,B,2014_Feb_24_1900,P11,
stim_fb/ques.jpg,stim_fb/negf.jpg,stim_fb/posf.jpg,stim_01/c.jpg,stim_01/d.jpg,2,2,j,4,6,246,33,f,0,1.06638227382,01,03,60.0243612223,PLT_learning_01,B,2014_Feb_24_1900,P11,
stim_fb/ques.jpg,stim_fb/negf.jpg,stim_fb/posf.jpg,stim_01/c.jpg,stim_01/d.jpg,2,2,j,4,7,247,32,j,1,0.866393398544,01,03,60.0243612223,PLT_learning_01,B,2014_Feb_24_1900,P11,
stim_fb/ques.jpg,stim_fb/negf.jpg,stim_fb/posf.jpg,stim_01/e.jpg,stim_01/f.jpg,2,3,j,4,8,248,53,f,0,0.666460979992,01,03,60.0243612223,PLT_learning_01,B,2014_Feb_24_1900,P11,
stim_fb/ques.jpg,stim_fb/negf.jpg,stim_fb/posf.jpg,stim_01/b.jpg,stim_01/a.jpg,1,1,f,4,9,249,6,f,1,0.733124523875,01,03,60.0243612223,PLT_learning_01,B,2014_Feb_24_1900,P11,
stim_fb/ques.jpg,stim_fb/negf.jpg,stim_fb/posf.jpg,stim_01/b.jpg,stim_01/a.jpg,1,1,f,4,10,250,2,f,1,0.716459386018,01,03,60.0243612223,PLT_learning_01,B,2014_Feb_24_1900,P11,
stim_fb/ques.jpg,stim_fb/posf.jpg,stim_fb/negf.jpg,stim_01/a.jpg,stim_01/b.jpg,2,1,j,4,11,251,19,j,1,0.649823135165,01,03,60.0243612223,PLT_learning_01,B,2014_Feb_24_1900,P11,
stim_fb/ques.jpg,stim_fb/negf.jpg,stim_fb/posf.jpg,stim_01/d.jpg,stim_01/c.jpg,1,2,f,4,12,252,22,j,0,0.999735914767,01,03,60.0243612223,PLT_learning_01,B,2014_Feb_24_1900,P11,
stim_fb/ques.jpg,stim_fb/posf.jpg,stim_fb/negf.jpg,stim_01/e.jpg,stim_01/f.jpg,2,3,j,4,13,253,59,f,0,1.03305889429,01,03,60.0243612223,PLT_learning_01,B,2014_Feb_24_1900,P11,
stim_fb/ques.jpg,stim_fb/posf.jpg,stim_fb/negf.jpg,stim_01/d.jpg,stim_01/c.jpg,1,2,f,4,14,254,29,f,1,0.849757346183,01,03,60.0243612223,PLT_learning_01,B,2014_Feb_24_1900,P11,
stim_fb/ques.jpg,stim_fb/negf.jpg,stim_fb/posf.jpg,stim_01/b.jpg,stim_01/a.jpg,1,1,f,4,15,255,1,f,1,0.633220902098,01,03,60.0243612223,PLT_learning_01,B,2014_Feb_24_1900,P11,
stim_fb/ques.jpg,stim_fb/posf.jpg,stim_fb/negf.jpg,stim_01/c.jpg,stim_01/d.jpg,2,2,j,4,16,256,39,f,0,0.683135862135,01,03,60.0243612223,PLT_learning_01,B,2014_Feb_24_1900,P11,
stim_fb/ques.jpg,stim_fb/posf.jpg,stim_fb/negf.jpg,stim_01/e.jpg,stim_01/f.jpg,2,3,j,4,17,257,58,j,1,0.733090430898,01,03,60.0243612223,PLT_learning_01,B,2014_Feb_24_1900,P11,
stim_fb/ques.jpg,stim_fb/negf.jpg,stim_fb/posf.jpg,stim_01/e.jpg,stim_01/f.jpg,2,3,j,4,18,258,50,f,0,0.466505818753,01,03,60.0243612223,PLT_learning_01,B,2014_Feb_24_1900,P11,
stim_fb/ques.jpg,stim_fb/posf.jpg,stim_fb/negf.jpg,stim_01/c.jpg,stim_01/d.jpg,2,2,j,4,19,259,37,j,1,0.599844241773,01,03,60.0243612223,PLT_learning_01,B,2014_Feb_24_1900,P11,
stim_fb/ques.jpg,stim_fb/posf.jpg,stim_fb/negf.jpg,stim_01/c.jpg,stim_01/d.jpg,2,2,j,4,20,260,38,f,0,0.649827787762,01,03,60.0243612223,PLT_learning_01,B,2014_Feb_24_1900,P11,
stim_fb/ques.jpg,stim_fb/negf.jpg,stim_fb/posf.jpg,stim_01/f.jpg,stim_01/e.jpg,1,3,f,4,21,261,45,j,0,0.583172848324,01,03,60.0243612223,PLT_learning_01,B,2014_Feb_24_1900,P11,
stim_fb/ques.jpg,stim_fb/negf.jpg,stim_fb/posf.jpg,stim_01/a.jpg,stim_01/b.jpg,2,1,j,4,22,262,16,f,0,0.416575502441,01,03,60.0243612223,PLT_learning_01,B,2014_Feb_24_1900,P11,
stim_fb/ques.jpg,stim_fb/negf.jpg,stim_fb/posf.jpg,stim_01/b.jpg,stim_01/a.jpg,1,1,f,4,23,263,0,f,1,0.866392905318,01,03,60.0243612223,PLT_learning_01,B,2014_Feb_24_1900,P11,
stim_fb/ques.jpg,stim_fb/negf.jpg,stim_fb/posf.jpg,stim_01/d.jpg,stim_01/c.jpg,1,2,f,4,24,264,24,f,1,0.766473638545,01,03,60.0243612223,PLT_learning_01,B,2014_Feb_24_1900,P11,
stim_fb/ques.jpg,stim_fb/negf.jpg,stim_fb/posf.jpg,stim_01/c.jpg,stim_01/d.jpg,2,2,j,4,25,265,35,f,0,0.733145705672,01,03,60.0243612223,PLT_learning_01,B,2014_Feb_24_1900,P11,
stim_fb/ques.jpg,stim_fb/posf.jpg,stim_fb/negf.jpg,stim_01/f.jpg,stim_01/e.jpg,1,3,f,4,26,266,48,j,0,0.916423530649,01,03,60.0243612223,PLT_learning_01,B,2014_Feb_24_1900,P11,
stim_fb/ques.jpg,stim_fb/negf.jpg,stim_fb/posf.jpg,stim_01/c.jpg,stim_01/d.jpg,2,2,j,4,27,267,31,f,0,0.68316312509,01,03,60.0243612223,PLT_learning_01,B,2014_Feb_24_1900,P11,
stim_fb/ques.jpg,stim_fb/negf.jpg,stim_fb/posf.jpg,stim_01/e.jpg,stim_01/f.jpg,2,3,j,4,28,268,55,j,1,0.749814190873,01,03,60.0243612223,PLT_learning_01,B,2014_Feb_24_1900,P11,
stim_fb/ques.jpg,stim_fb/negf.jpg,stim_fb/posf.jpg,stim_01/a.jpg,stim_01/b.jpg,2,1,j,4,29,269,14,j,1,0.699823865987,01,03,60.0243612223,PLT_learning_01,B,2014_Feb_24_1900,P11,
stim_fb/ques.jpg,stim_fb/negf.jpg,stim_fb/posf.jpg,stim_01/f.jpg,stim_01/e.jpg,1,3,f,4,30,270,44,f,1,0.66648276028,01,03,60.0243612223,PLT_learning_01,B,2014_Feb_24_1900,P11,
stim_fb/ques.jpg,stim_fb/negf.jpg,stim_fb/posf.jpg,stim_01/c.jpg,stim_01/d.jpg,2,2,j,4,31,271,30,j,1,0.816446613182,01,03,60.0243612223,PLT_learning_01,B,2014_Feb_24_1900,P11,
stim_fb/ques.jpg,stim_fb/posf.jpg,stim_fb/negf.jpg,stim_01/d.jpg,stim_01/c.jpg,1,2,f,4,32,272,27,f,1,0.599843177119,01,03,60.0243612223,PLT_learning_01,B,2014_Feb_24_1900,P11,
stim_fb/ques.jpg,stim_fb/negf.jpg,stim_fb/posf.jpg,stim_01/e.jpg,stim_01/f.jpg,2,3,j,4,33,273,54,j,1,0.583198712793,01,03,60.0243612223,PLT_learning_01,B,2014_Feb_24_1900,P11,
stim_fb/ques.jpg,stim_fb/negf.jpg,stim_fb/posf.jpg,stim_01/b.jpg,stim_01/a.jpg,1,1,f,4,34,274,4,f,1,0.599842584645,01,03,60.0243612223,PLT_learning_01,B,2014_Feb_24_1900,P11,
stim_fb/ques.jpg,stim_fb/negf.jpg,stim_fb/posf.jpg,stim_01/a.jpg,stim_01/b.jpg,2,1,j,4,35,275,12,j,1,0.583179118952,01,03,60.0243612223,PLT_learning_01,B,2014_Feb_24_1900,P11,
stim_fb/ques.jpg,stim_fb/posf.jpg,stim_fb/negf.jpg,stim_01/f.jpg,stim_01/e.jpg,1,3,f,4,36,276,49,f,1,0.449923729895,01,03,60.0243612223,PLT_learning_01,B,2014_Feb_24_1900,P11,
stim_fb/ques.jpg,stim_fb/negf.jpg,stim_fb/posf.jpg,stim_01/d.jpg,stim_01/c.jpg,1,2,f,4,37,277,21,f,1,0.766436914011,01,03,60.0243612223,PLT_learning_01,B,2014_Feb_24_1900,P11,
stim_fb/ques.jpg,stim_fb/posf.jpg,stim_fb/negf.jpg,stim_01/d.jpg,stim_01/c.jpg,1,2,f,4,38,278,28,j,0,1.09967928662,01,03,60.0243612223,PLT_learning_01,B,2014_Feb_24_1900,P11,
stim_fb/ques.jpg,stim_fb/negf.jpg,stim_fb/posf.jpg,stim_01/d.jpg,stim_01/c.jpg,1,2,f,4,39,279,23,f,1,0.433154370265,01,03,60.0243612223,PLT_learning_01,B,2014_Feb_24_1900,P11,
stim_fb/ques.jpg,stim_fb/negf.jpg,stim_fb/posf.jpg,stim_01/f.jpg,stim_01/e.jpg,1,3,f,4,40,280,41,j,0,0.749808085653,01,03,60.0243612223,PLT_learning_01,B,2014_Feb_24_1900,P11,
stim_fb/ques.jpg,stim_fb/negf.jpg,stim_fb/posf.jpg,stim_01/f.jpg,stim_01/e.jpg,1,3,f,4,41,281,42,f,1,0.483224396812,01,03,60.0243612223,PLT_learning_01,B,2014_Feb_24_1900,P11,
stim_fb/ques.jpg,stim_fb/negf.jpg,stim_fb/posf.jpg,stim_01/b.jpg,stim_01/a.jpg,1,1,f,4,42,282,7,f,1,0.716504390191,01,03,60.0243612223,PLT_learning_01,B,2014_Feb_24_1900,P11,
stim_fb/ques.jpg,stim_fb/negf.jpg,stim_fb/posf.jpg,stim_01/a.jpg,stim_01/b.jpg,2,1,j,4,43,283,17,j,1,0.699823784784,01,03,60.0243612223,PLT_learning_01,B,2014_Feb_24_1900,P11,
stim_fb/ques.jpg,stim_fb/negf.jpg,stim_fb/posf.jpg,stim_01/e.jpg,stim_01/f.jpg,2,3,j,4,44,284,51,f,0,1.14964531094,01,03,60.0243612223,PLT_learning_01,B,2014_Feb_24_1900,P11,
stim_fb/ques.jpg,stim_fb/negf.jpg,stim_fb/posf.jpg,stim_01/f.jpg,stim_01/e.jpg,1,3,f,4,45,285,43,j,0,0.416584690342,01,03,60.0243612223,PLT_learning_01,B,2014_Feb_24_1900,P11,
stim_fb/ques.jpg,stim_fb/negf.jpg,stim_fb/posf.jpg,stim_01/b.jpg,stim_01/a.jpg,1,1,f,4,46,286,5,f,1,0.549866927315,01,03,60.0243612223,PLT_learning_01,B,2014_Feb_24_1900,P11,
stim_fb/ques.jpg,stim_fb/posf.jpg,stim_fb/negf.jpg,stim_01/f.jpg,stim_01/e.jpg,1,3,f,4,47,287,47,f,1,0.949737433555,01,03,60.0243612223,PLT_learning_01,B,2014_Feb_24_1900,P11,
stim_fb/ques.jpg,stim_fb/posf.jpg,stim_fb/negf.jpg,stim_01/f.jpg,stim_01/e.jpg,1,3,f,4,48,288,46,j,0,1.01642450809,01,03,60.0243612223,PLT_learning_01,B,2014_Feb_24_1900,P11,
stim_fb/ques.jpg,stim_fb/negf.jpg,stim_fb/posf.jpg,stim_01/b.jpg,stim_01/a.jpg,1,1,f,4,49,289,3,f,1,0.516557469491,01,03,60.0243612223,PLT_learning_01,B,2014_Feb_24_1900,P11,
stim_fb/ques.jpg,stim_fb/posf.jpg,stim_fb/negf.jpg,stim_01/b.jpg,stim_01/a.jpg,1,1,f,4,50,290,9,f,1,0.449880232482,01,03,60.0243612223,PLT_learning_01,B,2014_Feb_24_1900,P11,
stim_fb/ques.jpg,stim_fb/posf.jpg,stim_fb/negf.jpg,stim_01/e.jpg,stim_01/f.jpg,2,3,j,4,51,291,56,j,1,0.649897883475,01,03,60.0243612223,PLT_learning_01,B,2014_Feb_24_1900,P11,
stim_fb/ques.jpg,stim_fb/negf.jpg,stim_fb/posf.jpg,stim_01/a.jpg,stim_01/b.jpg,2,1,j,4,52,292,10,j,1,0.733147483101,01,03,60.0243612223,PLT_learning_01,B,2014_Feb_24_1900,P11,
stim_fb/ques.jpg,stim_fb/negf.jpg,stim_fb/posf.jpg,stim_01/c.jpg,stim_01/d.jpg,2,2,j,4,53,293,34,j,1,0.949738513245,01,03,60.0243612223,PLT_learning_01,B,2014_Feb_24_1900,P11,
stim_fb/ques.jpg,stim_fb/negf.jpg,stim_fb/posf.jpg,stim_01/a.jpg,stim_01/b.jpg,2,1,j,4,54,294,13,j,1,0.683143886137,01,03,60.0243612223,PLT_learning_01,B,2014_Feb_24_1900,P11,
stim_fb/ques.jpg,stim_fb/posf.jpg,stim_fb/negf.jpg,stim_01/e.jpg,stim_01/f.jpg,2,3,j,4,55,295,57,f,0,0.633184917406,01,03,60.0243612223,PLT_learning_01,B,2014_Feb_24_1900,P11,
stim_fb/ques.jpg,stim_fb/negf.jpg,stim_fb/posf.jpg,stim_01/a.jpg,stim_01/b.jpg,2,1,j,4,56,296,15,j,1,0.583236808747,01,03,60.0243612223,PLT_learning_01,B,2014_Feb_24_1900,P11,
stim_fb/ques.jpg,stim_fb/negf.jpg,stim_fb/posf.jpg,stim_01/c.jpg,stim_01/d.jpg,2,2,j,4,57,297,36,j,1,0.649863011557,01,03,60.0243612223,PLT_learning_01,B,2014_Feb_24_1900,P11,
stim_fb/ques.jpg,stim_fb/posf.jpg,stim_fb/negf.jpg,stim_01/b.jpg,stim_01/a.jpg,1,1,f,4,58,298,8,f,1,0.666505226276,01,03,60.0243612223,PLT_learning_01,B,2014_Feb_24_1900,P11,
stim_fb/ques.jpg,stim_fb/negf.jpg,stim_fb/posf.jpg,stim_01/d.jpg,stim_01/c.jpg,1,2,f,4,59,299,20,f,1,0.66647088969,01,03,60.0243612223,PLT_learning_01,B,2014_Feb_24_1900,P11,
stim_fb/ques.jpg,stim_fb/negf.jpg,stim_fb/posf.jpg,stim_01/d.jpg,stim_01/c.jpg,1,2,f,5,0,300,21,f,1,0.71644759363,01,03,60.0243612223,PLT_learning_01,B,2014_Feb_24_1900,P11,
stim_fb/ques.jpg,stim_fb/posf.jpg,stim_fb/negf.jpg,stim_01/d.jpg,stim_01/c.jpg,1,2,f,5,1,301,29,f,1,0.649833339601,01,03,60.0243612223,PLT_learning_01,B,2014_Feb_24_1900,P11,
stim_fb/ques.jpg,stim_fb/negf.jpg,stim_fb/posf.jpg,stim_01/f.jpg,stim_01/e.jpg,1,3,f,5,2,302,42,f,1,1.01640690521,01,03,60.0243612223,PLT_learning_01,B,2014_Feb_24_1900,P11,
stim_fb/ques.jpg,stim_fb/negf.jpg,stim_fb/posf.jpg,stim_01/d.jpg,stim_01/c.jpg,1,2,f,5,3,303,22,f,1,0.633171155103,01,03,60.0243612223,PLT_learning_01,B,2014_Feb_24_1900,P11,
stim_fb/ques.jpg,stim_fb/negf.jpg,stim_fb/posf.jpg,stim_01/e.jpg,stim_01/f.jpg,2,3,j,5,4,304,55,j,1,1.01667178743,01,03,60.0243612223,PLT_learning_01,B,2014_Feb_24_1900,P11,
stim_fb/ques.jpg,stim_fb/posf.jpg,stim_fb/negf.jpg,stim_01/b.jpg,stim_01/a.jpg,1,1,f,5,5,305,8,f,1,0.549868650611,01,03,60.0243612223,PLT_learning_01,B,2014_Feb_24_1900,P11,
stim_fb/ques.jpg,stim_fb/posf.jpg,stim_fb/negf.jpg,stim_01/f.jpg,stim_01/e.jpg,1,3,f,5,6,306,46,f,1,0.849781165554,01,03,60.0243612223,PLT_learning_01,B,2014_Feb_24_1900,P11,
stim_fb/ques.jpg,stim_fb/negf.jpg,stim_fb/posf.jpg,stim_01/b.jpg,stim_01/a.jpg,1,1,f,5,7,307,4,f,1,0.633182297879,01,03,60.0243612223,PLT_learning_01,B,2014_Feb_24_1900,P11,
stim_fb/ques.jpg,stim_fb/negf.jpg,stim_fb/posf.jpg,stim_01/d.jpg,stim_01/c.jpg,1,2,f,5,8,308,24,f,1,0.933108145051,01,03,60.0243612223,PLT_learning_01,B,2014_Feb_24_1900,P11,
stim_fb/ques.jpg,stim_fb/posf.jpg,stim_fb/negf.jpg,stim_01/c.jpg,stim_01/d.jpg,2,2,j,5,9,309,38,j,1,0.633193735386,01,03,60.0243612223,PLT_learning_01,B,2014_Feb_24_1900,P11,
stim_fb/ques.jpg,stim_fb/posf.jpg,stim_fb/negf.jpg,stim_01/a.jpg,stim_01/b.jpg,2,1,j,5,10,310,19,j,1,0.666373085915,01,03,60.0243612223,PLT_learning_01,B,2014_Feb_24_1900,P11,
stim_fb/ques.jpg,stim_fb/negf.jpg,stim_fb/posf.jpg,stim_01/b.jpg,stim_01/a.jpg,1,1,f,5,11,311,6,f,1,0.483215629956,01,03,60.0243612223,PLT_learning_01,B,2014_Feb_24_1900,P11,
stim_fb/ques.jpg,stim_fb/negf.jpg,stim_fb/posf.jpg,stim_01/c.jpg,stim_01/d.jpg,2,2,j,5,12,312,35,j,1,0.599773520498,01,03,60.0243612223,PLT_learning_01,B,2014_Feb_24_1900,P11,
stim_fb/ques.jpg,stim_fb/negf.jpg,stim_fb/posf.jpg,stim_01/f.jpg,stim_01/e.jpg,1,3,f,5,13,313,43,f,1,0.783205136806,01,03,60.0243612223,PLT_learning_01,B,2014_Feb_24_1900,P11,
stim_fb/ques.jpg,stim_fb/negf.jpg,stim_fb/posf.jpg,stim_01/e.jpg,stim_01/f.jpg,2,3,j,5,14,314,53,j,1,0.749782564042,01,03,60.0243612223,PLT_learning_01,B,2014_Feb_24_1900,P11,
stim_fb/ques.jpg,stim_fb/posf.jpg,stim_fb/negf.jpg,stim_01/d.jpg,stim_01/c.jpg,1,2,f,5,15,315,27,f,1,0.666503418772,01,03,60.0243612223,PLT_learning_01,B,2014_Feb_24_1900,P11,
stim_fb/ques.jpg,stim_fb/posf.jpg,stim_fb/negf.jpg,stim_01/e.jpg,stim_01/f.jpg,2,3,j,5,16,316,59,j,1,0.683162872461,01,03,60.0243612223,PLT_learning_01,B,2014_Feb_24_1900,P11,
stim_fb/ques.jpg,stim_fb/negf.jpg,stim_fb/posf.jpg,stim_01/d.jpg,stim_01/c.jpg,1,2,f,5,17,317,20,f,1,0.483224071999,01,03,60.0243612223,PLT_learning_01,B,2014_Feb_24_1900,P11,
stim_fb/ques.jpg,stim_fb/negf.jpg,stim_fb/posf.jpg,stim_01/b.jpg,stim_01/a.jpg,1,1,f,5,18,318,5,f,1,0.599840759089,01,03,60.0243612223,PLT_learning_01,B,2014_Feb_24_1900,P11,
stim_fb/ques.jpg,stim_fb/negf.jpg,stim_fb/posf.jpg,stim_01/f.jpg,stim_01/e.jpg,1,3,f,5,19,319,41,j,0,0.699797285735,01,03,60.0243612223,PLT_learning_01,B,2014_Feb_24_1900,P11,
stim_fb/ques.jpg,stim_fb/negf.jpg,stim_fb/posf.jpg,stim_01/a.jpg,stim_01/b.jpg,2,1,j,5,20,320,10,f,0,0.466551619913,01,03,60.0243612223,PLT_learning_01,B,2014_Feb_24_1900,P11,
stim_fb/ques.jpg,stim_fb/negf.jpg,stim_fb/posf.jpg,stim_01/a.jpg,stim_01/b.jpg,2,1,j,5,21,321,12,j,1,0.649836623787,01,03,60.0243612223,PLT_learning_01,B,2014_Feb_24_1900,P11,
stim_fb/ques.jpg,stim_fb/negf.jpg,stim_fb/posf.jpg,stim_01/b.jpg,stim_01/a.jpg,1,1,f,5,22,322,7,f,1,0.53320338644,01,03,60.0243612223,PLT_learning_01,B,2014_Feb_24_1900,P11,
stim_fb/ques.jpg,stim_fb/posf.jpg,stim_fb/negf.jpg,stim_01/a.jpg,stim_01/b.jpg,2,1,j,5,23,323,18,j,1,0.499875420486,01,03,60.0243612223,PLT_learning_01,B,2014_Feb_24_1900,P11,
stim_fb/ques.jpg,stim_fb/posf.jpg,stim_fb/negf.jpg,stim_01/b.jpg,stim_01/a.jpg,1,1,f,5,24,324,9,f,1,0.466564870942,01,03,60.0243612223,PLT_learning_01,B,2014_Feb_24_1900,P11,
stim_fb/ques.jpg,stim_fb/negf.jpg,stim_fb/posf.jpg,stim_01/a.jpg,stim_01/b.jpg,2,1,j,5,25,325,15,j,1,0.433228583242,01,03,60.0243612223,PLT_learning_01,B,2014_Feb_24_1900,P11,
stim_fb/ques.jpg,stim_fb/negf.jpg,stim_fb/posf.jpg,stim_01/c.jpg,stim_01/d.jpg,2,2,j,5,26,326,31,f,0,0.566525574995,01,03,60.0243612223,PLT_learning_01,B,2014_Feb_24_1900,P11,
stim_fb/ques.jpg,stim_fb/negf.jpg,stim_fb/posf.jpg,stim_01/f.jpg,stim_01/e.jpg,1,3,f,5,27,327,44,j,0,0.616508922489,01,03,60.0243612223,PLT_learning_01,B,2014_Feb_24_1900,P11,
stim_fb/ques.jpg,stim_fb/negf.jpg,stim_fb/posf.jpg,stim_01/f.jpg,stim_01/e.jpg,1,3,f,5,28,328,40,f,1,0.699818013396,01,03,60.0243612223,PLT_learning_01,B,2014_Feb_24_1900,P11,
stim_fb/ques.jpg,stim_fb/posf.jpg,stim_fb/negf.jpg,stim_01/e.jpg,stim_01/f.jpg,2,3,j,5,29,329,58,j,1,1.04970255261,01,03,60.0243612223,PLT_learning_01,B,2014_Feb_24_1900,P11,
stim_fb/ques.jpg,stim_fb/negf.jpg,stim_fb/posf.jpg,stim_01/c.jpg,stim_01/d.jpg,2,2,j,5,30,330,34,f,0,0.483270742323,01,03,60.0243612223,PLT_learning_01,B,2014_Feb_24_1900,P11,
stim_fb/ques.jpg,stim_fb/negf.jpg,stim_fb/posf.jpg,stim_01/d.jpg,stim_01/c.jpg,1,2,f,5,31,331,26,f,1,0.549872966367,01,03,60.0243612223,PLT_learning_01,B,2014_Feb_24_1900,P11,
stim_fb/ques.jpg,stim_fb/negf.jpg,stim_fb/posf.jpg,stim_01/c.jpg,stim_01/d.jpg,2,2,j,5,32,332,36,f,0,0.499888716626,01,03,60.0243612223,PLT_learning_01,B,2014_Feb_24_1900,P11,
stim_fb/ques.jpg,stim_fb/negf.jpg,stim_fb/posf.jpg,stim_01/e.jpg,stim_01/f.jpg,2,3,j,5,33,333,50,j,1,0.699856533411,01,03,60.0243612223,PLT_learning_01,B,2014_Feb_24_1900,P11,
stim_fb/ques.jpg,stim_fb/posf.jpg,stim_fb/negf.jpg,stim_01/c.jpg,stim_01/d.jpg,2,2,j,5,34,334,37,f,0,0.499870734806,01,03,60.0243612223,PLT_learning_01,B,2014_Feb_24_1900,P11,
stim_fb/ques.jpg,stim_fb/negf.jpg,stim_fb/posf.jpg,stim_01/e.jpg,stim_01/f.jpg,2,3,j,5,35,335,52,f,0,0.799814055532,01,03,60.0243612223,PLT_learning_01,B,2014_Feb_24_1900,P11,
stim_fb/ques.jpg,stim_fb/negf.jpg,stim_fb/posf.jpg,stim_01/d.jpg,stim_01/c.jpg,1,2,f,5,36,336,25,f,1,0.599849959024,01,03,60.0243612223,PLT_learning_01,B,2014_Feb_24_1900,P11,
stim_fb/ques.jpg,stim_fb/posf.jpg,stim_fb/negf.jpg,stim_01/e.jpg,stim_01/f.jpg,2,3,j,5,37,337,56,f,0,1.11633742002,01,03,60.0243612223,PLT_learning_01,B,2014_Feb_24_1900,P11,
stim_fb/ques.jpg,stim_fb/negf.jpg,stim_fb/posf.jpg,stim_01/c.jpg,stim_01/d.jpg,2,2,j,5,38,338,32,f,0,0.433165898001,01,03,60.0243612223,PLT_learning_01,B,2014_Feb_24_1900,P11,
stim_fb/ques.jpg,stim_fb/negf.jpg,stim_fb/posf.jpg,stim_01/a.jpg,stim_01/b.jpg,2,1,j,5,39,339,17,j,1,0.799779953533,01,03,60.0243612223,PLT_learning_01,B,2014_Feb_24_1900,P11,
stim_fb/ques.jpg,stim_fb/negf.jpg,stim_fb/posf.jpg,stim_01/b.jpg,stim_01/a.jpg,1,1,f,5,40,340,1,f,1,0.833030302027,01,03,60.0243612223,PLT_learning_01,B,2014_Feb_24_1900,P11,
stim_fb/ques.jpg,stim_fb/negf.jpg,stim_fb/posf.jpg,stim_01/d.jpg,stim_01/c.jpg,1,2,f,5,41,341,23,j,0,0.966384493349,01,03,60.0243612223,PLT_learning_01,B,2014_Feb_24_1900,P11,
stim_fb/ques.jpg,stim_fb/posf.jpg,stim_fb/negf.jpg,stim_01/c.jpg,stim_01/d.jpg,2,2,j,5,42,342,39,f,0,0.649853682302,01,03,60.0243612223,PLT_learning_01,B,2014_Feb_24_1900,P11,
stim_fb/ques.jpg,stim_fb/negf.jpg,stim_fb/posf.jpg,stim_01/b.jpg,stim_01/a.jpg,1,1,f,5,43,343,3,f,1,0.749803854105,01,03,60.0243612223,PLT_learning_01,B,2014_Feb_24_1900,P11,
stim_fb/ques.jpg,stim_fb/posf.jpg,stim_fb/negf.jpg,stim_01/f.jpg,stim_01/e.jpg,1,3,f,5,44,344,49,f,1,0.866427551671,01,03,60.0243612223,PLT_learning_01,B,2014_Feb_24_1900,P11,
stim_fb/ques.jpg,stim_fb/negf.jpg,stim_fb/posf.jpg,stim_01/b.jpg,stim_01/a.jpg,1,1,f,5,45,345,0,f,1,0.799788203094,01,03,60.0243612223,PLT_learning_01,B,2014_Feb_24_1900,P11,
stim_fb/ques.jpg,stim_fb/negf.jpg,stim_fb/posf.jpg,stim_01/a.jpg,stim_01/b.jpg,2,1,j,5,46,346,16,j,1,0.549863576965,01,03,60.0243612223,PLT_learning_01,B,2014_Feb_24_1900,P11,
stim_fb/ques.jpg,stim_fb/negf.jpg,stim_fb/posf.jpg,stim_01/a.jpg,stim_01/b.jpg,2,1,j,5,47,347,11,j,1,0.499891775253,01,03,60.0243612223,PLT_learning_01,B,2014_Feb_24_1900,P11,
stim_fb/ques.jpg,stim_fb/posf.jpg,stim_fb/negf.jpg,stim_01/d.jpg,stim_01/c.jpg,1,2,f,5,48,348,28,f,1,0.799758886023,01,03,60.0243612223,PLT_learning_01,B,2014_Feb_24_1900,P11,
stim_fb/ques.jpg,stim_fb/posf.jpg,stim_fb/negf.jpg,stim_01/f.jpg,stim_01/e.jpg,1,3,f,5,49,349,47,j,0,0.699816690099,01,03,60.0243612223,PLT_learning_01,B,2014_Feb_24_1900,P11,
stim_fb/ques.jpg,stim_fb/posf.jpg,stim_fb/negf.jpg,stim_01/e.jpg,stim_01/f.jpg,2,3,j,5,50,350,57,f,0,0.566520790067,01,03,60.0243612223,PLT_learning_01,B,2014_Feb_24_1900,P11,
stim_fb/ques.jpg,stim_fb/posf.jpg,stim_fb/negf.jpg,stim_01/f.jpg,stim_01/e.jpg,1,3,f,5,51,351,48,j,0,0.666496086495,01,03,60.0243612223,PLT_learning_01,B,2014_Feb_24_1900,P11,
stim_fb/ques.jpg,stim_fb/negf.jpg,stim_fb/posf.jpg,stim_01/c.jpg,stim_01/d.jpg,2,2,j,5,52,352,33,f,0,0.383239587671,01,03,60.0243612223,PLT_learning_01,B,2014_Feb_24_1900,P11,
stim_fb/ques.jpg,stim_fb/negf.jpg,stim_fb/posf.jpg,stim_01/a.jpg,stim_01/b.jpg,2,1,j,5,53,353,14,j,1,0.266589556468,01,03,60.0243612223,PLT_learning_01,B,2014_Feb_24_1900,P11,
stim_fb/ques.jpg,stim_fb/negf.jpg,stim_fb/posf.jpg,stim_01/c.jpg,stim_01/d.jpg,2,2,j,5,54,354,30,j,1,1.01639909775,01,03,60.0243612223,PLT_learning_01,B,2014_Feb_24_1900,P11,
stim_fb/ques.jpg,stim_fb/negf.jpg,stim_fb/posf.jpg,stim_01/f.jpg,stim_01/e.jpg,1,3,f,5,55,355,45,j,0,0.64978712942,01,03,60.0243612223,PLT_learning_01,B,2014_Feb_24_1900,P11,
stim_fb/ques.jpg,stim_fb/negf.jpg,stim_fb/posf.jpg,stim_01/e.jpg,stim_01/f.jpg,2,3,j,5,56,356,54,f,0,0.283290390296,01,03,60.0243612223,PLT_learning_01,B,2014_Feb_24_1900,P11,
stim_fb/ques.jpg,stim_fb/negf.jpg,stim_fb/posf.jpg,stim_01/e.jpg,stim_01/f.jpg,2,3,j,5,57,357,51,j,1,0.399918788578,01,03,60.0243612223,PLT_learning_01,B,2014_Feb_24_1900,P11,
stim_fb/ques.jpg,stim_fb/negf.jpg,stim_fb/posf.jpg,stim_01/a.jpg,stim_01/b.jpg,2,1,j,5,58,358,13,j,1,0.583245975595,01,03,60.0243612223,PLT_learning_01,B,2014_Feb_24_1900,P11,
stim_fb/ques.jpg,stim_fb/negf.jpg,stim_fb/posf.jpg,stim_01/b.jpg,stim_01/a.jpg,1,1,f,5,59,359,2,f,1,0.69976423636,01,03,60.0243612223,PLT_learning_01,B,2014_Feb_24_1900,P11,
