Fb3,Fb2,Fb1,Symbol2,Symbol1,PosCond,Pair,Correct,trials.thisRepN,trials.thisTrialN,trials.thisN,trials.thisIndex,Response.keys,Response.corr,Response.rt,Version,Session Number,frameRate,expName,StimCondition,date,Participant,
stim_fb/ques.jpg,stim_fb/negf.jpg,stim_fb/posf.jpg,stim_02/e.jpg,stim_02/f.jpg,2,3,j,0,0,0,52,None,0,,02,02,60.0129468161,PLT_learning_02,B,2014_Feb_24_1354,P12,
stim_fb/ques.jpg,stim_fb/posf.jpg,stim_fb/negf.jpg,stim_02/b.jpg,stim_02/a.jpg,1,1,f,0,1,1,9,j,0,0.949735821535,02,02,60.0129468161,PLT_learning_02,B,2014_Feb_24_1354,P12,
stim_fb/ques.jpg,stim_fb/posf.jpg,stim_fb/negf.jpg,stim_02/a.jpg,stim_02/b.jpg,2,1,j,0,2,2,19,f,0,0.866407311223,02,02,60.0129468161,PLT_learning_02,B,2014_Feb_24_1354,P12,
stim_fb/ques.jpg,stim_fb/negf.jpg,stim_fb/posf.jpg,stim_02/c.jpg,stim_02/d.jpg,2,2,j,0,3,3,30,j,1,0.949735180938,02,02,60.0129468161,PLT_learning_02,B,2014_Feb_24_1354,P12,
stim_fb/ques.jpg,stim_fb/posf.jpg,stim_fb/negf.jpg,stim_02/a.jpg,stim_02/b.jpg,2,1,j,0,4,4,18,f,0,0.9997203209,02,02,60.0129468161,PLT_learning_02,B,2014_Feb_24_1354,P12,
stim_fb/ques.jpg,stim_fb/posf.jpg,stim_fb/negf.jpg,stim_02/f.jpg,stim_02/e.jpg,1,3,f,0,5,5,48,j,0,1.16633157645,02,02,60.0129468161,PLT_learning_02,B,2014_Feb_24_1354,P12,
stim_fb/ques.jpg,stim_fb/negf.jpg,stim_fb/posf.jpg,stim_02/b.jpg,stim_02/a.jpg,1,1,f,0,6,6,4,j,0,0.799930767438,02,02,60.0129468161,PLT_learning_02,B,2014_Feb_24_1354,P12,
stim_fb/ques.jpg,stim_fb/negf.jpg,stim_fb/posf.jpg,stim_02/b.jpg,stim_02/a.jpg,1,1,f,0,7,7,1,j,0,0.716497355659,02,02,60.0129468161,PLT_learning_02,B,2014_Feb_24_1354,P12,
stim_fb/ques.jpg,stim_fb/negf.jpg,stim_fb/posf.jpg,stim_02/b.jpg,stim_02/a.jpg,1,1,f,0,8,8,0,f,1,0.899771000218,02,02,60.0129468161,PLT_learning_02,B,2014_Feb_24_1354,P12,
stim_fb/ques.jpg,stim_fb/posf.jpg,stim_fb/negf.jpg,stim_02/c.jpg,stim_02/d.jpg,2,2,j,0,9,9,38,j,1,0.94972826069,02,02,60.0129468161,PLT_learning_02,B,2014_Feb_24_1354,P12,
stim_fb/ques.jpg,stim_fb/negf.jpg,stim_fb/posf.jpg,stim_02/e.jpg,stim_02/f.jpg,2,3,j,0,10,10,54,f,0,0.766449984587,02,02,60.0129468161,PLT_learning_02,B,2014_Feb_24_1354,P12,
stim_fb/ques.jpg,stim_fb/negf.jpg,stim_fb/posf.jpg,stim_02/f.jpg,stim_02/e.jpg,1,3,f,0,11,11,44,f,1,1.19966902504,02,02,60.0129468161,PLT_learning_02,B,2014_Feb_24_1354,P12,
stim_fb/ques.jpg,stim_fb/posf.jpg,stim_fb/negf.jpg,stim_02/d.jpg,stim_02/c.jpg,1,2,f,0,12,12,29,j,0,0.783114132976,02,02,60.0129468161,PLT_learning_02,B,2014_Feb_24_1354,P12,
stim_fb/ques.jpg,stim_fb/negf.jpg,stim_fb/posf.jpg,stim_02/c.jpg,stim_02/d.jpg,2,2,j,0,13,13,33,f,0,1.0829818663,02,02,60.0129468161,PLT_learning_02,B,2014_Feb_24_1354,P12,
stim_fb/ques.jpg,stim_fb/negf.jpg,stim_fb/posf.jpg,stim_02/c.jpg,stim_02/d.jpg,2,2,j,0,14,14,34,f,0,0.733152944715,02,02,60.0129468161,PLT_learning_02,B,2014_Feb_24_1354,P12,
stim_fb/ques.jpg,stim_fb/posf.jpg,stim_fb/negf.jpg,stim_02/e.jpg,stim_02/f.jpg,2,3,j,0,15,15,56,f,0,1.14965955143,02,02,60.0129468161,PLT_learning_02,B,2014_Feb_24_1354,P12,
stim_fb/ques.jpg,stim_fb/negf.jpg,stim_fb/posf.jpg,stim_02/d.jpg,stim_02/c.jpg,1,2,f,0,16,16,20,f,1,1.08308506853,02,02,60.0129468161,PLT_learning_02,B,2014_Feb_24_1354,P12,
stim_fb/ques.jpg,stim_fb/negf.jpg,stim_fb/posf.jpg,stim_02/b.jpg,stim_02/a.jpg,1,1,f,0,17,17,7,j,0,0.733166337095,02,02,60.0129468161,PLT_learning_02,B,2014_Feb_24_1354,P12,
stim_fb/ques.jpg,stim_fb/negf.jpg,stim_fb/posf.jpg,stim_02/c.jpg,stim_02/d.jpg,2,2,j,0,18,18,31,j,1,0.883124821618,02,02,60.0129468161,PLT_learning_02,B,2014_Feb_24_1354,P12,
stim_fb/ques.jpg,stim_fb/negf.jpg,stim_fb/posf.jpg,stim_02/a.jpg,stim_02/b.jpg,2,1,j,0,19,19,12,j,1,0.783129720829,02,02,60.0129468161,PLT_learning_02,B,2014_Feb_24_1354,P12,
stim_fb/ques.jpg,stim_fb/negf.jpg,stim_fb/posf.jpg,stim_02/b.jpg,stim_02/a.jpg,1,1,f,0,20,20,3,f,1,0.733109140533,02,02,60.0129468161,PLT_learning_02,B,2014_Feb_24_1354,P12,
stim_fb/ques.jpg,stim_fb/negf.jpg,stim_fb/posf.jpg,stim_02/e.jpg,stim_02/f.jpg,2,3,j,0,21,21,53,f,0,1.19966088375,02,02,60.0129468161,PLT_learning_02,B,2014_Feb_24_1354,P12,
stim_fb/ques.jpg,stim_fb/negf.jpg,stim_fb/posf.jpg,stim_02/c.jpg,stim_02/d.jpg,2,2,j,0,22,22,32,f,0,0.866424652446,02,02,60.0129468161,PLT_learning_02,B,2014_Feb_24_1354,P12,
stim_fb/ques.jpg,stim_fb/negf.jpg,stim_fb/posf.jpg,stim_02/f.jpg,stim_02/e.jpg,1,3,f,0,23,23,41,f,1,0.6664966098,02,02,60.0129468161,PLT_learning_02,B,2014_Feb_24_1354,P12,
stim_fb/ques.jpg,stim_fb/negf.jpg,stim_fb/posf.jpg,stim_02/a.jpg,stim_02/b.jpg,2,1,j,0,24,24,16,f,0,0.899748278584,02,02,60.0129468161,PLT_learning_02,B,2014_Feb_24_1354,P12,
stim_fb/ques.jpg,stim_fb/negf.jpg,stim_fb/posf.jpg,stim_02/d.jpg,stim_02/c.jpg,1,2,f,0,25,25,24,f,1,0.749778940008,02,02,60.0129468161,PLT_learning_02,B,2014_Feb_24_1354,P12,
stim_fb/ques.jpg,stim_fb/posf.jpg,stim_fb/negf.jpg,stim_02/e.jpg,stim_02/f.jpg,2,3,j,0,26,26,58,j,1,1.09970069999,02,02,60.0129468161,PLT_learning_02,B,2014_Feb_24_1354,P12,
stim_fb/ques.jpg,stim_fb/posf.jpg,stim_fb/negf.jpg,stim_02/c.jpg,stim_02/d.jpg,2,2,j,0,27,27,39,j,1,0.966395341388,02,02,60.0129468161,PLT_learning_02,B,2014_Feb_24_1354,P12,
stim_fb/ques.jpg,stim_fb/negf.jpg,stim_fb/posf.jpg,stim_02/d.jpg,stim_02/c.jpg,1,2,f,0,28,28,22,j,0,1.11634588913,02,02,60.0129468161,PLT_learning_02,B,2014_Feb_24_1354,P12,
stim_fb/ques.jpg,stim_fb/negf.jpg,stim_fb/posf.jpg,stim_02/a.jpg,stim_02/b.jpg,2,1,j,0,29,29,10,j,1,0.999751941715,02,02,60.0129468161,PLT_learning_02,B,2014_Feb_24_1354,P12,
stim_fb/ques.jpg,stim_fb/negf.jpg,stim_fb/posf.jpg,stim_02/b.jpg,stim_02/a.jpg,1,1,f,0,30,30,6,j,0,0.99971403824,02,02,60.0129468161,PLT_learning_02,B,2014_Feb_24_1354,P12,
stim_fb/ques.jpg,stim_fb/posf.jpg,stim_fb/negf.jpg,stim_02/e.jpg,stim_02/f.jpg,2,3,j,0,31,31,59,j,1,1.19964769889,02,02,60.0129468161,PLT_learning_02,B,2014_Feb_24_1354,P12,
stim_fb/ques.jpg,stim_fb/posf.jpg,stim_fb/negf.jpg,stim_02/d.jpg,stim_02/c.jpg,1,2,f,0,32,32,28,f,1,0.816449734964,02,02,60.0129468161,PLT_learning_02,B,2014_Feb_24_1354,P12,
stim_fb/ques.jpg,stim_fb/negf.jpg,stim_fb/posf.jpg,stim_02/b.jpg,stim_02/a.jpg,1,1,f,0,33,33,2,f,1,1.13301332772,02,02,60.0129468161,PLT_learning_02,B,2014_Feb_24_1354,P12,
stim_fb/ques.jpg,stim_fb/negf.jpg,stim_fb/posf.jpg,stim_02/e.jpg,stim_02/f.jpg,2,3,j,0,34,34,55,f,0,0.983038368133,02,02,60.0129468161,PLT_learning_02,B,2014_Feb_24_1354,P12,
stim_fb/ques.jpg,stim_fb/negf.jpg,stim_fb/posf.jpg,stim_02/c.jpg,stim_02/d.jpg,2,2,j,0,35,35,35,j,1,0.783103468395,02,02,60.0129468161,PLT_learning_02,B,2014_Feb_24_1354,P12,
stim_fb/ques.jpg,stim_fb/posf.jpg,stim_fb/negf.jpg,stim_02/f.jpg,stim_02/e.jpg,1,3,f,0,36,36,49,j,0,1.09968872715,02,02,60.0129468161,PLT_learning_02,B,2014_Feb_24_1354,P12,
stim_fb/ques.jpg,stim_fb/posf.jpg,stim_fb/negf.jpg,stim_02/f.jpg,stim_02/e.jpg,1,3,f,0,37,37,46,j,0,0.999736594462,02,02,60.0129468161,PLT_learning_02,B,2014_Feb_24_1354,P12,
stim_fb/ques.jpg,stim_fb/negf.jpg,stim_fb/posf.jpg,stim_02/a.jpg,stim_02/b.jpg,2,1,j,0,38,38,13,j,1,1.01637909489,02,02,60.0129468161,PLT_learning_02,B,2014_Feb_24_1354,P12,
stim_fb/ques.jpg,stim_fb/negf.jpg,stim_fb/posf.jpg,stim_02/a.jpg,stim_02/b.jpg,2,1,j,0,39,39,17,j,1,0.749861598033,02,02,60.0129468161,PLT_learning_02,B,2014_Feb_24_1354,P12,
stim_fb/ques.jpg,stim_fb/negf.jpg,stim_fb/posf.jpg,stim_02/b.jpg,stim_02/a.jpg,1,1,f,0,40,40,5,f,1,0.949741235028,02,02,60.0129468161,PLT_learning_02,B,2014_Feb_24_1354,P12,
stim_fb/ques.jpg,stim_fb/negf.jpg,stim_fb/posf.jpg,stim_02/e.jpg,stim_02/f.jpg,2,3,j,0,41,41,50,f,0,0.933108800686,02,02,60.0129468161,PLT_learning_02,B,2014_Feb_24_1354,P12,
stim_fb/ques.jpg,stim_fb/posf.jpg,stim_fb/negf.jpg,stim_02/e.jpg,stim_02/f.jpg,2,3,j,0,42,42,57,f,0,1.08302135473,02,02,60.0129468161,PLT_learning_02,B,2014_Feb_24_1354,P12,
stim_fb/ques.jpg,stim_fb/negf.jpg,stim_fb/posf.jpg,stim_02/d.jpg,stim_02/c.jpg,1,2,f,0,43,43,23,f,1,0.683127904302,02,02,60.0129468161,PLT_learning_02,B,2014_Feb_24_1354,P12,
stim_fb/ques.jpg,stim_fb/negf.jpg,stim_fb/posf.jpg,stim_02/a.jpg,stim_02/b.jpg,2,1,j,0,44,44,14,j,1,0.799778654296,02,02,60.0129468161,PLT_learning_02,B,2014_Feb_24_1354,P12,
stim_fb/ques.jpg,stim_fb/negf.jpg,stim_fb/posf.jpg,stim_02/e.jpg,stim_02/f.jpg,2,3,j,0,45,45,51,f,0,1.19971886527,02,02,60.0129468161,PLT_learning_02,B,2014_Feb_24_1354,P12,
stim_fb/ques.jpg,stim_fb/negf.jpg,stim_fb/posf.jpg,stim_02/a.jpg,stim_02/b.jpg,2,1,j,0,46,46,15,j,1,0.833110430749,02,02,60.0129468161,PLT_learning_02,B,2014_Feb_24_1354,P12,
stim_fb/ques.jpg,stim_fb/negf.jpg,stim_fb/posf.jpg,stim_02/c.jpg,stim_02/d.jpg,2,2,j,0,47,47,36,j,1,0.749804022526,02,02,60.0129468161,PLT_learning_02,B,2014_Feb_24_1354,P12,
stim_fb/ques.jpg,stim_fb/posf.jpg,stim_fb/negf.jpg,stim_02/b.jpg,stim_02/a.jpg,1,1,f,0,48,48,8,f,1,1.21631252096,02,02,60.0129468161,PLT_learning_02,B,2014_Feb_24_1354,P12,
stim_fb/ques.jpg,stim_fb/negf.jpg,stim_fb/posf.jpg,stim_02/d.jpg,stim_02/c.jpg,1,2,f,0,49,49,21,f,1,0.666498585725,02,02,60.0129468161,PLT_learning_02,B,2014_Feb_24_1354,P12,
stim_fb/ques.jpg,stim_fb/negf.jpg,stim_fb/posf.jpg,stim_02/f.jpg,stim_02/e.jpg,1,3,f,0,50,50,42,f,1,0.866432150134,02,02,60.0129468161,PLT_learning_02,B,2014_Feb_24_1354,P12,
stim_fb/ques.jpg,stim_fb/negf.jpg,stim_fb/posf.jpg,stim_02/f.jpg,stim_02/e.jpg,1,3,f,0,51,51,43,f,1,0.916441034278,02,02,60.0129468161,PLT_learning_02,B,2014_Feb_24_1354,P12,
stim_fb/ques.jpg,stim_fb/negf.jpg,stim_fb/posf.jpg,stim_02/f.jpg,stim_02/e.jpg,1,3,f,0,52,52,45,f,1,0.833116578071,02,02,60.0129468161,PLT_learning_02,B,2014_Feb_24_1354,P12,
stim_fb/ques.jpg,stim_fb/negf.jpg,stim_fb/posf.jpg,stim_02/d.jpg,stim_02/c.jpg,1,2,f,0,53,53,26,f,1,0.699822199833,02,02,60.0129468161,PLT_learning_02,B,2014_Feb_24_1354,P12,
stim_fb/ques.jpg,stim_fb/negf.jpg,stim_fb/posf.jpg,stim_02/a.jpg,stim_02/b.jpg,2,1,j,0,54,54,11,j,1,0.649848891362,02,02,60.0129468161,PLT_learning_02,B,2014_Feb_24_1354,P12,
stim_fb/ques.jpg,stim_fb/posf.jpg,stim_fb/negf.jpg,stim_02/d.jpg,stim_02/c.jpg,1,2,f,0,55,55,27,f,1,0.549855865745,02,02,60.0129468161,PLT_learning_02,B,2014_Feb_24_1354,P12,
stim_fb/ques.jpg,stim_fb/negf.jpg,stim_fb/posf.jpg,stim_02/d.jpg,stim_02/c.jpg,1,2,f,0,56,56,25,f,1,0.566483064037,02,02,60.0129468161,PLT_learning_02,B,2014_Feb_24_1354,P12,
stim_fb/ques.jpg,stim_fb/posf.jpg,stim_fb/negf.jpg,stim_02/c.jpg,stim_02/d.jpg,2,2,j,0,57,57,37,j,1,0.683153582304,02,02,60.0129468161,PLT_learning_02,B,2014_Feb_24_1354,P12,
stim_fb/ques.jpg,stim_fb/posf.jpg,stim_fb/negf.jpg,stim_02/f.jpg,stim_02/e.jpg,1,3,f,0,58,58,47,f,1,0.983027649416,02,02,60.0129468161,PLT_learning_02,B,2014_Feb_24_1354,P12,
stim_fb/ques.jpg,stim_fb/negf.jpg,stim_fb/posf.jpg,stim_02/f.jpg,stim_02/e.jpg,1,3,f,0,59,59,40,f,1,0.749771971639,02,02,60.0129468161,PLT_learning_02,B,2014_Feb_24_1354,P12,
stim_fb/ques.jpg,stim_fb/negf.jpg,stim_fb/posf.jpg,stim_02/e.jpg,stim_02/f.jpg,2,3,j,1,0,60,54,j,1,0.84971391794,02,02,60.0129468161,PLT_learning_02,B,2014_Feb_24_1354,P12,
stim_fb/ques.jpg,stim_fb/negf.jpg,stim_fb/posf.jpg,stim_02/a.jpg,stim_02/b.jpg,2,1,j,1,1,61,14,j,1,0.816477259569,02,02,60.0129468161,PLT_learning_02,B,2014_Feb_24_1354,P12,
stim_fb/ques.jpg,stim_fb/posf.jpg,stim_fb/negf.jpg,stim_02/b.jpg,stim_02/a.jpg,1,1,f,1,2,62,9,j,0,0.749755776272,02,02,60.0129468161,PLT_learning_02,B,2014_Feb_24_1354,P12,
stim_fb/ques.jpg,stim_fb/negf.jpg,stim_fb/posf.jpg,stim_02/c.jpg,stim_02/d.jpg,2,2,j,1,3,63,31,j,1,0.783127576484,02,02,60.0129468161,PLT_learning_02,B,2014_Feb_24_1354,P12,
stim_fb/ques.jpg,stim_fb/negf.jpg,stim_fb/posf.jpg,stim_02/f.jpg,stim_02/e.jpg,1,3,f,1,4,64,45,f,1,0.766516781077,02,02,60.0129468161,PLT_learning_02,B,2014_Feb_24_1354,P12,
stim_fb/ques.jpg,stim_fb/negf.jpg,stim_fb/posf.jpg,stim_02/a.jpg,stim_02/b.jpg,2,1,j,1,5,65,17,j,1,0.733104121022,02,02,60.0129468161,PLT_learning_02,B,2014_Feb_24_1354,P12,
stim_fb/ques.jpg,stim_fb/negf.jpg,stim_fb/posf.jpg,stim_02/d.jpg,stim_02/c.jpg,1,2,f,1,6,66,24,f,1,0.616533577943,02,02,60.0129468161,PLT_learning_02,B,2014_Feb_24_1354,P12,
stim_fb/ques.jpg,stim_fb/posf.jpg,stim_fb/negf.jpg,stim_02/e.jpg,stim_02/f.jpg,2,3,j,1,7,67,58,j,1,0.766436622281,02,02,60.0129468161,PLT_learning_02,B,2014_Feb_24_1354,P12,
stim_fb/ques.jpg,stim_fb/negf.jpg,stim_fb/posf.jpg,stim_02/d.jpg,stim_02/c.jpg,1,2,f,1,8,68,25,f,1,0.533308314975,02,02,60.0129468161,PLT_learning_02,B,2014_Feb_24_1354,P12,
stim_fb/ques.jpg,stim_fb/posf.jpg,stim_fb/negf.jpg,stim_02/e.jpg,stim_02/f.jpg,2,3,j,1,9,69,56,j,1,0.749791637657,02,02,60.0129468161,PLT_learning_02,B,2014_Feb_24_1354,P12,
stim_fb/ques.jpg,stim_fb/negf.jpg,stim_fb/posf.jpg,stim_02/e.jpg,stim_02/f.jpg,2,3,j,1,10,70,55,f,0,1.11631548635,02,02,60.0129468161,PLT_learning_02,B,2014_Feb_24_1354,P12,
stim_fb/ques.jpg,stim_fb/negf.jpg,stim_fb/posf.jpg,stim_02/c.jpg,stim_02/d.jpg,2,2,j,1,11,71,34,j,1,0.683161473974,02,02,60.0129468161,PLT_learning_02,B,2014_Feb_24_1354,P12,
stim_fb/ques.jpg,stim_fb/negf.jpg,stim_fb/posf.jpg,stim_02/f.jpg,stim_02/e.jpg,1,3,f,1,12,72,42,f,1,0.866438691438,02,02,60.0129468161,PLT_learning_02,B,2014_Feb_24_1354,P12,
stim_fb/ques.jpg,stim_fb/negf.jpg,stim_fb/posf.jpg,stim_02/f.jpg,stim_02/e.jpg,1,3,f,1,13,73,40,f,1,0.683146604913,02,02,60.0129468161,PLT_learning_02,B,2014_Feb_24_1354,P12,
stim_fb/ques.jpg,stim_fb/posf.jpg,stim_fb/negf.jpg,stim_02/f.jpg,stim_02/e.jpg,1,3,f,1,14,74,47,f,1,0.666465686724,02,02,60.0129468161,PLT_learning_02,B,2014_Feb_24_1354,P12,
stim_fb/ques.jpg,stim_fb/negf.jpg,stim_fb/posf.jpg,stim_02/b.jpg,stim_02/a.jpg,1,1,f,1,15,75,1,j,0,0.733159729626,02,02,60.0129468161,PLT_learning_02,B,2014_Feb_24_1354,P12,
stim_fb/ques.jpg,stim_fb/negf.jpg,stim_fb/posf.jpg,stim_02/e.jpg,stim_02/f.jpg,2,3,j,1,16,76,52,j,1,0.783038879407,02,02,60.0129468161,PLT_learning_02,B,2014_Feb_24_1354,P12,
stim_fb/ques.jpg,stim_fb/negf.jpg,stim_fb/posf.jpg,stim_02/b.jpg,stim_02/a.jpg,1,1,f,1,17,77,5,j,0,0.583143660574,02,02,60.0129468161,PLT_learning_02,B,2014_Feb_24_1354,P12,
stim_fb/ques.jpg,stim_fb/negf.jpg,stim_fb/posf.jpg,stim_02/f.jpg,stim_02/e.jpg,1,3,f,1,18,78,44,j,0,0.666553180803,02,02,60.0129468161,PLT_learning_02,B,2014_Feb_24_1354,P12,
stim_fb/ques.jpg,stim_fb/negf.jpg,stim_fb/posf.jpg,stim_02/a.jpg,stim_02/b.jpg,2,1,j,1,19,79,11,j,1,0.616503169149,02,02,60.0129468161,PLT_learning_02,B,2014_Feb_24_1354,P12,
stim_fb/ques.jpg,stim_fb/negf.jpg,stim_fb/posf.jpg,stim_02/c.jpg,stim_02/d.jpg,2,2,j,1,20,80,32,j,1,0.583176382132,02,02,60.0129468161,PLT_learning_02,B,2014_Feb_24_1354,P12,
stim_fb/ques.jpg,stim_fb/posf.jpg,stim_fb/negf.jpg,stim_02/c.jpg,stim_02/d.jpg,2,2,j,1,21,81,37,j,1,0.583198592492,02,02,60.0129468161,PLT_learning_02,B,2014_Feb_24_1354,P12,
stim_fb/ques.jpg,stim_fb/posf.jpg,stim_fb/negf.jpg,stim_02/d.jpg,stim_02/c.jpg,1,2,f,1,22,82,28,f,1,0.666494955677,02,02,60.0129468161,PLT_learning_02,B,2014_Feb_24_1354,P12,
stim_fb/ques.jpg,stim_fb/negf.jpg,stim_fb/posf.jpg,stim_02/e.jpg,stim_02/f.jpg,2,3,j,1,23,83,50,f,0,0.683115098383,02,02,60.0129468161,PLT_learning_02,B,2014_Feb_24_1354,P12,
stim_fb/ques.jpg,stim_fb/posf.jpg,stim_fb/negf.jpg,stim_02/f.jpg,stim_02/e.jpg,1,3,f,1,24,84,48,f,1,0.999713551026,02,02,60.0129468161,PLT_learning_02,B,2014_Feb_24_1354,P12,
stim_fb/ques.jpg,stim_fb/posf.jpg,stim_fb/negf.jpg,stim_02/e.jpg,stim_02/f.jpg,2,3,j,1,25,85,57,j,1,1.049723169,02,02,60.0129468161,PLT_learning_02,B,2014_Feb_24_1354,P12,
stim_fb/ques.jpg,stim_fb/negf.jpg,stim_fb/posf.jpg,stim_02/b.jpg,stim_02/a.jpg,1,1,f,1,26,86,0,f,1,1.14967678439,02,02,60.0129468161,PLT_learning_02,B,2014_Feb_24_1354,P12,
stim_fb/ques.jpg,stim_fb/negf.jpg,stim_fb/posf.jpg,stim_02/c.jpg,stim_02/d.jpg,2,2,j,1,27,87,30,j,1,0.63317030699,02,02,60.0129468161,PLT_learning_02,B,2014_Feb_24_1354,P12,
stim_fb/ques.jpg,stim_fb/posf.jpg,stim_fb/negf.jpg,stim_02/c.jpg,stim_02/d.jpg,2,2,j,1,28,88,39,j,1,0.599828043398,02,02,60.0129468161,PLT_learning_02,B,2014_Feb_24_1354,P12,
stim_fb/ques.jpg,stim_fb/negf.jpg,stim_fb/posf.jpg,stim_02/b.jpg,stim_02/a.jpg,1,1,f,1,29,89,4,j,0,0.816466474688,02,02,60.0129468161,PLT_learning_02,B,2014_Feb_24_1354,P12,
stim_fb/ques.jpg,stim_fb/negf.jpg,stim_fb/posf.jpg,stim_02/d.jpg,stim_02/c.jpg,1,2,f,1,30,90,23,f,1,0.633189200081,02,02,60.0129468161,PLT_learning_02,B,2014_Feb_24_1354,P12,
stim_fb/ques.jpg,stim_fb/negf.jpg,stim_fb/posf.jpg,stim_02/d.jpg,stim_02/c.jpg,1,2,f,1,31,91,21,f,1,0.716476020481,02,02,60.0129468161,PLT_learning_02,B,2014_Feb_24_1354,P12,
stim_fb/ques.jpg,stim_fb/negf.jpg,stim_fb/posf.jpg,stim_02/a.jpg,stim_02/b.jpg,2,1,j,1,32,92,10,j,1,0.733140063609,02,02,60.0129468161,PLT_learning_02,B,2014_Feb_24_1354,P12,
stim_fb/ques.jpg,stim_fb/negf.jpg,stim_fb/posf.jpg,stim_02/a.jpg,stim_02/b.jpg,2,1,j,1,33,93,13,f,0,0.716471611492,02,02,60.0129468161,PLT_learning_02,B,2014_Feb_24_1354,P12,
stim_fb/ques.jpg,stim_fb/posf.jpg,stim_fb/negf.jpg,stim_02/d.jpg,stim_02/c.jpg,1,2,f,1,34,94,29,f,1,0.783088506101,02,02,60.0129468161,PLT_learning_02,B,2014_Feb_24_1354,P12,
stim_fb/ques.jpg,stim_fb/posf.jpg,stim_fb/negf.jpg,stim_02/a.jpg,stim_02/b.jpg,2,1,j,1,35,95,19,j,1,0.616517827685,02,02,60.0129468161,PLT_learning_02,B,2014_Feb_24_1354,P12,
stim_fb/ques.jpg,stim_fb/negf.jpg,stim_fb/posf.jpg,stim_02/f.jpg,stim_02/e.jpg,1,3,f,1,36,96,43,f,1,0.93311496906,02,02,60.0129468161,PLT_learning_02,B,2014_Feb_24_1354,P12,
stim_fb/ques.jpg,stim_fb/negf.jpg,stim_fb/posf.jpg,stim_02/a.jpg,stim_02/b.jpg,2,1,j,1,37,97,15,j,1,0.799700639845,02,02,60.0129468161,PLT_learning_02,B,2014_Feb_24_1354,P12,
stim_fb/ques.jpg,stim_fb/posf.jpg,stim_fb/negf.jpg,stim_02/e.jpg,stim_02/f.jpg,2,3,j,1,38,98,59,j,1,0.699824151698,02,02,60.0129468161,PLT_learning_02,B,2014_Feb_24_1354,P12,
stim_fb/ques.jpg,stim_fb/negf.jpg,stim_fb/posf.jpg,stim_02/b.jpg,stim_02/a.jpg,1,1,f,1,39,99,6,f,1,0.899756970249,02,02,60.0129468161,PLT_learning_02,B,2014_Feb_24_1354,P12,
stim_fb/ques.jpg,stim_fb/negf.jpg,stim_fb/posf.jpg,stim_02/b.jpg,stim_02/a.jpg,1,1,f,1,40,100,2,f,1,0.833147564304,02,02,60.0129468161,PLT_learning_02,B,2014_Feb_24_1354,P12,
stim_fb/ques.jpg,stim_fb/negf.jpg,stim_fb/posf.jpg,stim_02/c.jpg,stim_02/d.jpg,2,2,j,1,41,101,36,j,1,0.733162192765,02,02,60.0129468161,PLT_learning_02,B,2014_Feb_24_1354,P12,
stim_fb/ques.jpg,stim_fb/posf.jpg,stim_fb/negf.jpg,stim_02/f.jpg,stim_02/e.jpg,1,3,f,1,42,102,46,f,1,0.883146259051,02,02,60.0129468161,PLT_learning_02,B,2014_Feb_24_1354,P12,
stim_fb/ques.jpg,stim_fb/negf.jpg,stim_fb/posf.jpg,stim_02/e.jpg,stim_02/f.jpg,2,3,j,1,43,103,53,j,1,0.983070473154,02,02,60.0129468161,PLT_learning_02,B,2014_Feb_24_1354,P12,
stim_fb/ques.jpg,stim_fb/negf.jpg,stim_fb/posf.jpg,stim_02/d.jpg,stim_02/c.jpg,1,2,f,1,44,104,26,j,0,0.89976340629,02,02,60.0129468161,PLT_learning_02,B,2014_Feb_24_1354,P12,
stim_fb/ques.jpg,stim_fb/negf.jpg,stim_fb/posf.jpg,stim_02/f.jpg,stim_02/e.jpg,1,3,f,1,45,105,41,j,0,0.783125687777,02,02,60.0129468161,PLT_learning_02,B,2014_Feb_24_1354,P12,
stim_fb/ques.jpg,stim_fb/negf.jpg,stim_fb/posf.jpg,stim_02/d.jpg,stim_02/c.jpg,1,2,f,1,46,106,20,f,1,0.749836046346,02,02,60.0129468161,PLT_learning_02,B,2014_Feb_24_1354,P12,
stim_fb/ques.jpg,stim_fb/negf.jpg,stim_fb/posf.jpg,stim_02/c.jpg,stim_02/d.jpg,2,2,j,1,47,107,33,j,1,0.683181949008,02,02,60.0129468161,PLT_learning_02,B,2014_Feb_24_1354,P12,
stim_fb/ques.jpg,stim_fb/negf.jpg,stim_fb/posf.jpg,stim_02/b.jpg,stim_02/a.jpg,1,1,f,1,48,108,3,f,1,0.949704678912,02,02,60.0129468161,PLT_learning_02,B,2014_Feb_24_1354,P12,
stim_fb/ques.jpg,stim_fb/negf.jpg,stim_fb/posf.jpg,stim_02/c.jpg,stim_02/d.jpg,2,2,j,1,49,109,35,j,1,0.616548543244,02,02,60.0129468161,PLT_learning_02,B,2014_Feb_24_1354,P12,
stim_fb/ques.jpg,stim_fb/posf.jpg,stim_fb/negf.jpg,stim_02/f.jpg,stim_02/e.jpg,1,3,f,1,50,110,49,f,1,0.84976536417,02,02,60.0129468161,PLT_learning_02,B,2014_Feb_24_1354,P12,
stim_fb/ques.jpg,stim_fb/posf.jpg,stim_fb/negf.jpg,stim_02/b.jpg,stim_02/a.jpg,1,1,f,1,51,111,8,f,1,0.732932555394,02,02,60.0129468161,PLT_learning_02,B,2014_Feb_24_1354,P12,
stim_fb/ques.jpg,stim_fb/negf.jpg,stim_fb/posf.jpg,stim_02/d.jpg,stim_02/c.jpg,1,2,f,1,52,112,22,f,1,0.733169648349,02,02,60.0129468161,PLT_learning_02,B,2014_Feb_24_1354,P12,
stim_fb/ques.jpg,stim_fb/negf.jpg,stim_fb/posf.jpg,stim_02/a.jpg,stim_02/b.jpg,2,1,j,1,53,113,12,j,1,0.766460989015,02,02,60.0129468161,PLT_learning_02,B,2014_Feb_24_1354,P12,
stim_fb/ques.jpg,stim_fb/negf.jpg,stim_fb/posf.jpg,stim_02/b.jpg,stim_02/a.jpg,1,1,f,1,54,114,7,j,0,1.14954949512,02,02,60.0129468161,PLT_learning_02,B,2014_Feb_24_1354,P12,
stim_fb/ques.jpg,stim_fb/negf.jpg,stim_fb/posf.jpg,stim_02/e.jpg,stim_02/f.jpg,2,3,j,1,55,115,51,j,1,0.766385335449,02,02,60.0129468161,PLT_learning_02,B,2014_Feb_24_1354,P12,
stim_fb/ques.jpg,stim_fb/posf.jpg,stim_fb/negf.jpg,stim_02/a.jpg,stim_02/b.jpg,2,1,j,1,56,116,18,j,1,0.816456312358,02,02,60.0129468161,PLT_learning_02,B,2014_Feb_24_1354,P12,
stim_fb/ques.jpg,stim_fb/posf.jpg,stim_fb/negf.jpg,stim_02/d.jpg,stim_02/c.jpg,1,2,f,1,57,117,27,f,1,0.899756170254,02,02,60.0129468161,PLT_learning_02,B,2014_Feb_24_1354,P12,
stim_fb/ques.jpg,stim_fb/negf.jpg,stim_fb/posf.jpg,stim_02/a.jpg,stim_02/b.jpg,2,1,j,1,58,118,16,j,1,0.799774365606,02,02,60.0129468161,PLT_learning_02,B,2014_Feb_24_1354,P12,
stim_fb/ques.jpg,stim_fb/posf.jpg,stim_fb/negf.jpg,stim_02/c.jpg,stim_02/d.jpg,2,2,j,1,59,119,38,j,1,0.666516964534,02,02,60.0129468161,PLT_learning_02,B,2014_Feb_24_1354,P12,
stim_fb/ques.jpg,stim_fb/negf.jpg,stim_fb/posf.jpg,stim_02/a.jpg,stim_02/b.jpg,2,1,j,2,0,120,17,j,1,0.799793054188,02,02,60.0129468161,PLT_learning_02,B,2014_Feb_24_1354,P12,
stim_fb/ques.jpg,stim_fb/negf.jpg,stim_fb/posf.jpg,stim_02/b.jpg,stim_02/a.jpg,1,1,f,2,1,121,5,j,0,0.64982688852,02,02,60.0129468161,PLT_learning_02,B,2014_Feb_24_1354,P12,
stim_fb/ques.jpg,stim_fb/negf.jpg,stim_fb/posf.jpg,stim_02/b.jpg,stim_02/a.jpg,1,1,f,2,2,122,0,j,0,0.966356337171,02,02,60.0129468161,PLT_learning_02,B,2014_Feb_24_1354,P12,
stim_fb/ques.jpg,stim_fb/negf.jpg,stim_fb/posf.jpg,stim_02/f.jpg,stim_02/e.jpg,1,3,f,2,3,123,43,f,1,0.983092286524,02,02,60.0129468161,PLT_learning_02,B,2014_Feb_24_1354,P12,
stim_fb/ques.jpg,stim_fb/posf.jpg,stim_fb/negf.jpg,stim_02/d.jpg,stim_02/c.jpg,1,2,f,2,4,124,29,f,1,0.683155913113,02,02,60.0129468161,PLT_learning_02,B,2014_Feb_24_1354,P12,
stim_fb/ques.jpg,stim_fb/negf.jpg,stim_fb/posf.jpg,stim_02/f.jpg,stim_02/e.jpg,1,3,f,2,5,125,42,f,1,1.14967521146,02,02,60.0129468161,PLT_learning_02,B,2014_Feb_24_1354,P12,
stim_fb/ques.jpg,stim_fb/negf.jpg,stim_fb/posf.jpg,stim_02/d.jpg,stim_02/c.jpg,1,2,f,2,6,126,22,f,1,0.533241172623,02,02,60.0129468161,PLT_learning_02,B,2014_Feb_24_1354,P12,
stim_fb/ques.jpg,stim_fb/negf.jpg,stim_fb/posf.jpg,stim_02/c.jpg,stim_02/d.jpg,2,2,j,2,7,127,30,j,1,1.06633971775,02,02,60.0129468161,PLT_learning_02,B,2014_Feb_24_1354,P12,
stim_fb/ques.jpg,stim_fb/negf.jpg,stim_fb/posf.jpg,stim_02/f.jpg,stim_02/e.jpg,1,3,f,2,8,128,44,f,1,0.966399203013,02,02,60.0129468161,PLT_learning_02,B,2014_Feb_24_1354,P12,
stim_fb/ques.jpg,stim_fb/posf.jpg,stim_fb/negf.jpg,stim_02/c.jpg,stim_02/d.jpg,2,2,j,2,9,129,38,j,1,0.716478047533,02,02,60.0129468161,PLT_learning_02,B,2014_Feb_24_1354,P12,
stim_fb/ques.jpg,stim_fb/negf.jpg,stim_fb/posf.jpg,stim_02/b.jpg,stim_02/a.jpg,1,1,f,2,10,130,3,j,0,0.600002899226,02,02,60.0129468161,PLT_learning_02,B,2014_Feb_24_1354,P12,
stim_fb/ques.jpg,stim_fb/negf.jpg,stim_fb/posf.jpg,stim_02/e.jpg,stim_02/f.jpg,2,3,j,2,11,131,52,j,1,0.63324498312,02,02,60.0129468161,PLT_learning_02,B,2014_Feb_24_1354,P12,
stim_fb/ques.jpg,stim_fb/negf.jpg,stim_fb/posf.jpg,stim_02/c.jpg,stim_02/d.jpg,2,2,j,2,12,132,32,j,1,0.633190207592,02,02,60.0129468161,PLT_learning_02,B,2014_Feb_24_1354,P12,
stim_fb/ques.jpg,stim_fb/posf.jpg,stim_fb/negf.jpg,stim_02/b.jpg,stim_02/a.jpg,1,1,f,2,13,133,9,f,1,0.883093994782,02,02,60.0129468161,PLT_learning_02,B,2014_Feb_24_1354,P12,
stim_fb/ques.jpg,stim_fb/negf.jpg,stim_fb/posf.jpg,stim_02/e.jpg,stim_02/f.jpg,2,3,j,2,14,134,54,j,1,0.866434541094,02,02,60.0129468161,PLT_learning_02,B,2014_Feb_24_1354,P12,
stim_fb/ques.jpg,stim_fb/negf.jpg,stim_fb/posf.jpg,stim_02/e.jpg,stim_02/f.jpg,2,3,j,2,15,135,53,f,0,0.833102833813,02,02,60.0129468161,PLT_learning_02,B,2014_Feb_24_1354,P12,
stim_fb/ques.jpg,stim_fb/posf.jpg,stim_fb/negf.jpg,stim_02/e.jpg,stim_02/f.jpg,2,3,j,2,16,136,58,f,0,0.883110966083,02,02,60.0129468161,PLT_learning_02,B,2014_Feb_24_1354,P12,
stim_fb/ques.jpg,stim_fb/posf.jpg,stim_fb/negf.jpg,stim_02/c.jpg,stim_02/d.jpg,2,2,j,2,17,137,37,j,1,0.649847868813,02,02,60.0129468161,PLT_learning_02,B,2014_Feb_24_1354,P12,
stim_fb/ques.jpg,stim_fb/negf.jpg,stim_fb/posf.jpg,stim_02/e.jpg,stim_02/f.jpg,2,3,j,2,18,138,51,f,0,0.749776606191,02,02,60.0129468161,PLT_learning_02,B,2014_Feb_24_1354,P12,
stim_fb/ques.jpg,stim_fb/negf.jpg,stim_fb/posf.jpg,stim_02/d.jpg,stim_02/c.jpg,1,2,f,2,19,139,23,f,1,0.616509809701,02,02,60.0129468161,PLT_learning_02,B,2014_Feb_24_1354,P12,
stim_fb/ques.jpg,stim_fb/negf.jpg,stim_fb/posf.jpg,stim_02/a.jpg,stim_02/b.jpg,2,1,j,2,20,140,13,j,1,0.949737108743,02,02,60.0129468161,PLT_learning_02,B,2014_Feb_24_1354,P12,
stim_fb/ques.jpg,stim_fb/posf.jpg,stim_fb/negf.jpg,stim_02/a.jpg,stim_02/b.jpg,2,1,j,2,21,141,18,f,0,1.14967795731,02,02,60.0129468161,PLT_learning_02,B,2014_Feb_24_1354,P12,
stim_fb/ques.jpg,stim_fb/negf.jpg,stim_fb/posf.jpg,stim_02/f.jpg,stim_02/e.jpg,1,3,f,2,22,142,45,f,1,1.08302798024,02,02,60.0129468161,PLT_learning_02,B,2014_Feb_24_1354,P12,
stim_fb/ques.jpg,stim_fb/posf.jpg,stim_fb/negf.jpg,stim_02/c.jpg,stim_02/d.jpg,2,2,j,2,23,143,39,j,1,0.749791592544,02,02,60.0129468161,PLT_learning_02,B,2014_Feb_24_1354,P12,
stim_fb/ques.jpg,stim_fb/posf.jpg,stim_fb/negf.jpg,stim_02/d.jpg,stim_02/c.jpg,1,2,f,2,24,144,27,f,1,1.0163913324,02,02,60.0129468161,PLT_learning_02,B,2014_Feb_24_1354,P12,
stim_fb/ques.jpg,stim_fb/negf.jpg,stim_fb/posf.jpg,stim_02/a.jpg,stim_02/b.jpg,2,1,j,2,25,145,14,j,1,0.899739577898,02,02,60.0129468161,PLT_learning_02,B,2014_Feb_24_1354,P12,
stim_fb/ques.jpg,stim_fb/negf.jpg,stim_fb/posf.jpg,stim_02/a.jpg,stim_02/b.jpg,2,1,j,2,26,146,11,f,0,0.866413214938,02,02,60.0129468161,PLT_learning_02,B,2014_Feb_24_1354,P12,
stim_fb/ques.jpg,stim_fb/posf.jpg,stim_fb/negf.jpg,stim_02/f.jpg,stim_02/e.jpg,1,3,f,2,27,147,47,f,1,0.649837396712,02,02,60.0129468161,PLT_learning_02,B,2014_Feb_24_1354,P12,
stim_fb/ques.jpg,stim_fb/negf.jpg,stim_fb/posf.jpg,stim_02/c.jpg,stim_02/d.jpg,2,2,j,2,28,148,34,j,1,0.783127423102,02,02,60.0129468161,PLT_learning_02,B,2014_Feb_24_1354,P12,
stim_fb/ques.jpg,stim_fb/negf.jpg,stim_fb/posf.jpg,stim_02/a.jpg,stim_02/b.jpg,2,1,j,2,29,149,10,j,1,0.833092969226,02,02,60.0129468161,PLT_learning_02,B,2014_Feb_24_1354,P12,
stim_fb/ques.jpg,stim_fb/negf.jpg,stim_fb/posf.jpg,stim_02/f.jpg,stim_02/e.jpg,1,3,f,2,30,150,41,f,1,1.09969359027,02,02,60.0129468161,PLT_learning_02,B,2014_Feb_24_1354,P12,
stim_fb/ques.jpg,stim_fb/negf.jpg,stim_fb/posf.jpg,stim_02/e.jpg,stim_02/f.jpg,2,3,j,2,31,151,55,f,0,0.916403061631,02,02,60.0129468161,PLT_learning_02,B,2014_Feb_24_1354,P12,
stim_fb/ques.jpg,stim_fb/negf.jpg,stim_fb/posf.jpg,stim_02/b.jpg,stim_02/a.jpg,1,1,f,2,32,152,1,f,1,0.749801682694,02,02,60.0129468161,PLT_learning_02,B,2014_Feb_24_1354,P12,
stim_fb/ques.jpg,stim_fb/negf.jpg,stim_fb/posf.jpg,stim_02/c.jpg,stim_02/d.jpg,2,2,j,2,33,153,36,j,1,0.966393960948,02,02,60.0129468161,PLT_learning_02,B,2014_Feb_24_1354,P12,
stim_fb/ques.jpg,stim_fb/negf.jpg,stim_fb/posf.jpg,stim_02/f.jpg,stim_02/e.jpg,1,3,f,2,34,154,40,j,0,0.966409145796,02,02,60.0129468161,PLT_learning_02,B,2014_Feb_24_1354,P12,
stim_fb/ques.jpg,stim_fb/negf.jpg,stim_fb/posf.jpg,stim_02/c.jpg,stim_02/d.jpg,2,2,j,2,35,155,31,j,1,0.799752603364,02,02,60.0129468161,PLT_learning_02,B,2014_Feb_24_1354,P12,
stim_fb/ques.jpg,stim_fb/posf.jpg,stim_fb/negf.jpg,stim_02/f.jpg,stim_02/e.jpg,1,3,f,2,36,156,48,f,1,0.833126547921,02,02,60.0129468161,PLT_learning_02,B,2014_Feb_24_1354,P12,
stim_fb/ques.jpg,stim_fb/negf.jpg,stim_fb/posf.jpg,stim_02/a.jpg,stim_02/b.jpg,2,1,j,2,37,157,16,f,0,0.666518173548,02,02,60.0129468161,PLT_learning_02,B,2014_Feb_24_1354,P12,
stim_fb/ques.jpg,stim_fb/posf.jpg,stim_fb/negf.jpg,stim_02/e.jpg,stim_02/f.jpg,2,3,j,2,38,158,57,f,0,0.999713319449,02,02,60.0129468161,PLT_learning_02,B,2014_Feb_24_1354,P12,
stim_fb/ques.jpg,stim_fb/negf.jpg,stim_fb/posf.jpg,stim_02/e.jpg,stim_02/f.jpg,2,3,j,2,39,159,50,j,1,0.749793523357,02,02,60.0129468161,PLT_learning_02,B,2014_Feb_24_1354,P12,
stim_fb/ques.jpg,stim_fb/posf.jpg,stim_fb/negf.jpg,stim_02/e.jpg,stim_02/f.jpg,2,3,j,2,40,160,59,j,1,0.933009234517,02,02,60.0129468161,PLT_learning_02,B,2014_Feb_24_1354,P12,
stim_fb/ques.jpg,stim_fb/negf.jpg,stim_fb/posf.jpg,stim_02/b.jpg,stim_02/a.jpg,1,1,f,2,41,161,2,f,1,0.916384929437,02,02,60.0129468161,PLT_learning_02,B,2014_Feb_24_1354,P12,
stim_fb/ques.jpg,stim_fb/posf.jpg,stim_fb/negf.jpg,stim_02/f.jpg,stim_02/e.jpg,1,3,f,2,42,162,49,f,1,0.699800455636,02,02,60.0129468161,PLT_learning_02,B,2014_Feb_24_1354,P12,
stim_fb/ques.jpg,stim_fb/negf.jpg,stim_fb/posf.jpg,stim_02/d.jpg,stim_02/c.jpg,1,2,f,2,43,163,26,f,1,0.616531108789,02,02,60.0129468161,PLT_learning_02,B,2014_Feb_24_1354,P12,
stim_fb/ques.jpg,stim_fb/posf.jpg,stim_fb/negf.jpg,stim_02/b.jpg,stim_02/a.jpg,1,1,f,2,44,164,8,f,1,0.749802202991,02,02,60.0129468161,PLT_learning_02,B,2014_Feb_24_1354,P12,
stim_fb/ques.jpg,stim_fb/negf.jpg,stim_fb/posf.jpg,stim_02/a.jpg,stim_02/b.jpg,2,1,j,2,45,165,12,f,0,0.98301290667,02,02,60.0129468161,PLT_learning_02,B,2014_Feb_24_1354,P12,
stim_fb/ques.jpg,stim_fb/negf.jpg,stim_fb/posf.jpg,stim_02/b.jpg,stim_02/a.jpg,1,1,f,2,46,166,4,f,1,0.499833417794,02,02,60.0129468161,PLT_learning_02,B,2014_Feb_24_1354,P12,
stim_fb/ques.jpg,stim_fb/negf.jpg,stim_fb/posf.jpg,stim_02/d.jpg,stim_02/c.jpg,1,2,f,2,47,167,24,f,1,0.616480233983,02,02,60.0129468161,PLT_learning_02,B,2014_Feb_24_1354,P12,
stim_fb/ques.jpg,stim_fb/negf.jpg,stim_fb/posf.jpg,stim_02/d.jpg,stim_02/c.jpg,1,2,f,2,48,168,21,j,0,0.766435166653,02,02,60.0129468161,PLT_learning_02,B,2014_Feb_24_1354,P12,
stim_fb/ques.jpg,stim_fb/posf.jpg,stim_fb/negf.jpg,stim_02/e.jpg,stim_02/f.jpg,2,3,j,2,49,169,56,f,0,0.866390619619,02,02,60.0129468161,PLT_learning_02,B,2014_Feb_24_1354,P12,
stim_fb/ques.jpg,stim_fb/negf.jpg,stim_fb/posf.jpg,stim_02/d.jpg,stim_02/c.jpg,1,2,f,2,50,170,20,f,1,0.599855414621,02,02,60.0129468161,PLT_learning_02,B,2014_Feb_24_1354,P12,
stim_fb/ques.jpg,stim_fb/posf.jpg,stim_fb/negf.jpg,stim_02/d.jpg,stim_02/c.jpg,1,2,f,2,51,171,28,j,0,1.13298866324,02,02,60.0129468161,PLT_learning_02,B,2014_Feb_24_1354,P12,
stim_fb/ques.jpg,stim_fb/posf.jpg,stim_fb/negf.jpg,stim_02/a.jpg,stim_02/b.jpg,2,1,j,2,52,172,19,j,1,0.949708026255,02,02,60.0129468161,PLT_learning_02,B,2014_Feb_24_1354,P12,
stim_fb/ques.jpg,stim_fb/negf.jpg,stim_fb/posf.jpg,stim_02/b.jpg,stim_02/a.jpg,1,1,f,2,53,173,6,f,1,0.849752522161,02,02,60.0129468161,PLT_learning_02,B,2014_Feb_24_1354,P12,
stim_fb/ques.jpg,stim_fb/negf.jpg,stim_fb/posf.jpg,stim_02/d.jpg,stim_02/c.jpg,1,2,f,2,54,174,25,f,1,0.88308188961,02,02,60.0129468161,PLT_learning_02,B,2014_Feb_24_1354,P12,
stim_fb/ques.jpg,stim_fb/negf.jpg,stim_fb/posf.jpg,stim_02/b.jpg,stim_02/a.jpg,1,1,f,2,55,175,7,f,1,0.849779234743,02,02,60.0129468161,PLT_learning_02,B,2014_Feb_24_1354,P12,
stim_fb/ques.jpg,stim_fb/negf.jpg,stim_fb/posf.jpg,stim_02/c.jpg,stim_02/d.jpg,2,2,j,2,56,176,33,j,1,1.04969607747,02,02,60.0129468161,PLT_learning_02,B,2014_Feb_24_1354,P12,
stim_fb/ques.jpg,stim_fb/posf.jpg,stim_fb/negf.jpg,stim_02/f.jpg,stim_02/e.jpg,1,3,f,2,57,177,46,f,1,0.749809023992,02,02,60.0129468161,PLT_learning_02,B,2014_Feb_24_1354,P12,
stim_fb/ques.jpg,stim_fb/negf.jpg,stim_fb/posf.jpg,stim_02/c.jpg,stim_02/d.jpg,2,2,j,2,58,178,35,f,0,1.03301149014,02,02,60.0129468161,PLT_learning_02,B,2014_Feb_24_1354,P12,
stim_fb/ques.jpg,stim_fb/negf.jpg,stim_fb/posf.jpg,stim_02/a.jpg,stim_02/b.jpg,2,1,j,2,59,179,15,f,0,1.14968088962,02,02,60.0129468161,PLT_learning_02,B,2014_Feb_24_1354,P12,
stim_fb/ques.jpg,stim_fb/negf.jpg,stim_fb/posf.jpg,stim_02/e.jpg,stim_02/f.jpg,2,3,j,3,0,180,54,j,1,0.616518209638,02,02,60.0129468161,PLT_learning_02,B,2014_Feb_24_1354,P12,
stim_fb/ques.jpg,stim_fb/negf.jpg,stim_fb/posf.jpg,stim_02/a.jpg,stim_02/b.jpg,2,1,j,3,1,181,12,j,1,0.983061721341,02,02,60.0129468161,PLT_learning_02,B,2014_Feb_24_1354,P12,
stim_fb/ques.jpg,stim_fb/negf.jpg,stim_fb/posf.jpg,stim_02/d.jpg,stim_02/c.jpg,1,2,f,3,2,182,22,f,1,0.833102686446,02,02,60.0129468161,PLT_learning_02,B,2014_Feb_24_1354,P12,
stim_fb/ques.jpg,stim_fb/negf.jpg,stim_fb/posf.jpg,stim_02/b.jpg,stim_02/a.jpg,1,1,f,3,3,183,7,j,0,0.549876554312,02,02,60.0129468161,PLT_learning_02,B,2014_Feb_24_1354,P12,
stim_fb/ques.jpg,stim_fb/negf.jpg,stim_fb/posf.jpg,stim_02/d.jpg,stim_02/c.jpg,1,2,f,3,4,184,24,f,1,0.633189227149,02,02,60.0129468161,PLT_learning_02,B,2014_Feb_24_1354,P12,
stim_fb/ques.jpg,stim_fb/posf.jpg,stim_fb/negf.jpg,stim_02/e.jpg,stim_02/f.jpg,2,3,j,3,5,185,58,j,1,1.08298666627,02,02,60.0129468161,PLT_learning_02,B,2014_Feb_24_1354,P12,
stim_fb/ques.jpg,stim_fb/negf.jpg,stim_fb/posf.jpg,stim_02/c.jpg,stim_02/d.jpg,2,2,j,3,6,186,34,j,1,0.683156752205,02,02,60.0129468161,PLT_learning_02,B,2014_Feb_24_1354,P12,
stim_fb/ques.jpg,stim_fb/negf.jpg,stim_fb/posf.jpg,stim_02/a.jpg,stim_02/b.jpg,2,1,j,3,7,187,15,j,1,0.766471094202,02,02,60.0129468161,PLT_learning_02,B,2014_Feb_24_1354,P12,
stim_fb/ques.jpg,stim_fb/negf.jpg,stim_fb/posf.jpg,stim_02/a.jpg,stim_02/b.jpg,2,1,j,3,8,188,10,j,1,0.749805442064,02,02,60.0129468161,PLT_learning_02,B,2014_Feb_24_1354,P12,
stim_fb/ques.jpg,stim_fb/negf.jpg,stim_fb/posf.jpg,stim_02/f.jpg,stim_02/e.jpg,1,3,f,3,9,189,40,j,0,0.949685845971,02,02,60.0129468161,PLT_learning_02,B,2014_Feb_24_1354,P12,
stim_fb/ques.jpg,stim_fb/negf.jpg,stim_fb/posf.jpg,stim_02/f.jpg,stim_02/e.jpg,1,3,f,3,10,190,42,j,0,0.866384427185,02,02,60.0129468161,PLT_learning_02,B,2014_Feb_24_1354,P12,
stim_fb/ques.jpg,stim_fb/posf.jpg,stim_fb/negf.jpg,stim_02/f.jpg,stim_02/e.jpg,1,3,f,3,11,191,49,j,0,0.966380318945,02,02,60.0129468161,PLT_learning_02,B,2014_Feb_24_1354,P12,
stim_fb/ques.jpg,stim_fb/posf.jpg,stim_fb/negf.jpg,stim_02/e.jpg,stim_02/f.jpg,2,3,j,3,12,192,56,f,0,1.34961647807,02,02,60.0129468161,PLT_learning_02,B,2014_Feb_24_1354,P12,
stim_fb/ques.jpg,stim_fb/posf.jpg,stim_fb/negf.jpg,stim_02/d.jpg,stim_02/c.jpg,1,2,f,3,13,193,27,f,1,0.766459572485,02,02,60.0129468161,PLT_learning_02,B,2014_Feb_24_1354,P12,
stim_fb/ques.jpg,stim_fb/posf.jpg,stim_fb/negf.jpg,stim_02/e.jpg,stim_02/f.jpg,2,3,j,3,14,194,57,f,0,1.21636723333,02,02,60.0129468161,PLT_learning_02,B,2014_Feb_24_1354,P12,
stim_fb/ques.jpg,stim_fb/negf.jpg,stim_fb/posf.jpg,stim_02/a.jpg,stim_02/b.jpg,2,1,j,3,15,195,14,j,1,0.749798073698,02,02,60.0129468161,PLT_learning_02,B,2014_Feb_24_1354,P12,
stim_fb/ques.jpg,stim_fb/negf.jpg,stim_fb/posf.jpg,stim_02/f.jpg,stim_02/e.jpg,1,3,f,3,16,196,43,f,1,0.799755668002,02,02,60.0129468161,PLT_learning_02,B,2014_Feb_24_1354,P12,
stim_fb/ques.jpg,stim_fb/negf.jpg,stim_fb/posf.jpg,stim_02/d.jpg,stim_02/c.jpg,1,2,f,3,17,197,21,f,1,0.916418318659,02,02,60.0129468161,PLT_learning_02,B,2014_Feb_24_1354,P12,
stim_fb/ques.jpg,stim_fb/negf.jpg,stim_fb/posf.jpg,stim_02/d.jpg,stim_02/c.jpg,1,2,f,3,18,198,25,j,0,1.16631204577,02,02,60.0129468161,PLT_learning_02,B,2014_Feb_24_1354,P12,
stim_fb/ques.jpg,stim_fb/negf.jpg,stim_fb/posf.jpg,stim_02/c.jpg,stim_02/d.jpg,2,2,j,3,19,199,36,j,1,0.733157164232,02,02,60.0129468161,PLT_learning_02,B,2014_Feb_24_1354,P12,
stim_fb/ques.jpg,stim_fb/posf.jpg,stim_fb/negf.jpg,stim_02/a.jpg,stim_02/b.jpg,2,1,j,3,20,200,18,j,1,0.599878569334,02,02,60.0129468161,PLT_learning_02,B,2014_Feb_24_1354,P12,
stim_fb/ques.jpg,stim_fb/negf.jpg,stim_fb/posf.jpg,stim_02/d.jpg,stim_02/c.jpg,1,2,f,3,21,201,23,f,1,0.93305748077,02,02,60.0129468161,PLT_learning_02,B,2014_Feb_24_1354,P12,
stim_fb/ques.jpg,stim_fb/negf.jpg,stim_fb/posf.jpg,stim_02/c.jpg,stim_02/d.jpg,2,2,j,3,22,202,30,j,1,0.833118508883,02,02,60.0129468161,PLT_learning_02,B,2014_Feb_24_1354,P12,
stim_fb/ques.jpg,stim_fb/posf.jpg,stim_fb/negf.jpg,stim_02/f.jpg,stim_02/e.jpg,1,3,f,3,23,203,46,j,0,0.949730383982,02,02,60.0129468161,PLT_learning_02,B,2014_Feb_24_1354,P12,
stim_fb/ques.jpg,stim_fb/negf.jpg,stim_fb/posf.jpg,stim_02/e.jpg,stim_02/f.jpg,2,3,j,3,24,204,51,f,0,0.999741349313,02,02,60.0129468161,PLT_learning_02,B,2014_Feb_24_1354,P12,
stim_fb/ques.jpg,stim_fb/negf.jpg,stim_fb/posf.jpg,stim_02/d.jpg,stim_02/c.jpg,1,2,f,3,25,205,26,f,1,0.616466318299,02,02,60.0129468161,PLT_learning_02,B,2014_Feb_24_1354,P12,
stim_fb/ques.jpg,stim_fb/negf.jpg,stim_fb/posf.jpg,stim_02/a.jpg,stim_02/b.jpg,2,1,j,3,26,206,11,j,1,0.816566910023,02,02,60.0129468161,PLT_learning_02,B,2014_Feb_24_1354,P12,
stim_fb/ques.jpg,stim_fb/negf.jpg,stim_fb/posf.jpg,stim_02/b.jpg,stim_02/a.jpg,1,1,f,3,27,207,2,f,1,0.699788209111,02,02,60.0129468161,PLT_learning_02,B,2014_Feb_24_1354,P12,
stim_fb/ques.jpg,stim_fb/negf.jpg,stim_fb/posf.jpg,stim_02/f.jpg,stim_02/e.jpg,1,3,f,3,28,208,44,j,0,0.983038022271,02,02,60.0129468161,PLT_learning_02,B,2014_Feb_24_1354,P12,
stim_fb/ques.jpg,stim_fb/posf.jpg,stim_fb/negf.jpg,stim_02/b.jpg,stim_02/a.jpg,1,1,f,3,29,209,9,j,0,0.566511719461,02,02,60.0129468161,PLT_learning_02,B,2014_Feb_24_1354,P12,
stim_fb/ques.jpg,stim_fb/negf.jpg,stim_fb/posf.jpg,stim_02/e.jpg,stim_02/f.jpg,2,3,j,3,30,210,53,j,1,0.716494161698,02,02,60.0129468161,PLT_learning_02,B,2014_Feb_24_1354,P12,
stim_fb/ques.jpg,stim_fb/posf.jpg,stim_fb/negf.jpg,stim_02/a.jpg,stim_02/b.jpg,2,1,j,3,31,211,19,j,1,0.649798257156,02,02,60.0129468161,PLT_learning_02,B,2014_Feb_24_1354,P12,
stim_fb/ques.jpg,stim_fb/negf.jpg,stim_fb/posf.jpg,stim_02/b.jpg,stim_02/a.jpg,1,1,f,3,32,212,6,f,1,0.916408796927,02,02,60.0129468161,PLT_learning_02,B,2014_Feb_24_1354,P12,
stim_fb/ques.jpg,stim_fb/negf.jpg,stim_fb/posf.jpg,stim_02/b.jpg,stim_02/a.jpg,1,1,f,3,33,213,1,f,1,1.19966589123,02,02,60.0129468161,PLT_learning_02,B,2014_Feb_24_1354,P12,
stim_fb/ques.jpg,stim_fb/negf.jpg,stim_fb/posf.jpg,stim_02/b.jpg,stim_02/a.jpg,1,1,f,3,34,214,5,j,0,0.816409112713,02,02,60.0129468161,PLT_learning_02,B,2014_Feb_24_1354,P12,
stim_fb/ques.jpg,stim_fb/negf.jpg,stim_fb/posf.jpg,stim_02/e.jpg,stim_02/f.jpg,2,3,j,3,35,215,52,j,1,0.949720892324,02,02,60.0129468161,PLT_learning_02,B,2014_Feb_24_1354,P12,
stim_fb/ques.jpg,stim_fb/posf.jpg,stim_fb/negf.jpg,stim_02/c.jpg,stim_02/d.jpg,2,2,j,3,36,216,37,j,1,0.583198009037,02,02,60.0129468161,PLT_learning_02,B,2014_Feb_24_1354,P12,
stim_fb/ques.jpg,stim_fb/negf.jpg,stim_fb/posf.jpg,stim_02/b.jpg,stim_02/a.jpg,1,1,f,3,37,217,4,f,1,1.01634550417,02,02,60.0129468161,PLT_learning_02,B,2014_Feb_24_1354,P12,
stim_fb/ques.jpg,stim_fb/negf.jpg,stim_fb/posf.jpg,stim_02/a.jpg,stim_02/b.jpg,2,1,j,3,38,218,16,j,1,0.866453238697,02,02,60.0129468161,PLT_learning_02,B,2014_Feb_24_1354,P12,
stim_fb/ques.jpg,stim_fb/negf.jpg,stim_fb/posf.jpg,stim_02/f.jpg,stim_02/e.jpg,1,3,f,3,39,219,45,j,0,0.633175155074,02,02,60.0129468161,PLT_learning_02,B,2014_Feb_24_1354,P12,
stim_fb/ques.jpg,stim_fb/negf.jpg,stim_fb/posf.jpg,stim_02/f.jpg,stim_02/e.jpg,1,3,f,3,40,220,41,j,0,0.649838870384,02,02,60.0129468161,PLT_learning_02,B,2014_Feb_24_1354,P12,
stim_fb/ques.jpg,stim_fb/negf.jpg,stim_fb/posf.jpg,stim_02/a.jpg,stim_02/b.jpg,2,1,j,3,41,221,17,j,1,0.866430748641,02,02,60.0129468161,PLT_learning_02,B,2014_Feb_24_1354,P12,
stim_fb/ques.jpg,stim_fb/negf.jpg,stim_fb/posf.jpg,stim_02/d.jpg,stim_02/c.jpg,1,2,f,3,42,222,20,f,1,0.64979500906,02,02,60.0129468161,PLT_learning_02,B,2014_Feb_24_1354,P12,
stim_fb/ques.jpg,stim_fb/negf.jpg,stim_fb/posf.jpg,stim_02/e.jpg,stim_02/f.jpg,2,3,j,3,43,223,50,j,1,0.633207169871,02,02,60.0129468161,PLT_learning_02,B,2014_Feb_24_1354,P12,
stim_fb/ques.jpg,stim_fb/negf.jpg,stim_fb/posf.jpg,stim_02/c.jpg,stim_02/d.jpg,2,2,j,3,44,224,31,j,1,0.616505322516,02,02,60.0129468161,PLT_learning_02,B,2014_Feb_24_1354,P12,
stim_fb/ques.jpg,stim_fb/negf.jpg,stim_fb/posf.jpg,stim_02/e.jpg,stim_02/f.jpg,2,3,j,3,45,225,55,j,1,0.616505346577,02,02,60.0129468161,PLT_learning_02,B,2014_Feb_24_1354,P12,
stim_fb/ques.jpg,stim_fb/posf.jpg,stim_fb/negf.jpg,stim_02/b.jpg,stim_02/a.jpg,1,1,f,3,46,226,8,f,1,0.666548233472,02,02,60.0129468161,PLT_learning_02,B,2014_Feb_24_1354,P12,
stim_fb/ques.jpg,stim_fb/negf.jpg,stim_fb/posf.jpg,stim_02/b.jpg,stim_02/a.jpg,1,1,f,3,47,227,3,f,1,0.433239716995,02,02,60.0129468161,PLT_learning_02,B,2014_Feb_24_1354,P12,
stim_fb/ques.jpg,stim_fb/negf.jpg,stim_fb/posf.jpg,stim_02/c.jpg,stim_02/d.jpg,2,2,j,3,48,228,35,j,1,0.483237341073,02,02,60.0129468161,PLT_learning_02,B,2014_Feb_24_1354,P12,
stim_fb/ques.jpg,stim_fb/negf.jpg,stim_fb/posf.jpg,stim_02/c.jpg,stim_02/d.jpg,2,2,j,3,49,229,33,j,1,0.383192923362,02,02,60.0129468161,PLT_learning_02,B,2014_Feb_24_1354,P12,
stim_fb/ques.jpg,stim_fb/posf.jpg,stim_fb/negf.jpg,stim_02/c.jpg,stim_02/d.jpg,2,2,j,3,50,230,39,f,0,0.41658550838,02,02,60.0129468161,PLT_learning_02,B,2014_Feb_24_1354,P12,
stim_fb/ques.jpg,stim_fb/negf.jpg,stim_fb/posf.jpg,stim_02/c.jpg,stim_02/d.jpg,2,2,j,3,51,231,32,j,1,0.599819126172,02,02,60.0129468161,PLT_learning_02,B,2014_Feb_24_1354,P12,
stim_fb/ques.jpg,stim_fb/posf.jpg,stim_fb/negf.jpg,stim_02/f.jpg,stim_02/e.jpg,1,3,f,3,52,232,47,j,0,0.416564922068,02,02,60.0129468161,PLT_learning_02,B,2014_Feb_24_1354,P12,
stim_fb/ques.jpg,stim_fb/negf.jpg,stim_fb/posf.jpg,stim_02/b.jpg,stim_02/a.jpg,1,1,f,3,53,233,0,f,1,0.516540795934,02,02,60.0129468161,PLT_learning_02,B,2014_Feb_24_1354,P12,
stim_fb/ques.jpg,stim_fb/posf.jpg,stim_fb/negf.jpg,stim_02/f.jpg,stim_02/e.jpg,1,3,f,3,54,234,48,f,1,0.433238712491,02,02,60.0129468161,PLT_learning_02,B,2014_Feb_24_1354,P12,
stim_fb/ques.jpg,stim_fb/posf.jpg,stim_fb/negf.jpg,stim_02/e.jpg,stim_02/f.jpg,2,3,j,3,55,235,59,f,0,0.649847640243,02,02,60.0129468161,PLT_learning_02,B,2014_Feb_24_1354,P12,
stim_fb/ques.jpg,stim_fb/negf.jpg,stim_fb/posf.jpg,stim_02/a.jpg,stim_02/b.jpg,2,1,j,3,56,236,13,f,0,0.499987726408,02,02,60.0129468161,PLT_learning_02,B,2014_Feb_24_1354,P12,
stim_fb/ques.jpg,stim_fb/posf.jpg,stim_fb/negf.jpg,stim_02/d.jpg,stim_02/c.jpg,1,2,f,3,57,237,29,f,1,0.53321792167,02,02,60.0129468161,PLT_learning_02,B,2014_Feb_24_1354,P12,
stim_fb/ques.jpg,stim_fb/posf.jpg,stim_fb/negf.jpg,stim_02/d.jpg,stim_02/c.jpg,1,2,f,3,58,238,28,f,1,0.749810966835,02,02,60.0129468161,PLT_learning_02,B,2014_Feb_24_1354,P12,
stim_fb/ques.jpg,stim_fb/posf.jpg,stim_fb/negf.jpg,stim_02/c.jpg,stim_02/d.jpg,2,2,j,3,59,239,38,f,0,1.066347844,02,02,60.0129468161,PLT_learning_02,B,2014_Feb_24_1354,P12,
stim_fb/ques.jpg,stim_fb/negf.jpg,stim_fb/posf.jpg,stim_02/c.jpg,stim_02/d.jpg,2,2,j,4,0,240,32,j,1,0.583174529515,02,02,60.0129468161,PLT_learning_02,B,2014_Feb_24_1354,P12,
stim_fb/ques.jpg,stim_fb/negf.jpg,stim_fb/posf.jpg,stim_02/b.jpg,stim_02/a.jpg,1,1,f,4,1,241,6,j,0,0.683174099443,02,02,60.0129468161,PLT_learning_02,B,2014_Feb_24_1354,P12,
stim_fb/ques.jpg,stim_fb/posf.jpg,stim_fb/negf.jpg,stim_02/f.jpg,stim_02/e.jpg,1,3,f,4,2,242,47,j,0,0.699802702236,02,02,60.0129468161,PLT_learning_02,B,2014_Feb_24_1354,P12,
stim_fb/ques.jpg,stim_fb/negf.jpg,stim_fb/posf.jpg,stim_02/c.jpg,stim_02/d.jpg,2,2,j,4,3,243,33,j,1,0.966274599439,02,02,60.0129468161,PLT_learning_02,B,2014_Feb_24_1354,P12,
stim_fb/ques.jpg,stim_fb/negf.jpg,stim_fb/posf.jpg,stim_02/b.jpg,stim_02/a.jpg,1,1,f,4,4,244,7,f,1,0.749807502199,02,02,60.0129468161,PLT_learning_02,B,2014_Feb_24_1354,P12,
stim_fb/ques.jpg,stim_fb/posf.jpg,stim_fb/negf.jpg,stim_02/e.jpg,stim_02/f.jpg,2,3,j,4,5,245,57,f,0,0.999734600492,02,02,60.0129468161,PLT_learning_02,B,2014_Feb_24_1354,P12,
stim_fb/ques.jpg,stim_fb/negf.jpg,stim_fb/posf.jpg,stim_02/b.jpg,stim_02/a.jpg,1,1,f,4,6,246,1,f,1,0.81644503124,02,02,60.0129468161,PLT_learning_02,B,2014_Feb_24_1354,P12,
stim_fb/ques.jpg,stim_fb/negf.jpg,stim_fb/posf.jpg,stim_02/f.jpg,stim_02/e.jpg,1,3,f,4,7,247,41,j,0,0.633163464936,02,02,60.0129468161,PLT_learning_02,B,2014_Feb_24_1354,P12,
stim_fb/ques.jpg,stim_fb/posf.jpg,stim_fb/negf.jpg,stim_02/b.jpg,stim_02/a.jpg,1,1,f,4,8,248,8,f,1,0.683147732724,02,02,60.0129468161,PLT_learning_02,B,2014_Feb_24_1354,P12,
stim_fb/ques.jpg,stim_fb/negf.jpg,stim_fb/posf.jpg,stim_02/b.jpg,stim_02/a.jpg,1,1,f,4,9,249,2,f,1,0.366597129345,02,02,60.0129468161,PLT_learning_02,B,2014_Feb_24_1354,P12,
stim_fb/ques.jpg,stim_fb/negf.jpg,stim_fb/posf.jpg,stim_02/d.jpg,stim_02/c.jpg,1,2,f,4,10,250,26,f,1,0.583188571515,02,02,60.0129468161,PLT_learning_02,B,2014_Feb_24_1354,P12,
stim_fb/ques.jpg,stim_fb/negf.jpg,stim_fb/posf.jpg,stim_02/c.jpg,stim_02/d.jpg,2,2,j,4,11,251,35,j,1,0.516514588612,02,02,60.0129468161,PLT_learning_02,B,2014_Feb_24_1354,P12,
stim_fb/ques.jpg,stim_fb/negf.jpg,stim_fb/posf.jpg,stim_02/a.jpg,stim_02/b.jpg,2,1,j,4,12,252,11,f,0,0.533196604537,02,02,60.0129468161,PLT_learning_02,B,2014_Feb_24_1354,P12,
stim_fb/ques.jpg,stim_fb/negf.jpg,stim_fb/posf.jpg,stim_02/c.jpg,stim_02/d.jpg,2,2,j,4,13,253,30,j,1,0.749815989353,02,02,60.0129468161,PLT_learning_02,B,2014_Feb_24_1354,P12,
stim_fb/ques.jpg,stim_fb/negf.jpg,stim_fb/posf.jpg,stim_02/d.jpg,stim_02/c.jpg,1,2,f,4,14,254,24,j,0,0.9330288464,02,02,60.0129468161,PLT_learning_02,B,2014_Feb_24_1354,P12,
stim_fb/ques.jpg,stim_fb/posf.jpg,stim_fb/negf.jpg,stim_02/d.jpg,stim_02/c.jpg,1,2,f,4,15,255,27,j,0,0.783124602071,02,02,60.0129468161,PLT_learning_02,B,2014_Feb_24_1354,P12,
stim_fb/ques.jpg,stim_fb/posf.jpg,stim_fb/negf.jpg,stim_02/e.jpg,stim_02/f.jpg,2,3,j,4,16,256,58,f,0,0.59984239517,02,02,60.0129468161,PLT_learning_02,B,2014_Feb_24_1354,P12,
stim_fb/ques.jpg,stim_fb/negf.jpg,stim_fb/posf.jpg,stim_02/c.jpg,stim_02/d.jpg,2,2,j,4,17,257,34,j,1,1.04972299156,02,02,60.0129468161,PLT_learning_02,B,2014_Feb_24_1354,P12,
stim_fb/ques.jpg,stim_fb/negf.jpg,stim_fb/posf.jpg,stim_02/a.jpg,stim_02/b.jpg,2,1,j,4,18,258,13,j,1,0.64983259374,02,02,60.0129468161,PLT_learning_02,B,2014_Feb_24_1354,P12,
stim_fb/ques.jpg,stim_fb/posf.jpg,stim_fb/negf.jpg,stim_02/d.jpg,stim_02/c.jpg,1,2,f,4,19,259,29,f,1,0.733021989308,02,02,60.0129468161,PLT_learning_02,B,2014_Feb_24_1354,P12,
stim_fb/ques.jpg,stim_fb/negf.jpg,stim_fb/posf.jpg,stim_02/f.jpg,stim_02/e.jpg,1,3,f,4,20,260,40,f,1,0.599886088075,02,02,60.0129468161,PLT_learning_02,B,2014_Feb_24_1354,P12,
stim_fb/ques.jpg,stim_fb/negf.jpg,stim_fb/posf.jpg,stim_02/a.jpg,stim_02/b.jpg,2,1,j,4,21,261,10,j,1,0.666501650363,02,02,60.0129468161,PLT_learning_02,B,2014_Feb_24_1354,P12,
stim_fb/ques.jpg,stim_fb/posf.jpg,stim_fb/negf.jpg,stim_02/b.jpg,stim_02/a.jpg,1,1,f,4,22,262,9,f,1,0.666541872617,02,02,60.0129468161,PLT_learning_02,B,2014_Feb_24_1354,P12,
stim_fb/ques.jpg,stim_fb/posf.jpg,stim_fb/negf.jpg,stim_02/e.jpg,stim_02/f.jpg,2,3,j,4,23,263,59,f,0,0.899777466335,02,02,60.0129468161,PLT_learning_02,B,2014_Feb_24_1354,P12,
stim_fb/ques.jpg,stim_fb/posf.jpg,stim_fb/negf.jpg,stim_02/f.jpg,stim_02/e.jpg,1,3,f,4,24,264,48,f,1,0.699803649597,02,02,60.0129468161,PLT_learning_02,B,2014_Feb_24_1354,P12,
stim_fb/ques.jpg,stim_fb/posf.jpg,stim_fb/negf.jpg,stim_02/c.jpg,stim_02/d.jpg,2,2,j,4,25,265,38,j,1,0.616512729979,02,02,60.0129468161,PLT_learning_02,B,2014_Feb_24_1354,P12,
stim_fb/ques.jpg,stim_fb/posf.jpg,stim_fb/negf.jpg,stim_02/d.jpg,stim_02/c.jpg,1,2,f,4,26,266,28,f,1,0.533307181149,02,02,60.0129468161,PLT_learning_02,B,2014_Feb_24_1354,P12,
stim_fb/ques.jpg,stim_fb/negf.jpg,stim_fb/posf.jpg,stim_02/c.jpg,stim_02/d.jpg,2,2,j,4,27,267,31,j,1,0.533219726167,02,02,60.0129468161,PLT_learning_02,B,2014_Feb_24_1354,P12,
stim_fb/ques.jpg,stim_fb/negf.jpg,stim_fb/posf.jpg,stim_02/a.jpg,stim_02/b.jpg,2,1,j,4,28,268,15,j,1,0.599854903347,02,02,60.0129468161,PLT_learning_02,B,2014_Feb_24_1354,P12,
stim_fb/ques.jpg,stim_fb/negf.jpg,stim_fb/posf.jpg,stim_02/b.jpg,stim_02/a.jpg,1,1,f,4,29,269,3,f,1,0.79979359253,02,02,60.0129468161,PLT_learning_02,B,2014_Feb_24_1354,P12,
stim_fb/ques.jpg,stim_fb/negf.jpg,stim_fb/posf.jpg,stim_02/a.jpg,stim_02/b.jpg,2,1,j,4,30,270,12,j,1,0.59983021481,02,02,60.0129468161,PLT_learning_02,B,2014_Feb_24_1354,P12,
stim_fb/ques.jpg,stim_fb/negf.jpg,stim_fb/posf.jpg,stim_02/e.jpg,stim_02/f.jpg,2,3,j,4,31,271,51,j,1,0.549873477643,02,02,60.0129468161,PLT_learning_02,B,2014_Feb_24_1354,P12,
stim_fb/ques.jpg,stim_fb/negf.jpg,stim_fb/posf.jpg,stim_02/d.jpg,stim_02/c.jpg,1,2,f,4,32,272,23,j,0,0.416592527876,02,02,60.0129468161,PLT_learning_02,B,2014_Feb_24_1354,P12,
stim_fb/ques.jpg,stim_fb/posf.jpg,stim_fb/negf.jpg,stim_02/f.jpg,stim_02/e.jpg,1,3,f,4,33,273,46,j,0,0.349896316569,02,02,60.0129468161,PLT_learning_02,B,2014_Feb_24_1354,P12,
stim_fb/ques.jpg,stim_fb/negf.jpg,stim_fb/posf.jpg,stim_02/f.jpg,stim_02/e.jpg,1,3,f,4,34,274,42,j,0,0.483195684243,02,02,60.0129468161,PLT_learning_02,B,2014_Feb_24_1354,P12,
stim_fb/ques.jpg,stim_fb/negf.jpg,stim_fb/posf.jpg,stim_02/b.jpg,stim_02/a.jpg,1,1,f,4,35,275,0,j,0,0.383298561665,02,02,60.0129468161,PLT_learning_02,B,2014_Feb_24_1354,P12,
stim_fb/ques.jpg,stim_fb/posf.jpg,stim_fb/negf.jpg,stim_02/a.jpg,stim_02/b.jpg,2,1,j,4,36,276,18,j,1,0.583191639161,02,02,60.0129468161,PLT_learning_02,B,2014_Feb_24_1354,P12,
stim_fb/ques.jpg,stim_fb/posf.jpg,stim_fb/negf.jpg,stim_02/c.jpg,stim_02/d.jpg,2,2,j,4,37,277,37,j,1,0.549849862783,02,02,60.0129468161,PLT_learning_02,B,2014_Feb_24_1354,P12,
stim_fb/ques.jpg,stim_fb/negf.jpg,stim_fb/posf.jpg,stim_02/e.jpg,stim_02/f.jpg,2,3,j,4,38,278,50,f,0,0.599840404207,02,02,60.0129468161,PLT_learning_02,B,2014_Feb_24_1354,P12,
stim_fb/ques.jpg,stim_fb/negf.jpg,stim_fb/posf.jpg,stim_02/f.jpg,stim_02/e.jpg,1,3,f,4,39,279,44,f,1,0.583150352253,02,02,60.0129468161,PLT_learning_02,B,2014_Feb_24_1354,P12,
stim_fb/ques.jpg,stim_fb/posf.jpg,stim_fb/negf.jpg,stim_02/a.jpg,stim_02/b.jpg,2,1,j,4,40,280,19,j,1,0.683446834234,02,02,60.0129468161,PLT_learning_02,B,2014_Feb_24_1354,P12,
stim_fb/ques.jpg,stim_fb/negf.jpg,stim_fb/posf.jpg,stim_02/d.jpg,stim_02/c.jpg,1,2,f,4,41,281,25,f,1,0.466621282547,02,02,60.0129468161,PLT_learning_02,B,2014_Feb_24_1354,P12,
stim_fb/ques.jpg,stim_fb/negf.jpg,stim_fb/posf.jpg,stim_02/a.jpg,stim_02/b.jpg,2,1,j,4,42,282,16,j,1,0.883063913805,02,02,60.0129468161,PLT_learning_02,B,2014_Feb_24_1354,P12,
stim_fb/ques.jpg,stim_fb/negf.jpg,stim_fb/posf.jpg,stim_02/e.jpg,stim_02/f.jpg,2,3,j,4,43,283,52,j,1,0.616512173593,02,02,60.0129468161,PLT_learning_02,B,2014_Feb_24_1354,P12,
stim_fb/ques.jpg,stim_fb/negf.jpg,stim_fb/posf.jpg,stim_02/d.jpg,stim_02/c.jpg,1,2,f,4,44,284,21,f,1,0.54986969722,02,02,60.0129468161,PLT_learning_02,B,2014_Feb_24_1354,P12,
stim_fb/ques.jpg,stim_fb/negf.jpg,stim_fb/posf.jpg,stim_02/c.jpg,stim_02/d.jpg,2,2,j,4,45,285,36,j,1,0.766455214622,02,02,60.0129468161,PLT_learning_02,B,2014_Feb_24_1354,P12,
stim_fb/ques.jpg,stim_fb/negf.jpg,stim_fb/posf.jpg,stim_02/f.jpg,stim_02/e.jpg,1,3,f,4,46,286,43,f,1,0.583199052639,02,02,60.0129468161,PLT_learning_02,B,2014_Feb_24_1354,P12,
stim_fb/ques.jpg,stim_fb/negf.jpg,stim_fb/posf.jpg,stim_02/d.jpg,stim_02/c.jpg,1,2,f,4,47,287,20,f,1,0.649825745671,02,02,60.0129468161,PLT_learning_02,B,2014_Feb_24_1354,P12,
stim_fb/ques.jpg,stim_fb/posf.jpg,stim_fb/negf.jpg,stim_02/c.jpg,stim_02/d.jpg,2,2,j,4,48,288,39,f,0,0.749796398523,02,02,60.0129468161,PLT_learning_02,B,2014_Feb_24_1354,P12,
stim_fb/ques.jpg,stim_fb/negf.jpg,stim_fb/posf.jpg,stim_02/e.jpg,stim_02/f.jpg,2,3,j,4,49,289,53,j,1,0.599846753032,02,02,60.0129468161,PLT_learning_02,B,2014_Feb_24_1354,P12,
stim_fb/ques.jpg,stim_fb/negf.jpg,stim_fb/posf.jpg,stim_02/f.jpg,stim_02/e.jpg,1,3,f,4,50,290,45,j,0,0.6165106518,02,02,60.0129468161,PLT_learning_02,B,2014_Feb_24_1354,P12,
stim_fb/ques.jpg,stim_fb/negf.jpg,stim_fb/posf.jpg,stim_02/a.jpg,stim_02/b.jpg,2,1,j,4,51,291,17,j,1,0.51662501485,02,02,60.0129468161,PLT_learning_02,B,2014_Feb_24_1354,P12,
stim_fb/ques.jpg,stim_fb/negf.jpg,stim_fb/posf.jpg,stim_02/a.jpg,stim_02/b.jpg,2,1,j,4,52,292,14,j,1,0.516416192359,02,02,60.0129468161,PLT_learning_02,B,2014_Feb_24_1354,P12,
stim_fb/ques.jpg,stim_fb/negf.jpg,stim_fb/posf.jpg,stim_02/b.jpg,stim_02/a.jpg,1,1,f,4,53,293,4,f,1,0.516540016992,02,02,60.0129468161,PLT_learning_02,B,2014_Feb_24_1354,P12,
stim_fb/ques.jpg,stim_fb/posf.jpg,stim_fb/negf.jpg,stim_02/f.jpg,stim_02/e.jpg,1,3,f,4,54,294,49,f,1,0.516542056075,02,02,60.0129468161,PLT_learning_02,B,2014_Feb_24_1354,P12,
stim_fb/ques.jpg,stim_fb/negf.jpg,stim_fb/posf.jpg,stim_02/b.jpg,stim_02/a.jpg,1,1,f,4,55,295,5,f,1,0.566520723904,02,02,60.0129468161,PLT_learning_02,B,2014_Feb_24_1354,P12,
stim_fb/ques.jpg,stim_fb/negf.jpg,stim_fb/posf.jpg,stim_02/d.jpg,stim_02/c.jpg,1,2,f,4,56,296,22,f,1,0.766466751378,02,02,60.0129468161,PLT_learning_02,B,2014_Feb_24_1354,P12,
stim_fb/ques.jpg,stim_fb/posf.jpg,stim_fb/negf.jpg,stim_02/e.jpg,stim_02/f.jpg,2,3,j,4,57,297,56,f,0,0.566537740317,02,02,60.0129468161,PLT_learning_02,B,2014_Feb_24_1354,P12,
stim_fb/ques.jpg,stim_fb/negf.jpg,stim_fb/posf.jpg,stim_02/e.jpg,stim_02/f.jpg,2,3,j,4,58,298,55,f,0,0.416542389907,02,02,60.0129468161,PLT_learning_02,B,2014_Feb_24_1354,P12,
stim_fb/ques.jpg,stim_fb/negf.jpg,stim_fb/posf.jpg,stim_02/e.jpg,stim_02/f.jpg,2,3,j,4,59,299,54,j,1,0.73313870422,02,02,60.0129468161,PLT_learning_02,B,2014_Feb_24_1354,P12,
stim_fb/ques.jpg,stim_fb/posf.jpg,stim_fb/negf.jpg,stim_02/f.jpg,stim_02/e.jpg,1,3,f,5,0,300,47,j,0,0.566535707251,02,02,60.0129468161,PLT_learning_02,B,2014_Feb_24_1354,P12,
stim_fb/ques.jpg,stim_fb/negf.jpg,stim_fb/posf.jpg,stim_02/f.jpg,stim_02/e.jpg,1,3,f,5,1,301,45,j,0,0.783084620416,02,02,60.0129468161,PLT_learning_02,B,2014_Feb_24_1354,P12,
stim_fb/ques.jpg,stim_fb/negf.jpg,stim_fb/posf.jpg,stim_02/e.jpg,stim_02/f.jpg,2,3,j,5,2,302,50,j,1,0.599830569695,02,02,60.0129468161,PLT_learning_02,B,2014_Feb_24_1354,P12,
stim_fb/ques.jpg,stim_fb/negf.jpg,stim_fb/posf.jpg,stim_02/e.jpg,stim_02/f.jpg,2,3,j,5,3,303,52,j,1,0.733146887617,02,02,60.0129468161,PLT_learning_02,B,2014_Feb_24_1354,P12,
stim_fb/ques.jpg,stim_fb/negf.jpg,stim_fb/posf.jpg,stim_02/f.jpg,stim_02/e.jpg,1,3,f,5,4,304,44,f,1,0.566826917091,02,02,60.0129468161,PLT_learning_02,B,2014_Feb_24_1354,P12,
stim_fb/ques.jpg,stim_fb/negf.jpg,stim_fb/posf.jpg,stim_02/b.jpg,stim_02/a.jpg,1,1,f,5,5,305,4,f,1,0.483223341178,02,02,60.0129468161,PLT_learning_02,B,2014_Feb_24_1354,P12,
stim_fb/ques.jpg,stim_fb/posf.jpg,stim_fb/negf.jpg,stim_02/e.jpg,stim_02/f.jpg,2,3,j,5,6,306,58,j,1,0.516507716483,02,02,60.0129468161,PLT_learning_02,B,2014_Feb_24_1354,P12,
stim_fb/ques.jpg,stim_fb/negf.jpg,stim_fb/posf.jpg,stim_02/c.jpg,stim_02/d.jpg,2,2,j,5,7,307,34,j,1,0.69979493688,02,02,60.0129468161,PLT_learning_02,B,2014_Feb_24_1354,P12,
stim_fb/ques.jpg,stim_fb/posf.jpg,stim_fb/negf.jpg,stim_02/c.jpg,stim_02/d.jpg,2,2,j,5,8,308,39,j,1,0.86643181931,02,02,60.0129468161,PLT_learning_02,B,2014_Feb_24_1354,P12,
stim_fb/ques.jpg,stim_fb/negf.jpg,stim_fb/posf.jpg,stim_02/b.jpg,stim_02/a.jpg,1,1,f,5,9,309,6,j,0,0.616517211149,02,02,60.0129468161,PLT_learning_02,B,2014_Feb_24_1354,P12,
stim_fb/ques.jpg,stim_fb/negf.jpg,stim_fb/posf.jpg,stim_02/b.jpg,stim_02/a.jpg,1,1,f,5,10,310,1,j,0,0.533219467523,02,02,60.0129468161,PLT_learning_02,B,2014_Feb_24_1354,P12,
stim_fb/ques.jpg,stim_fb/posf.jpg,stim_fb/negf.jpg,stim_02/f.jpg,stim_02/e.jpg,1,3,f,5,11,311,48,j,0,0.716494934625,02,02,60.0129468161,PLT_learning_02,B,2014_Feb_24_1354,P12,
stim_fb/ques.jpg,stim_fb/negf.jpg,stim_fb/posf.jpg,stim_02/b.jpg,stim_02/a.jpg,1,1,f,5,12,312,5,f,1,0.749804951843,02,02,60.0129468161,PLT_learning_02,B,2014_Feb_24_1354,P12,
stim_fb/ques.jpg,stim_fb/negf.jpg,stim_fb/posf.jpg,stim_02/e.jpg,stim_02/f.jpg,2,3,j,5,13,313,55,f,0,0.783106521004,02,02,60.0129468161,PLT_learning_02,B,2014_Feb_24_1354,P12,
stim_fb/ques.jpg,stim_fb/posf.jpg,stim_fb/negf.jpg,stim_02/e.jpg,stim_02/f.jpg,2,3,j,5,14,314,56,f,0,0.533174559589,02,02,60.0129468161,PLT_learning_02,B,2014_Feb_24_1354,P12,
stim_fb/ques.jpg,stim_fb/negf.jpg,stim_fb/posf.jpg,stim_02/b.jpg,stim_02/a.jpg,1,1,f,5,15,315,2,f,1,0.649820972775,02,02,60.0129468161,PLT_learning_02,B,2014_Feb_24_1354,P12,
stim_fb/ques.jpg,stim_fb/posf.jpg,stim_fb/negf.jpg,stim_02/d.jpg,stim_02/c.jpg,1,2,f,5,16,316,27,f,1,0.816406565365,02,02,60.0129468161,PLT_learning_02,B,2014_Feb_24_1354,P12,
stim_fb/ques.jpg,stim_fb/negf.jpg,stim_fb/posf.jpg,stim_02/b.jpg,stim_02/a.jpg,1,1,f,5,17,317,3,f,1,0.516557078518,02,02,60.0129468161,PLT_learning_02,B,2014_Feb_24_1354,P12,
stim_fb/ques.jpg,stim_fb/negf.jpg,stim_fb/posf.jpg,stim_02/e.jpg,stim_02/f.jpg,2,3,j,5,18,318,51,f,0,0.716443292908,02,02,60.0129468161,PLT_learning_02,B,2014_Feb_24_1354,P12,
stim_fb/ques.jpg,stim_fb/negf.jpg,stim_fb/posf.jpg,stim_02/a.jpg,stim_02/b.jpg,2,1,j,5,19,319,15,f,0,0.849742281637,02,02,60.0129468161,PLT_learning_02,B,2014_Feb_24_1354,P12,
stim_fb/ques.jpg,stim_fb/posf.jpg,stim_fb/negf.jpg,stim_02/c.jpg,stim_02/d.jpg,2,2,j,5,20,320,37,f,0,1.23297596259,02,02,60.0129468161,PLT_learning_02,B,2014_Feb_24_1354,P12,
stim_fb/ques.jpg,stim_fb/negf.jpg,stim_fb/posf.jpg,stim_02/a.jpg,stim_02/b.jpg,2,1,j,5,21,321,12,j,1,0.749815586349,02,02,60.0129468161,PLT_learning_02,B,2014_Feb_24_1354,P12,
stim_fb/ques.jpg,stim_fb/posf.jpg,stim_fb/negf.jpg,stim_02/f.jpg,stim_02/e.jpg,1,3,f,5,22,322,49,j,0,0.999774651319,02,02,60.0129468161,PLT_learning_02,B,2014_Feb_24_1354,P12,
stim_fb/ques.jpg,stim_fb/negf.jpg,stim_fb/posf.jpg,stim_02/d.jpg,stim_02/c.jpg,1,2,f,5,23,323,23,f,1,0.933085784317,02,02,60.0129468161,PLT_learning_02,B,2014_Feb_24_1354,P12,
stim_fb/ques.jpg,stim_fb/negf.jpg,stim_fb/posf.jpg,stim_02/d.jpg,stim_02/c.jpg,1,2,f,5,24,324,24,f,1,0.983055513868,02,02,60.0129468161,PLT_learning_02,B,2014_Feb_24_1354,P12,
stim_fb/ques.jpg,stim_fb/posf.jpg,stim_fb/negf.jpg,stim_02/f.jpg,stim_02/e.jpg,1,3,f,5,25,325,46,j,0,0.983073044564,02,02,60.0129468161,PLT_learning_02,B,2014_Feb_24_1354,P12,
stim_fb/ques.jpg,stim_fb/negf.jpg,stim_fb/posf.jpg,stim_02/b.jpg,stim_02/a.jpg,1,1,f,5,26,326,0,f,1,0.966340141803,02,02,60.0129468161,PLT_learning_02,B,2014_Feb_24_1354,P12,
stim_fb/ques.jpg,stim_fb/posf.jpg,stim_fb/negf.jpg,stim_02/b.jpg,stim_02/a.jpg,1,1,f,5,27,327,8,j,0,1.03305712889,02,02,60.0129468161,PLT_learning_02,B,2014_Feb_24_1354,P12,
stim_fb/ques.jpg,stim_fb/negf.jpg,stim_fb/posf.jpg,stim_02/a.jpg,stim_02/b.jpg,2,1,j,5,28,328,14,f,0,1.01635251765,02,02,60.0129468161,PLT_learning_02,B,2014_Feb_24_1354,P12,
stim_fb/ques.jpg,stim_fb/negf.jpg,stim_fb/posf.jpg,stim_02/c.jpg,stim_02/d.jpg,2,2,j,5,29,329,31,f,0,1.13302322238,02,02,60.0129468161,PLT_learning_02,B,2014_Feb_24_1354,P12,
stim_fb/ques.jpg,stim_fb/posf.jpg,stim_fb/negf.jpg,stim_02/e.jpg,stim_02/f.jpg,2,3,j,5,30,330,57,j,1,0.883098487981,02,02,60.0129468161,PLT_learning_02,B,2014_Feb_24_1354,P12,
stim_fb/ques.jpg,stim_fb/negf.jpg,stim_fb/posf.jpg,stim_02/c.jpg,stim_02/d.jpg,2,2,j,5,31,331,33,j,1,0.699799926316,02,02,60.0129468161,PLT_learning_02,B,2014_Feb_24_1354,P12,
stim_fb/ques.jpg,stim_fb/negf.jpg,stim_fb/posf.jpg,stim_02/e.jpg,stim_02/f.jpg,2,3,j,5,32,332,54,f,0,0.666504020271,02,02,60.0129468161,PLT_learning_02,B,2014_Feb_24_1354,P12,
stim_fb/ques.jpg,stim_fb/negf.jpg,stim_fb/posf.jpg,stim_02/b.jpg,stim_02/a.jpg,1,1,f,5,33,333,7,f,1,0.583221046458,02,02,60.0129468161,PLT_learning_02,B,2014_Feb_24_1354,P12,
stim_fb/ques.jpg,stim_fb/negf.jpg,stim_fb/posf.jpg,stim_02/d.jpg,stim_02/c.jpg,1,2,f,5,34,334,22,f,1,0.449870524282,02,02,60.0129468161,PLT_learning_02,B,2014_Feb_24_1354,P12,
stim_fb/ques.jpg,stim_fb/posf.jpg,stim_fb/negf.jpg,stim_02/a.jpg,stim_02/b.jpg,2,1,j,5,35,335,18,j,1,0.566538188435,02,02,60.0129468161,PLT_learning_02,B,2014_Feb_24_1354,P12,
stim_fb/ques.jpg,stim_fb/posf.jpg,stim_fb/negf.jpg,stim_02/e.jpg,stim_02/f.jpg,2,3,j,5,36,336,59,j,1,0.583202093217,02,02,60.0129468161,PLT_learning_02,B,2014_Feb_24_1354,P12,
stim_fb/ques.jpg,stim_fb/negf.jpg,stim_fb/posf.jpg,stim_02/a.jpg,stim_02/b.jpg,2,1,j,5,37,337,13,j,1,0.683160135638,02,02,60.0129468161,PLT_learning_02,B,2014_Feb_24_1354,P12,
stim_fb/ques.jpg,stim_fb/negf.jpg,stim_fb/posf.jpg,stim_02/d.jpg,stim_02/c.jpg,1,2,f,5,38,338,21,f,1,0.783124809588,02,02,60.0129468161,PLT_learning_02,B,2014_Feb_24_1354,P12,
stim_fb/ques.jpg,stim_fb/negf.jpg,stim_fb/posf.jpg,stim_02/d.jpg,stim_02/c.jpg,1,2,f,5,39,339,25,f,1,1.28291725927,02,02,60.0129468161,PLT_learning_02,B,2014_Feb_24_1354,P12,
stim_fb/ques.jpg,stim_fb/negf.jpg,stim_fb/posf.jpg,stim_02/f.jpg,stim_02/e.jpg,1,3,f,5,40,340,40,f,1,0.933063420576,02,02,60.0129468161,PLT_learning_02,B,2014_Feb_24_1354,P12,
stim_fb/ques.jpg,stim_fb/negf.jpg,stim_fb/posf.jpg,stim_02/d.jpg,stim_02/c.jpg,1,2,f,5,41,341,20,j,0,0.833111468335,02,02,60.0129468161,PLT_learning_02,B,2014_Feb_24_1354,P12,
stim_fb/ques.jpg,stim_fb/posf.jpg,stim_fb/negf.jpg,stim_02/d.jpg,stim_02/c.jpg,1,2,f,5,42,342,28,j,0,0.816446083864,02,02,60.0129468161,PLT_learning_02,B,2014_Feb_24_1354,P12,
stim_fb/ques.jpg,stim_fb/negf.jpg,stim_fb/posf.jpg,stim_02/c.jpg,stim_02/d.jpg,2,2,j,5,43,343,30,j,1,1.08300832625,02,02,60.0129468161,PLT_learning_02,B,2014_Feb_24_1354,P12,
stim_fb/ques.jpg,stim_fb/negf.jpg,stim_fb/posf.jpg,stim_02/a.jpg,stim_02/b.jpg,2,1,j,5,44,344,11,f,0,1.09966397847,02,02,60.0129468161,PLT_learning_02,B,2014_Feb_24_1354,P12,
stim_fb/ques.jpg,stim_fb/negf.jpg,stim_fb/posf.jpg,stim_02/d.jpg,stim_02/c.jpg,1,2,f,5,45,345,26,f,1,1.08299447974,02,02,60.0129468161,PLT_learning_02,B,2014_Feb_24_1354,P12,
stim_fb/ques.jpg,stim_fb/posf.jpg,stim_fb/negf.jpg,stim_02/a.jpg,stim_02/b.jpg,2,1,j,5,46,346,19,j,1,0.533222793813,02,02,60.0129468161,PLT_learning_02,B,2014_Feb_24_1354,P12,
stim_fb/ques.jpg,stim_fb/negf.jpg,stim_fb/posf.jpg,stim_02/a.jpg,stim_02/b.jpg,2,1,j,5,47,347,10,j,1,0.649844969587,02,02,60.0129468161,PLT_learning_02,B,2014_Feb_24_1354,P12,
stim_fb/ques.jpg,stim_fb/negf.jpg,stim_fb/posf.jpg,stim_02/e.jpg,stim_02/f.jpg,2,3,j,5,48,348,53,f,0,0.666496727092,02,02,60.0129468161,PLT_learning_02,B,2014_Feb_24_1354,P12,
stim_fb/ques.jpg,stim_fb/posf.jpg,stim_fb/negf.jpg,stim_02/b.jpg,stim_02/a.jpg,1,1,f,5,49,349,9,f,1,0.566501379689,02,02,60.0129468161,PLT_learning_02,B,2014_Feb_24_1354,P12,
stim_fb/ques.jpg,stim_fb/posf.jpg,stim_fb/negf.jpg,stim_02/d.jpg,stim_02/c.jpg,1,2,f,5,50,350,29,f,1,0.649835138082,02,02,60.0129468161,PLT_learning_02,B,2014_Feb_24_1354,P12,
stim_fb/ques.jpg,stim_fb/posf.jpg,stim_fb/negf.jpg,stim_02/c.jpg,stim_02/d.jpg,2,2,j,5,51,351,38,j,1,1.1663173931,02,02,60.0129468161,PLT_learning_02,B,2014_Feb_24_1354,P12,
stim_fb/ques.jpg,stim_fb/negf.jpg,stim_fb/posf.jpg,stim_02/f.jpg,stim_02/e.jpg,1,3,f,5,52,352,43,f,1,0.866457578514,02,02,60.0129468161,PLT_learning_02,B,2014_Feb_24_1354,P12,
stim_fb/ques.jpg,stim_fb/negf.jpg,stim_fb/posf.jpg,stim_02/c.jpg,stim_02/d.jpg,2,2,j,5,53,353,32,f,0,0.966409660078,02,02,60.0129468161,PLT_learning_02,B,2014_Feb_24_1354,P12,
stim_fb/ques.jpg,stim_fb/negf.jpg,stim_fb/posf.jpg,stim_02/f.jpg,stim_02/e.jpg,1,3,f,5,54,354,42,f,1,0.583205627026,02,02,60.0129468161,PLT_learning_02,B,2014_Feb_24_1354,P12,
stim_fb/ques.jpg,stim_fb/negf.jpg,stim_fb/posf.jpg,stim_02/a.jpg,stim_02/b.jpg,2,1,j,5,55,355,17,j,1,0.649835132067,02,02,60.0129468161,PLT_learning_02,B,2014_Feb_24_1354,P12,
stim_fb/ques.jpg,stim_fb/negf.jpg,stim_fb/posf.jpg,stim_02/a.jpg,stim_02/b.jpg,2,1,j,5,56,356,16,j,1,0.599844187638,02,02,60.0129468161,PLT_learning_02,B,2014_Feb_24_1354,P12,
stim_fb/ques.jpg,stim_fb/negf.jpg,stim_fb/posf.jpg,stim_02/c.jpg,stim_02/d.jpg,2,2,j,5,57,357,36,f,0,0.633179994135,02,02,60.0129468161,PLT_learning_02,B,2014_Feb_24_1354,P12,
stim_fb/ques.jpg,stim_fb/negf.jpg,stim_fb/posf.jpg,stim_02/f.jpg,stim_02/e.jpg,1,3,f,5,58,358,41,f,1,0.39997260171,02,02,60.0129468161,PLT_learning_02,B,2014_Feb_24_1354,P12,
stim_fb/ques.jpg,stim_fb/negf.jpg,stim_fb/posf.jpg,stim_02/c.jpg,stim_02/d.jpg,2,2,j,5,59,359,35,j,1,0.86642534417,02,02,60.0129468161,PLT_learning_02,B,2014_Feb_24_1354,P12,
