Fb3,Fb2,Fb1,Symbol2,Symbol1,PosCond,Pair,Correct,trials.thisRepN,trials.thisTrialN,trials.thisN,trials.thisIndex,Response.keys,Response.corr,Response.rt,Version,Session Number,frameRate,expName,StimCondition,date,Participant,
stim_fb/ques.jpg,stim_fb/negf.jpg,stim_fb/posf.jpg,stim_03/a.jpg,stim_03/b.jpg,2,1,j,0,0,0,17,j,1,1.46624303335,03,03,60.0222941047,PLT_learning_3,B,2014_Mrz_31_1449,P13,
stim_fb/ques.jpg,stim_fb/negf.jpg,stim_fb/posf.jpg,stim_03/e.jpg,stim_03/f.jpg,2,3,j,0,1,1,50,f,0,1.09969033733,03,03,60.0222941047,PLT_learning_3,B,2014_Mrz_31_1449,P13,
stim_fb/ques.jpg,stim_fb/posf.jpg,stim_fb/negf.jpg,stim_03/f.jpg,stim_03/e.jpg,1,3,f,0,2,2,47,j,0,1.19965410014,03,03,60.0222941047,PLT_learning_3,B,2014_Mrz_31_1449,P13,
stim_fb/ques.jpg,stim_fb/negf.jpg,stim_fb/posf.jpg,stim_03/b.jpg,stim_03/a.jpg,1,1,f,0,3,3,4,f,1,0.649786527219,03,03,60.0222941047,PLT_learning_3,B,2014_Mrz_31_1449,P13,
stim_fb/ques.jpg,stim_fb/negf.jpg,stim_fb/posf.jpg,stim_03/d.jpg,stim_03/c.jpg,1,2,f,0,4,4,22,f,1,0.999695765837,03,03,60.0222941047,PLT_learning_3,B,2014_Mrz_31_1449,P13,
stim_fb/ques.jpg,stim_fb/negf.jpg,stim_fb/posf.jpg,stim_03/e.jpg,stim_03/f.jpg,2,3,j,0,5,5,51,f,0,0.849780918261,03,03,60.0222941047,PLT_learning_3,B,2014_Mrz_31_1449,P13,
stim_fb/ques.jpg,stim_fb/posf.jpg,stim_fb/negf.jpg,stim_03/f.jpg,stim_03/e.jpg,1,3,f,0,6,6,48,f,1,0.866428513964,03,03,60.0222941047,PLT_learning_3,B,2014_Mrz_31_1449,P13,
stim_fb/ques.jpg,stim_fb/negf.jpg,stim_fb/posf.jpg,stim_03/a.jpg,stim_03/b.jpg,2,1,j,0,7,7,10,j,1,0.999709627336,03,03,60.0222941047,PLT_learning_3,B,2014_Mrz_31_1449,P13,
stim_fb/ques.jpg,stim_fb/negf.jpg,stim_fb/posf.jpg,stim_03/a.jpg,stim_03/b.jpg,2,1,j,0,8,8,12,j,1,0.666499806393,03,03,60.0222941047,PLT_learning_3,B,2014_Mrz_31_1449,P13,
stim_fb/ques.jpg,stim_fb/negf.jpg,stim_fb/posf.jpg,stim_03/b.jpg,stim_03/a.jpg,1,1,f,0,9,9,7,f,1,0.783103537929,03,03,60.0222941047,PLT_learning_3,B,2014_Mrz_31_1449,P13,
stim_fb/ques.jpg,stim_fb/negf.jpg,stim_fb/posf.jpg,stim_03/d.jpg,stim_03/c.jpg,1,2,f,0,10,10,20,f,1,1.1829796897,03,03,60.0222941047,PLT_learning_3,B,2014_Mrz_31_1449,P13,
stim_fb/ques.jpg,stim_fb/posf.jpg,stim_fb/negf.jpg,stim_03/d.jpg,stim_03/c.jpg,1,2,f,0,11,11,27,f,1,1.36626359252,03,03,60.0222941047,PLT_learning_3,B,2014_Mrz_31_1449,P13,
stim_fb/ques.jpg,stim_fb/negf.jpg,stim_fb/posf.jpg,stim_03/c.jpg,stim_03/d.jpg,2,2,j,0,12,12,32,j,1,1.24962936207,03,03,60.0222941047,PLT_learning_3,B,2014_Mrz_31_1449,P13,
stim_fb/ques.jpg,stim_fb/negf.jpg,stim_fb/posf.jpg,stim_03/c.jpg,stim_03/d.jpg,2,2,j,0,13,13,30,j,1,0.666515887415,03,03,60.0222941047,PLT_learning_3,B,2014_Mrz_31_1449,P13,
stim_fb/ques.jpg,stim_fb/posf.jpg,stim_fb/negf.jpg,stim_03/a.jpg,stim_03/b.jpg,2,1,j,0,14,14,18,j,1,0.899687937354,03,03,60.0222941047,PLT_learning_3,B,2014_Mrz_31_1449,P13,
stim_fb/ques.jpg,stim_fb/posf.jpg,stim_fb/negf.jpg,stim_03/c.jpg,stim_03/d.jpg,2,2,j,0,15,15,37,j,1,0.91642807036,03,03,60.0222941047,PLT_learning_3,B,2014_Mrz_31_1449,P13,
stim_fb/ques.jpg,stim_fb/negf.jpg,stim_fb/posf.jpg,stim_03/f.jpg,stim_03/e.jpg,1,3,f,0,16,16,40,j,0,1.04966361131,03,03,60.0222941047,PLT_learning_3,B,2014_Mrz_31_1449,P13,
stim_fb/ques.jpg,stim_fb/negf.jpg,stim_fb/posf.jpg,stim_03/d.jpg,stim_03/c.jpg,1,2,f,0,17,17,26,f,1,0.733118877607,03,03,60.0222941047,PLT_learning_3,B,2014_Mrz_31_1449,P13,
stim_fb/ques.jpg,stim_fb/negf.jpg,stim_fb/posf.jpg,stim_03/d.jpg,stim_03/c.jpg,1,2,f,0,18,18,21,f,1,0.516538051074,03,03,60.0222941047,PLT_learning_3,B,2014_Mrz_31_1449,P13,
stim_fb/ques.jpg,stim_fb/negf.jpg,stim_fb/posf.jpg,stim_03/f.jpg,stim_03/e.jpg,1,3,f,0,19,19,43,j,0,0.949755929068,03,03,60.0222941047,PLT_learning_3,B,2014_Mrz_31_1449,P13,
stim_fb/ques.jpg,stim_fb/posf.jpg,stim_fb/negf.jpg,stim_03/c.jpg,stim_03/d.jpg,2,2,j,0,20,20,38,j,1,0.733141301414,03,03,60.0222941047,PLT_learning_3,B,2014_Mrz_31_1449,P13,
stim_fb/ques.jpg,stim_fb/negf.jpg,stim_fb/posf.jpg,stim_03/b.jpg,stim_03/a.jpg,1,1,f,0,21,21,5,f,1,0.816428882381,03,03,60.0222941047,PLT_learning_3,B,2014_Mrz_31_1449,P13,
stim_fb/ques.jpg,stim_fb/negf.jpg,stim_fb/posf.jpg,stim_03/a.jpg,stim_03/b.jpg,2,1,j,0,22,22,11,j,1,0.699808540505,03,03,60.0222941047,PLT_learning_3,B,2014_Mrz_31_1449,P13,
stim_fb/ques.jpg,stim_fb/posf.jpg,stim_fb/negf.jpg,stim_03/b.jpg,stim_03/a.jpg,1,1,f,0,23,23,9,f,1,0.799791217392,03,03,60.0222941047,PLT_learning_3,B,2014_Mrz_31_1449,P13,
stim_fb/ques.jpg,stim_fb/posf.jpg,stim_fb/negf.jpg,stim_03/f.jpg,stim_03/e.jpg,1,3,f,0,24,24,46,j,0,0.766456760262,03,03,60.0222941047,PLT_learning_3,B,2014_Mrz_31_1449,P13,
stim_fb/ques.jpg,stim_fb/posf.jpg,stim_fb/negf.jpg,stim_03/b.jpg,stim_03/a.jpg,1,1,f,0,25,25,8,f,1,0.716454181344,03,03,60.0222941047,PLT_learning_3,B,2014_Mrz_31_1449,P13,
stim_fb/ques.jpg,stim_fb/negf.jpg,stim_fb/posf.jpg,stim_03/b.jpg,stim_03/a.jpg,1,1,f,0,26,26,3,f,1,0.566532365425,03,03,60.0222941047,PLT_learning_3,B,2014_Mrz_31_1449,P13,
stim_fb/ques.jpg,stim_fb/negf.jpg,stim_fb/posf.jpg,stim_03/c.jpg,stim_03/d.jpg,2,2,j,0,27,27,33,j,1,0.866384162585,03,03,60.0222941047,PLT_learning_3,B,2014_Mrz_31_1449,P13,
stim_fb/ques.jpg,stim_fb/negf.jpg,stim_fb/posf.jpg,stim_03/a.jpg,stim_03/b.jpg,2,1,j,0,28,28,13,j,1,0.833083106581,03,03,60.0222941047,PLT_learning_3,B,2014_Mrz_31_1449,P13,
stim_fb/ques.jpg,stim_fb/negf.jpg,stim_fb/posf.jpg,stim_03/b.jpg,stim_03/a.jpg,1,1,f,0,29,29,2,f,1,0.633141686372,03,03,60.0222941047,PLT_learning_3,B,2014_Mrz_31_1449,P13,
stim_fb/ques.jpg,stim_fb/negf.jpg,stim_fb/posf.jpg,stim_03/e.jpg,stim_03/f.jpg,2,3,j,0,30,30,55,f,0,0.916366988342,03,03,60.0222941047,PLT_learning_3,B,2014_Mrz_31_1449,P13,
stim_fb/ques.jpg,stim_fb/negf.jpg,stim_fb/posf.jpg,stim_03/f.jpg,stim_03/e.jpg,1,3,f,0,31,31,41,j,0,0.833107473224,03,03,60.0222941047,PLT_learning_3,B,2014_Mrz_31_1449,P13,
stim_fb/ques.jpg,stim_fb/negf.jpg,stim_fb/posf.jpg,stim_03/c.jpg,stim_03/d.jpg,2,2,j,0,32,32,31,j,1,0.849795429375,03,03,60.0222941047,PLT_learning_3,B,2014_Mrz_31_1449,P13,
stim_fb/ques.jpg,stim_fb/negf.jpg,stim_fb/posf.jpg,stim_03/e.jpg,stim_03/f.jpg,2,3,j,0,33,33,53,f,0,1.18295911851,03,03,60.0222941047,PLT_learning_3,B,2014_Mrz_31_1449,P13,
stim_fb/ques.jpg,stim_fb/negf.jpg,stim_fb/posf.jpg,stim_03/d.jpg,stim_03/c.jpg,1,2,f,0,34,34,25,f,1,1.09965434074,03,03,60.0222941047,PLT_learning_3,B,2014_Mrz_31_1449,P13,
stim_fb/ques.jpg,stim_fb/negf.jpg,stim_fb/posf.jpg,stim_03/f.jpg,stim_03/e.jpg,1,3,f,0,35,35,44,j,0,0.766463060942,03,03,60.0222941047,PLT_learning_3,B,2014_Mrz_31_1449,P13,
stim_fb/ques.jpg,stim_fb/negf.jpg,stim_fb/posf.jpg,stim_03/c.jpg,stim_03/d.jpg,2,2,j,0,36,36,34,j,1,0.849751234385,03,03,60.0222941047,PLT_learning_3,B,2014_Mrz_31_1449,P13,
stim_fb/ques.jpg,stim_fb/negf.jpg,stim_fb/posf.jpg,stim_03/b.jpg,stim_03/a.jpg,1,1,f,0,37,37,6,f,1,0.649859485795,03,03,60.0222941047,PLT_learning_3,B,2014_Mrz_31_1449,P13,
stim_fb/ques.jpg,stim_fb/posf.jpg,stim_fb/negf.jpg,stim_03/e.jpg,stim_03/f.jpg,2,3,j,0,38,38,56,f,0,1.14967076612,03,03,60.0222941047,PLT_learning_3,B,2014_Mrz_31_1449,P13,
stim_fb/ques.jpg,stim_fb/posf.jpg,stim_fb/negf.jpg,stim_03/f.jpg,stim_03/e.jpg,1,3,f,0,39,39,49,j,0,0.783155856137,03,03,60.0222941047,PLT_learning_3,B,2014_Mrz_31_1449,P13,
stim_fb/ques.jpg,stim_fb/negf.jpg,stim_fb/posf.jpg,stim_03/e.jpg,stim_03/f.jpg,2,3,j,0,40,40,52,f,0,0.666484774983,03,03,60.0222941047,PLT_learning_3,B,2014_Mrz_31_1449,P13,
stim_fb/ques.jpg,stim_fb/posf.jpg,stim_fb/negf.jpg,stim_03/e.jpg,stim_03/f.jpg,2,3,j,0,41,41,59,f,0,0.666492374898,03,03,60.0222941047,PLT_learning_3,B,2014_Mrz_31_1449,P13,
stim_fb/ques.jpg,stim_fb/negf.jpg,stim_fb/posf.jpg,stim_03/a.jpg,stim_03/b.jpg,2,1,j,0,42,42,14,j,1,0.866428724488,03,03,60.0222941047,PLT_learning_3,B,2014_Mrz_31_1449,P13,
stim_fb/ques.jpg,stim_fb/negf.jpg,stim_fb/posf.jpg,stim_03/e.jpg,stim_03/f.jpg,2,3,j,0,43,43,54,f,0,0.649837735665,03,03,60.0222941047,PLT_learning_3,B,2014_Mrz_31_1449,P13,
stim_fb/ques.jpg,stim_fb/posf.jpg,stim_fb/negf.jpg,stim_03/e.jpg,stim_03/f.jpg,2,3,j,0,44,44,58,f,0,0.699810441236,03,03,60.0222941047,PLT_learning_3,B,2014_Mrz_31_1449,P13,
stim_fb/ques.jpg,stim_fb/negf.jpg,stim_fb/posf.jpg,stim_03/c.jpg,stim_03/d.jpg,2,2,j,0,45,45,36,j,1,0.716476848757,03,03,60.0222941047,PLT_learning_3,B,2014_Mrz_31_1449,P13,
stim_fb/ques.jpg,stim_fb/posf.jpg,stim_fb/negf.jpg,stim_03/e.jpg,stim_03/f.jpg,2,3,j,0,46,46,57,f,0,0.733122420424,03,03,60.0222941047,PLT_learning_3,B,2014_Mrz_31_1449,P13,
stim_fb/ques.jpg,stim_fb/posf.jpg,stim_fb/negf.jpg,stim_03/d.jpg,stim_03/c.jpg,1,2,f,0,47,47,29,f,1,0.749797426345,03,03,60.0222941047,PLT_learning_3,B,2014_Mrz_31_1449,P13,
stim_fb/ques.jpg,stim_fb/negf.jpg,stim_fb/posf.jpg,stim_03/c.jpg,stim_03/d.jpg,2,2,j,0,48,48,35,j,1,0.666474880358,03,03,60.0222941047,PLT_learning_3,B,2014_Mrz_31_1449,P13,
stim_fb/ques.jpg,stim_fb/posf.jpg,stim_fb/negf.jpg,stim_03/d.jpg,stim_03/c.jpg,1,2,f,0,49,49,28,f,1,0.93305472194,03,03,60.0222941047,PLT_learning_3,B,2014_Mrz_31_1449,P13,
stim_fb/ques.jpg,stim_fb/negf.jpg,stim_fb/posf.jpg,stim_03/b.jpg,stim_03/a.jpg,1,1,f,0,50,50,0,f,1,0.63318183028,03,03,60.0222941047,PLT_learning_3,B,2014_Mrz_31_1449,P13,
stim_fb/ques.jpg,stim_fb/negf.jpg,stim_fb/posf.jpg,stim_03/f.jpg,stim_03/e.jpg,1,3,f,0,51,51,42,j,0,0.849763971083,03,03,60.0222941047,PLT_learning_3,B,2014_Mrz_31_1449,P13,
stim_fb/ques.jpg,stim_fb/negf.jpg,stim_fb/posf.jpg,stim_03/d.jpg,stim_03/c.jpg,1,2,f,0,52,52,23,f,1,0.666452997898,03,03,60.0222941047,PLT_learning_3,B,2014_Mrz_31_1449,P13,
stim_fb/ques.jpg,stim_fb/negf.jpg,stim_fb/posf.jpg,stim_03/a.jpg,stim_03/b.jpg,2,1,j,0,53,53,15,j,1,0.916406157825,03,03,60.0222941047,PLT_learning_3,B,2014_Mrz_31_1449,P13,
stim_fb/ques.jpg,stim_fb/posf.jpg,stim_fb/negf.jpg,stim_03/a.jpg,stim_03/b.jpg,2,1,j,0,54,54,19,j,1,0.799750850931,03,03,60.0222941047,PLT_learning_3,B,2014_Mrz_31_1449,P13,
stim_fb/ques.jpg,stim_fb/negf.jpg,stim_fb/posf.jpg,stim_03/a.jpg,stim_03/b.jpg,2,1,j,0,55,55,16,j,1,0.633179983684,03,03,60.0222941047,PLT_learning_3,B,2014_Mrz_31_1449,P13,
stim_fb/ques.jpg,stim_fb/negf.jpg,stim_fb/posf.jpg,stim_03/f.jpg,stim_03/e.jpg,1,3,f,0,56,56,45,j,0,1.49955435991,03,03,60.0222941047,PLT_learning_3,B,2014_Mrz_31_1449,P13,
stim_fb/ques.jpg,stim_fb/negf.jpg,stim_fb/posf.jpg,stim_03/b.jpg,stim_03/a.jpg,1,1,f,0,57,57,1,f,1,0.683127251948,03,03,60.0222941047,PLT_learning_3,B,2014_Mrz_31_1449,P13,
stim_fb/ques.jpg,stim_fb/negf.jpg,stim_fb/posf.jpg,stim_03/d.jpg,stim_03/c.jpg,1,2,f,0,58,58,24,f,1,0.866433190603,03,03,60.0222941047,PLT_learning_3,B,2014_Mrz_31_1449,P13,
stim_fb/ques.jpg,stim_fb/posf.jpg,stim_fb/negf.jpg,stim_03/c.jpg,stim_03/d.jpg,2,2,j,0,59,59,39,j,1,0.783128367725,03,03,60.0222941047,PLT_learning_3,B,2014_Mrz_31_1449,P13,
stim_fb/ques.jpg,stim_fb/negf.jpg,stim_fb/posf.jpg,stim_03/b.jpg,stim_03/a.jpg,1,1,f,1,0,60,2,f,1,0.899780267139,03,03,60.0222941047,PLT_learning_3,B,2014_Mrz_31_1449,P13,
stim_fb/ques.jpg,stim_fb/posf.jpg,stim_fb/negf.jpg,stim_03/e.jpg,stim_03/f.jpg,2,3,j,1,1,61,58,f,0,0.633017164468,03,03,60.0222941047,PLT_learning_3,B,2014_Mrz_31_1449,P13,
stim_fb/ques.jpg,stim_fb/negf.jpg,stim_fb/posf.jpg,stim_03/f.jpg,stim_03/e.jpg,1,3,f,1,2,62,43,j,0,0.749810078833,03,03,60.0222941047,PLT_learning_3,B,2014_Mrz_31_1449,P13,
stim_fb/ques.jpg,stim_fb/negf.jpg,stim_fb/posf.jpg,stim_03/d.jpg,stim_03/c.jpg,1,2,f,1,3,63,22,f,1,0.883079559253,03,03,60.0222941047,PLT_learning_3,B,2014_Mrz_31_1449,P13,
stim_fb/ques.jpg,stim_fb/negf.jpg,stim_fb/posf.jpg,stim_03/f.jpg,stim_03/e.jpg,1,3,f,1,4,64,45,j,0,0.716477603636,03,03,60.0222941047,PLT_learning_3,B,2014_Mrz_31_1449,P13,
stim_fb/ques.jpg,stim_fb/negf.jpg,stim_fb/posf.jpg,stim_03/f.jpg,stim_03/e.jpg,1,3,f,1,5,65,41,j,0,0.783198454153,03,03,60.0222941047,PLT_learning_3,B,2014_Mrz_31_1449,P13,
stim_fb/ques.jpg,stim_fb/posf.jpg,stim_fb/negf.jpg,stim_03/f.jpg,stim_03/e.jpg,1,3,f,1,6,66,47,j,0,1.03304150103,03,03,60.0222941047,PLT_learning_3,B,2014_Mrz_31_1449,P13,
stim_fb/ques.jpg,stim_fb/posf.jpg,stim_fb/negf.jpg,stim_03/f.jpg,stim_03/e.jpg,1,3,f,1,7,67,46,j,0,0.966388670805,03,03,60.0222941047,PLT_learning_3,B,2014_Mrz_31_1449,P13,
stim_fb/ques.jpg,stim_fb/negf.jpg,stim_fb/posf.jpg,stim_03/d.jpg,stim_03/c.jpg,1,2,f,1,8,68,25,f,1,0.833117518224,03,03,60.0222941047,PLT_learning_3,B,2014_Mrz_31_1449,P13,
stim_fb/ques.jpg,stim_fb/posf.jpg,stim_fb/negf.jpg,stim_03/a.jpg,stim_03/b.jpg,2,1,j,1,9,69,19,j,1,0.649831985354,03,03,60.0222941047,PLT_learning_3,B,2014_Mrz_31_1449,P13,
stim_fb/ques.jpg,stim_fb/negf.jpg,stim_fb/posf.jpg,stim_03/f.jpg,stim_03/e.jpg,1,3,f,1,10,70,42,j,0,0.683168607873,03,03,60.0222941047,PLT_learning_3,B,2014_Mrz_31_1449,P13,
stim_fb/ques.jpg,stim_fb/negf.jpg,stim_fb/posf.jpg,stim_03/a.jpg,stim_03/b.jpg,2,1,j,1,11,71,15,j,1,0.650794921862,03,03,60.0222941047,PLT_learning_3,B,2014_Mrz_31_1449,P13,
stim_fb/ques.jpg,stim_fb/posf.jpg,stim_fb/negf.jpg,stim_03/e.jpg,stim_03/f.jpg,2,3,j,1,12,72,59,f,0,0.666497674087,03,03,60.0222941047,PLT_learning_3,B,2014_Mrz_31_1449,P13,
stim_fb/ques.jpg,stim_fb/negf.jpg,stim_fb/posf.jpg,stim_03/e.jpg,stim_03/f.jpg,2,3,j,1,13,73,53,f,0,0.933084553182,03,03,60.0222941047,PLT_learning_3,B,2014_Mrz_31_1449,P13,
stim_fb/ques.jpg,stim_fb/negf.jpg,stim_fb/posf.jpg,stim_03/a.jpg,stim_03/b.jpg,2,1,j,1,14,74,13,j,1,0.933024063639,03,03,60.0222941047,PLT_learning_3,B,2014_Mrz_31_1449,P13,
stim_fb/ques.jpg,stim_fb/posf.jpg,stim_fb/negf.jpg,stim_03/c.jpg,stim_03/d.jpg,2,2,j,1,15,75,38,j,1,0.96639504968,03,03,60.0222941047,PLT_learning_3,B,2014_Mrz_31_1449,P13,
stim_fb/ques.jpg,stim_fb/posf.jpg,stim_fb/negf.jpg,stim_03/f.jpg,stim_03/e.jpg,1,3,f,1,16,76,48,j,0,0.833064472205,03,03,60.0222941047,PLT_learning_3,B,2014_Mrz_31_1449,P13,
stim_fb/ques.jpg,stim_fb/negf.jpg,stim_fb/posf.jpg,stim_03/d.jpg,stim_03/c.jpg,1,2,f,1,17,77,21,f,1,0.916419856919,03,03,60.0222941047,PLT_learning_3,B,2014_Mrz_31_1449,P13,
stim_fb/ques.jpg,stim_fb/negf.jpg,stim_fb/posf.jpg,stim_03/f.jpg,stim_03/e.jpg,1,3,f,1,18,78,40,j,0,0.733214927651,03,03,60.0222941047,PLT_learning_3,B,2014_Mrz_31_1449,P13,
stim_fb/ques.jpg,stim_fb/posf.jpg,stim_fb/negf.jpg,stim_03/b.jpg,stim_03/a.jpg,1,1,f,1,19,79,8,f,1,0.666489779438,03,03,60.0222941047,PLT_learning_3,B,2014_Mrz_31_1449,P13,
stim_fb/ques.jpg,stim_fb/negf.jpg,stim_fb/posf.jpg,stim_03/b.jpg,stim_03/a.jpg,1,1,f,1,20,80,3,f,1,0.399934235328,03,03,60.0222941047,PLT_learning_3,B,2014_Mrz_31_1449,P13,
stim_fb/ques.jpg,stim_fb/negf.jpg,stim_fb/posf.jpg,stim_03/a.jpg,stim_03/b.jpg,2,1,j,1,21,81,12,j,1,0.566528043668,03,03,60.0222941047,PLT_learning_3,B,2014_Mrz_31_1449,P13,
stim_fb/ques.jpg,stim_fb/negf.jpg,stim_fb/posf.jpg,stim_03/e.jpg,stim_03/f.jpg,2,3,j,1,22,82,50,f,0,1.09968448777,03,03,60.0222941047,PLT_learning_3,B,2014_Mrz_31_1449,P13,
stim_fb/ques.jpg,stim_fb/negf.jpg,stim_fb/posf.jpg,stim_03/d.jpg,stim_03/c.jpg,1,2,f,1,23,83,24,f,1,1.29970918824,03,03,60.0222941047,PLT_learning_3,B,2014_Mrz_31_1449,P13,
stim_fb/ques.jpg,stim_fb/negf.jpg,stim_fb/posf.jpg,stim_03/b.jpg,stim_03/a.jpg,1,1,f,1,24,84,1,f,1,0.999677140483,03,03,60.0222941047,PLT_learning_3,B,2014_Mrz_31_1449,P13,
stim_fb/ques.jpg,stim_fb/posf.jpg,stim_fb/negf.jpg,stim_03/f.jpg,stim_03/e.jpg,1,3,f,1,25,85,49,j,0,0.783036040947,03,03,60.0222941047,PLT_learning_3,B,2014_Mrz_31_1449,P13,
stim_fb/ques.jpg,stim_fb/posf.jpg,stim_fb/negf.jpg,stim_03/d.jpg,stim_03/c.jpg,1,2,f,1,26,86,28,f,1,0.74978951666,03,03,60.0222941047,PLT_learning_3,B,2014_Mrz_31_1449,P13,
stim_fb/ques.jpg,stim_fb/negf.jpg,stim_fb/posf.jpg,stim_03/c.jpg,stim_03/d.jpg,2,2,j,1,27,87,34,j,1,0.683156782442,03,03,60.0222941047,PLT_learning_3,B,2014_Mrz_31_1449,P13,
stim_fb/ques.jpg,stim_fb/posf.jpg,stim_fb/negf.jpg,stim_03/e.jpg,stim_03/f.jpg,2,3,j,1,28,88,57,f,0,0.749788316673,03,03,60.0222941047,PLT_learning_3,B,2014_Mrz_31_1449,P13,
stim_fb/ques.jpg,stim_fb/negf.jpg,stim_fb/posf.jpg,stim_03/a.jpg,stim_03/b.jpg,2,1,j,1,29,89,16,j,1,0.766477117928,03,03,60.0222941047,PLT_learning_3,B,2014_Mrz_31_1449,P13,
stim_fb/ques.jpg,stim_fb/negf.jpg,stim_fb/posf.jpg,stim_03/c.jpg,stim_03/d.jpg,2,2,j,1,30,90,32,j,1,0.733100802622,03,03,60.0222941047,PLT_learning_3,B,2014_Mrz_31_1449,P13,
stim_fb/ques.jpg,stim_fb/negf.jpg,stim_fb/posf.jpg,stim_03/e.jpg,stim_03/f.jpg,2,3,j,1,31,91,54,f,0,1.14962935907,03,03,60.0222941047,PLT_learning_3,B,2014_Mrz_31_1449,P13,
stim_fb/ques.jpg,stim_fb/negf.jpg,stim_fb/posf.jpg,stim_03/e.jpg,stim_03/f.jpg,2,3,j,1,32,92,51,f,0,0.916378452875,03,03,60.0222941047,PLT_learning_3,B,2014_Mrz_31_1449,P13,
stim_fb/ques.jpg,stim_fb/posf.jpg,stim_fb/negf.jpg,stim_03/d.jpg,stim_03/c.jpg,1,2,f,1,33,93,29,f,1,0.883094368109,03,03,60.0222941047,PLT_learning_3,B,2014_Mrz_31_1449,P13,
stim_fb/ques.jpg,stim_fb/negf.jpg,stim_fb/posf.jpg,stim_03/d.jpg,stim_03/c.jpg,1,2,f,1,34,94,23,f,1,0.73313657064,03,03,60.0222941047,PLT_learning_3,B,2014_Mrz_31_1449,P13,
stim_fb/ques.jpg,stim_fb/posf.jpg,stim_fb/negf.jpg,stim_03/b.jpg,stim_03/a.jpg,1,1,f,1,35,95,9,f,1,0.683162228997,03,03,60.0222941047,PLT_learning_3,B,2014_Mrz_31_1449,P13,
stim_fb/ques.jpg,stim_fb/negf.jpg,stim_fb/posf.jpg,stim_03/c.jpg,stim_03/d.jpg,2,2,j,1,36,96,35,j,1,1.01635110281,03,03,60.0222941047,PLT_learning_3,B,2014_Mrz_31_1449,P13,
stim_fb/ques.jpg,stim_fb/negf.jpg,stim_fb/posf.jpg,stim_03/b.jpg,stim_03/a.jpg,1,1,f,1,37,97,7,f,1,0.649811275813,03,03,60.0222941047,PLT_learning_3,B,2014_Mrz_31_1449,P13,
stim_fb/ques.jpg,stim_fb/negf.jpg,stim_fb/posf.jpg,stim_03/c.jpg,stim_03/d.jpg,2,2,j,1,38,98,33,j,1,0.649805278887,03,03,60.0222941047,PLT_learning_3,B,2014_Mrz_31_1449,P13,
stim_fb/ques.jpg,stim_fb/negf.jpg,stim_fb/posf.jpg,stim_03/b.jpg,stim_03/a.jpg,1,1,f,1,39,99,0,f,1,0.749788473062,03,03,60.0222941047,PLT_learning_3,B,2014_Mrz_31_1449,P13,
stim_fb/ques.jpg,stim_fb/negf.jpg,stim_fb/posf.jpg,stim_03/d.jpg,stim_03/c.jpg,1,2,f,1,40,100,26,f,1,1.01639002568,03,03,60.0222941047,PLT_learning_3,B,2014_Mrz_31_1449,P13,
stim_fb/ques.jpg,stim_fb/negf.jpg,stim_fb/posf.jpg,stim_03/a.jpg,stim_03/b.jpg,2,1,j,1,41,101,11,j,1,0.799764330477,03,03,60.0222941047,PLT_learning_3,B,2014_Mrz_31_1449,P13,
stim_fb/ques.jpg,stim_fb/negf.jpg,stim_fb/posf.jpg,stim_03/e.jpg,stim_03/f.jpg,2,3,j,1,42,102,55,j,1,1.43294282846,03,03,60.0222941047,PLT_learning_3,B,2014_Mrz_31_1449,P13,
stim_fb/ques.jpg,stim_fb/posf.jpg,stim_fb/negf.jpg,stim_03/a.jpg,stim_03/b.jpg,2,1,j,1,43,103,18,f,0,0.78312759781,03,03,60.0222941047,PLT_learning_3,B,2014_Mrz_31_1449,P13,
stim_fb/ques.jpg,stim_fb/posf.jpg,stim_fb/negf.jpg,stim_03/c.jpg,stim_03/d.jpg,2,2,j,1,44,104,39,j,1,1.38291510396,03,03,60.0222941047,PLT_learning_3,B,2014_Mrz_31_1449,P13,
stim_fb/ques.jpg,stim_fb/negf.jpg,stim_fb/posf.jpg,stim_03/f.jpg,stim_03/e.jpg,1,3,f,1,45,105,44,j,0,0.933041131116,03,03,60.0222941047,PLT_learning_3,B,2014_Mrz_31_1449,P13,
stim_fb/ques.jpg,stim_fb/posf.jpg,stim_fb/negf.jpg,stim_03/e.jpg,stim_03/f.jpg,2,3,j,1,46,106,56,f,0,1.19964278598,03,03,60.0222941047,PLT_learning_3,B,2014_Mrz_31_1449,P13,
stim_fb/ques.jpg,stim_fb/posf.jpg,stim_fb/negf.jpg,stim_03/c.jpg,stim_03/d.jpg,2,2,j,1,47,107,37,j,1,0.61649327564,03,03,60.0222941047,PLT_learning_3,B,2014_Mrz_31_1449,P13,
stim_fb/ques.jpg,stim_fb/negf.jpg,stim_fb/posf.jpg,stim_03/b.jpg,stim_03/a.jpg,1,1,f,1,48,108,4,f,1,0.78310592888,03,03,60.0222941047,PLT_learning_3,B,2014_Mrz_31_1449,P13,
stim_fb/ques.jpg,stim_fb/negf.jpg,stim_fb/posf.jpg,stim_03/b.jpg,stim_03/a.jpg,1,1,f,1,49,109,5,f,1,0.583188487348,03,03,60.0222941047,PLT_learning_3,B,2014_Mrz_31_1449,P13,
stim_fb/ques.jpg,stim_fb/negf.jpg,stim_fb/posf.jpg,stim_03/a.jpg,stim_03/b.jpg,2,1,j,1,50,110,17,j,1,0.583167440968,03,03,60.0222941047,PLT_learning_3,B,2014_Mrz_31_1449,P13,
stim_fb/ques.jpg,stim_fb/negf.jpg,stim_fb/posf.jpg,stim_03/a.jpg,stim_03/b.jpg,2,1,j,1,51,111,14,j,1,0.533160465108,03,03,60.0222941047,PLT_learning_3,B,2014_Mrz_31_1449,P13,
stim_fb/ques.jpg,stim_fb/posf.jpg,stim_fb/negf.jpg,stim_03/d.jpg,stim_03/c.jpg,1,2,f,1,52,112,27,f,1,0.833083058462,03,03,60.0222941047,PLT_learning_3,B,2014_Mrz_31_1449,P13,
stim_fb/ques.jpg,stim_fb/negf.jpg,stim_fb/posf.jpg,stim_03/d.jpg,stim_03/c.jpg,1,2,f,1,53,113,20,f,1,0.966383934016,03,03,60.0222941047,PLT_learning_3,B,2014_Mrz_31_1449,P13,
stim_fb/ques.jpg,stim_fb/negf.jpg,stim_fb/posf.jpg,stim_03/b.jpg,stim_03/a.jpg,1,1,f,1,54,114,6,f,1,0.816435619147,03,03,60.0222941047,PLT_learning_3,B,2014_Mrz_31_1449,P13,
stim_fb/ques.jpg,stim_fb/negf.jpg,stim_fb/posf.jpg,stim_03/c.jpg,stim_03/d.jpg,2,2,j,1,55,115,30,j,1,0.649838496558,03,03,60.0222941047,PLT_learning_3,B,2014_Mrz_31_1449,P13,
stim_fb/ques.jpg,stim_fb/negf.jpg,stim_fb/posf.jpg,stim_03/a.jpg,stim_03/b.jpg,2,1,j,1,56,116,10,j,1,0.699826600451,03,03,60.0222941047,PLT_learning_3,B,2014_Mrz_31_1449,P13,
stim_fb/ques.jpg,stim_fb/negf.jpg,stim_fb/posf.jpg,stim_03/e.jpg,stim_03/f.jpg,2,3,j,1,57,117,52,f,0,0.89971023184,03,03,60.0222941047,PLT_learning_3,B,2014_Mrz_31_1449,P13,
stim_fb/ques.jpg,stim_fb/negf.jpg,stim_fb/posf.jpg,stim_03/c.jpg,stim_03/d.jpg,2,2,j,1,58,118,36,j,1,0.799764053789,03,03,60.0222941047,PLT_learning_3,B,2014_Mrz_31_1449,P13,
stim_fb/ques.jpg,stim_fb/negf.jpg,stim_fb/posf.jpg,stim_03/c.jpg,stim_03/d.jpg,2,2,j,1,59,119,31,j,1,0.633161707198,03,03,60.0222941047,PLT_learning_3,B,2014_Mrz_31_1449,P13,
stim_fb/ques.jpg,stim_fb/posf.jpg,stim_fb/negf.jpg,stim_03/c.jpg,stim_03/d.jpg,2,2,j,2,0,120,37,j,1,0.783125585802,03,03,60.0222941047,PLT_learning_3,B,2014_Mrz_31_1449,P13,
stim_fb/ques.jpg,stim_fb/negf.jpg,stim_fb/posf.jpg,stim_03/a.jpg,stim_03/b.jpg,2,1,j,2,1,121,11,j,1,0.783119850527,03,03,60.0222941047,PLT_learning_3,B,2014_Mrz_31_1449,P13,
stim_fb/ques.jpg,stim_fb/posf.jpg,stim_fb/negf.jpg,stim_03/f.jpg,stim_03/e.jpg,1,3,f,2,2,122,48,j,0,0.699784967839,03,03,60.0222941047,PLT_learning_3,B,2014_Mrz_31_1449,P13,
stim_fb/ques.jpg,stim_fb/posf.jpg,stim_fb/negf.jpg,stim_03/e.jpg,stim_03/f.jpg,2,3,j,2,3,123,58,f,0,0.899690198982,03,03,60.0222941047,PLT_learning_3,B,2014_Mrz_31_1449,P13,
stim_fb/ques.jpg,stim_fb/negf.jpg,stim_fb/posf.jpg,stim_03/d.jpg,stim_03/c.jpg,1,2,f,2,4,124,23,f,1,1.31629155761,03,03,60.0222941047,PLT_learning_3,B,2014_Mrz_31_1449,P13,
stim_fb/ques.jpg,stim_fb/negf.jpg,stim_fb/posf.jpg,stim_03/f.jpg,stim_03/e.jpg,1,3,f,2,5,125,40,j,0,0.749846616767,03,03,60.0222941047,PLT_learning_3,B,2014_Mrz_31_1449,P13,
stim_fb/ques.jpg,stim_fb/posf.jpg,stim_fb/negf.jpg,stim_03/c.jpg,stim_03/d.jpg,2,2,j,2,6,126,38,j,1,0.883091333557,03,03,60.0222941047,PLT_learning_3,B,2014_Mrz_31_1449,P13,
stim_fb/ques.jpg,stim_fb/negf.jpg,stim_fb/posf.jpg,stim_03/f.jpg,stim_03/e.jpg,1,3,f,2,7,127,43,j,0,0.64981039462,03,03,60.0222941047,PLT_learning_3,B,2014_Mrz_31_1449,P13,
stim_fb/ques.jpg,stim_fb/negf.jpg,stim_fb/posf.jpg,stim_03/e.jpg,stim_03/f.jpg,2,3,j,2,8,128,50,j,1,0.716439976993,03,03,60.0222941047,PLT_learning_3,B,2014_Mrz_31_1449,P13,
stim_fb/ques.jpg,stim_fb/negf.jpg,stim_fb/posf.jpg,stim_03/f.jpg,stim_03/e.jpg,1,3,f,2,9,129,45,f,1,0.883159639553,03,03,60.0222941047,PLT_learning_3,B,2014_Mrz_31_1449,P13,
stim_fb/ques.jpg,stim_fb/negf.jpg,stim_fb/posf.jpg,stim_03/b.jpg,stim_03/a.jpg,1,1,f,2,10,130,2,f,1,1.21645783243,03,03,60.0222941047,PLT_learning_3,B,2014_Mrz_31_1449,P13,
stim_fb/ques.jpg,stim_fb/negf.jpg,stim_fb/posf.jpg,stim_03/d.jpg,stim_03/c.jpg,1,2,f,2,11,131,24,f,1,0.999677522434,03,03,60.0222941047,PLT_learning_3,B,2014_Mrz_31_1449,P13,
stim_fb/ques.jpg,stim_fb/posf.jpg,stim_fb/negf.jpg,stim_03/d.jpg,stim_03/c.jpg,1,2,f,2,12,132,28,f,1,0.74979933309,03,03,60.0222941047,PLT_learning_3,B,2014_Mrz_31_1449,P13,
stim_fb/ques.jpg,stim_fb/negf.jpg,stim_fb/posf.jpg,stim_03/c.jpg,stim_03/d.jpg,2,2,j,2,13,133,30,j,1,0.866440841644,03,03,60.0222941047,PLT_learning_3,B,2014_Mrz_31_1449,P13,
stim_fb/ques.jpg,stim_fb/posf.jpg,stim_fb/negf.jpg,stim_03/f.jpg,stim_03/e.jpg,1,3,f,2,14,134,47,j,0,1.08305575501,03,03,60.0222941047,PLT_learning_3,B,2014_Mrz_31_1449,P13,
stim_fb/ques.jpg,stim_fb/negf.jpg,stim_fb/posf.jpg,stim_03/f.jpg,stim_03/e.jpg,1,3,f,2,15,135,42,f,1,0.5498500453,03,03,60.0222941047,PLT_learning_3,B,2014_Mrz_31_1449,P13,
stim_fb/ques.jpg,stim_fb/negf.jpg,stim_fb/posf.jpg,stim_03/c.jpg,stim_03/d.jpg,2,2,j,2,16,136,36,j,1,0.766480447213,03,03,60.0222941047,PLT_learning_3,B,2014_Mrz_31_1449,P13,
stim_fb/ques.jpg,stim_fb/negf.jpg,stim_fb/posf.jpg,stim_03/a.jpg,stim_03/b.jpg,2,1,j,2,17,137,15,j,1,0.916359556848,03,03,60.0222941047,PLT_learning_3,B,2014_Mrz_31_1449,P13,
stim_fb/ques.jpg,stim_fb/negf.jpg,stim_fb/posf.jpg,stim_03/d.jpg,stim_03/c.jpg,1,2,f,2,18,138,22,f,1,0.699818113329,03,03,60.0222941047,PLT_learning_3,B,2014_Mrz_31_1449,P13,
stim_fb/ques.jpg,stim_fb/posf.jpg,stim_fb/negf.jpg,stim_03/e.jpg,stim_03/f.jpg,2,3,j,2,19,139,56,j,1,0.933074751789,03,03,60.0222941047,PLT_learning_3,B,2014_Mrz_31_1449,P13,
stim_fb/ques.jpg,stim_fb/negf.jpg,stim_fb/posf.jpg,stim_03/a.jpg,stim_03/b.jpg,2,1,j,2,20,140,13,f,0,0.849785585877,03,03,60.0222941047,PLT_learning_3,B,2014_Mrz_31_1449,P13,
stim_fb/ques.jpg,stim_fb/negf.jpg,stim_fb/posf.jpg,stim_03/e.jpg,stim_03/f.jpg,2,3,j,2,21,141,54,j,1,1.08301031492,03,03,60.0222941047,PLT_learning_3,B,2014_Mrz_31_1449,P13,
stim_fb/ques.jpg,stim_fb/negf.jpg,stim_fb/posf.jpg,stim_03/c.jpg,stim_03/d.jpg,2,2,j,2,22,142,32,j,1,0.866404093187,03,03,60.0222941047,PLT_learning_3,B,2014_Mrz_31_1449,P13,
stim_fb/ques.jpg,stim_fb/negf.jpg,stim_fb/posf.jpg,stim_03/a.jpg,stim_03/b.jpg,2,1,j,2,23,143,16,j,1,0.96637316722,03,03,60.0222941047,PLT_learning_3,B,2014_Mrz_31_1449,P13,
stim_fb/ques.jpg,stim_fb/posf.jpg,stim_fb/negf.jpg,stim_03/b.jpg,stim_03/a.jpg,1,1,f,2,24,144,9,f,1,0.833126170758,03,03,60.0222941047,PLT_learning_3,B,2014_Mrz_31_1449,P13,
stim_fb/ques.jpg,stim_fb/posf.jpg,stim_fb/negf.jpg,stim_03/a.jpg,stim_03/b.jpg,2,1,j,2,25,145,19,j,1,0.516506258952,03,03,60.0222941047,PLT_learning_3,B,2014_Mrz_31_1449,P13,
stim_fb/ques.jpg,stim_fb/negf.jpg,stim_fb/posf.jpg,stim_03/b.jpg,stim_03/a.jpg,1,1,f,2,26,146,5,j,0,0.73313116619,03,03,60.0222941047,PLT_learning_3,B,2014_Mrz_31_1449,P13,
stim_fb/ques.jpg,stim_fb/negf.jpg,stim_fb/posf.jpg,stim_03/c.jpg,stim_03/d.jpg,2,2,j,2,27,147,35,j,1,0.799800309019,03,03,60.0222941047,PLT_learning_3,B,2014_Mrz_31_1449,P13,
stim_fb/ques.jpg,stim_fb/posf.jpg,stim_fb/negf.jpg,stim_03/e.jpg,stim_03/f.jpg,2,3,j,2,28,148,57,j,1,1.44955319151,03,03,60.0222941047,PLT_learning_3,B,2014_Mrz_31_1449,P13,
stim_fb/ques.jpg,stim_fb/negf.jpg,stim_fb/posf.jpg,stim_03/e.jpg,stim_03/f.jpg,2,3,j,2,29,149,55,j,1,0.633186332485,03,03,60.0222941047,PLT_learning_3,B,2014_Mrz_31_1449,P13,
stim_fb/ques.jpg,stim_fb/posf.jpg,stim_fb/negf.jpg,stim_03/b.jpg,stim_03/a.jpg,1,1,f,2,30,150,8,f,1,1.33293004365,03,03,60.0222941047,PLT_learning_3,B,2014_Mrz_31_1449,P13,
stim_fb/ques.jpg,stim_fb/negf.jpg,stim_fb/posf.jpg,stim_03/f.jpg,stim_03/e.jpg,1,3,f,2,31,151,41,f,1,1.14966175269,03,03,60.0222941047,PLT_learning_3,B,2014_Mrz_31_1449,P13,
stim_fb/ques.jpg,stim_fb/posf.jpg,stim_fb/negf.jpg,stim_03/e.jpg,stim_03/f.jpg,2,3,j,2,32,152,59,f,0,1.03304421379,03,03,60.0222941047,PLT_learning_3,B,2014_Mrz_31_1449,P13,
stim_fb/ques.jpg,stim_fb/negf.jpg,stim_fb/posf.jpg,stim_03/f.jpg,stim_03/e.jpg,1,3,f,2,33,153,44,f,1,0.89979226099,03,03,60.0222941047,PLT_learning_3,B,2014_Mrz_31_1449,P13,
stim_fb/ques.jpg,stim_fb/negf.jpg,stim_fb/posf.jpg,stim_03/d.jpg,stim_03/c.jpg,1,2,f,2,34,154,26,f,1,1.26630271087,03,03,60.0222941047,PLT_learning_3,B,2014_Mrz_31_1449,P13,
stim_fb/ques.jpg,stim_fb/negf.jpg,stim_fb/posf.jpg,stim_03/e.jpg,stim_03/f.jpg,2,3,j,2,35,155,53,j,1,1.61618100548,03,03,60.0222941047,PLT_learning_3,B,2014_Mrz_31_1449,P13,
stim_fb/ques.jpg,stim_fb/negf.jpg,stim_fb/posf.jpg,stim_03/b.jpg,stim_03/a.jpg,1,1,f,2,36,156,6,f,1,0.849690949351,03,03,60.0222941047,PLT_learning_3,B,2014_Mrz_31_1449,P13,
stim_fb/ques.jpg,stim_fb/posf.jpg,stim_fb/negf.jpg,stim_03/f.jpg,stim_03/e.jpg,1,3,f,2,37,157,46,f,1,1.14972096706,03,03,60.0222941047,PLT_learning_3,B,2014_Mrz_31_1449,P13,
stim_fb/ques.jpg,stim_fb/negf.jpg,stim_fb/posf.jpg,stim_03/a.jpg,stim_03/b.jpg,2,1,j,2,38,158,10,j,1,0.933075888617,03,03,60.0222941047,PLT_learning_3,B,2014_Mrz_31_1449,P13,
stim_fb/ques.jpg,stim_fb/negf.jpg,stim_fb/posf.jpg,stim_03/b.jpg,stim_03/a.jpg,1,1,f,2,39,159,0,f,1,1.08303400789,03,03,60.0222941047,PLT_learning_3,B,2014_Mrz_31_1449,P13,
stim_fb/ques.jpg,stim_fb/negf.jpg,stim_fb/posf.jpg,stim_03/c.jpg,stim_03/d.jpg,2,2,j,2,40,160,34,j,1,0.966355802002,03,03,60.0222941047,PLT_learning_3,B,2014_Mrz_31_1449,P13,
stim_fb/ques.jpg,stim_fb/posf.jpg,stim_fb/negf.jpg,stim_03/f.jpg,stim_03/e.jpg,1,3,f,2,41,161,49,j,0,0.916391568516,03,03,60.0222941047,PLT_learning_3,B,2014_Mrz_31_1449,P13,
stim_fb/ques.jpg,stim_fb/negf.jpg,stim_fb/posf.jpg,stim_03/b.jpg,stim_03/a.jpg,1,1,f,2,42,162,1,f,1,1.43298215734,03,03,60.0222941047,PLT_learning_3,B,2014_Mrz_31_1449,P13,
stim_fb/ques.jpg,stim_fb/posf.jpg,stim_fb/negf.jpg,stim_03/d.jpg,stim_03/c.jpg,1,2,f,2,43,163,27,None,0,,03,03,60.0222941047,PLT_learning_3,B,2014_Mrz_31_1449,P13,
stim_fb/ques.jpg,stim_fb/negf.jpg,stim_fb/posf.jpg,stim_03/e.jpg,stim_03/f.jpg,2,3,j,2,44,164,51,j,1,0.999702442454,03,03,60.0222941047,PLT_learning_3,B,2014_Mrz_31_1449,P13,
stim_fb/ques.jpg,stim_fb/negf.jpg,stim_fb/posf.jpg,stim_03/d.jpg,stim_03/c.jpg,1,2,f,2,45,165,21,j,0,1.31627404804,03,03,60.0222941047,PLT_learning_3,B,2014_Mrz_31_1449,P13,
stim_fb/ques.jpg,stim_fb/posf.jpg,stim_fb/negf.jpg,stim_03/c.jpg,stim_03/d.jpg,2,2,j,2,46,166,39,f,0,0.449903205603,03,03,60.0222941047,PLT_learning_3,B,2014_Mrz_31_1449,P13,
stim_fb/ques.jpg,stim_fb/negf.jpg,stim_fb/posf.jpg,stim_03/b.jpg,stim_03/a.jpg,1,1,f,2,47,167,4,f,1,0.799733055642,03,03,60.0222941047,PLT_learning_3,B,2014_Mrz_31_1449,P13,
stim_fb/ques.jpg,stim_fb/negf.jpg,stim_fb/posf.jpg,stim_03/a.jpg,stim_03/b.jpg,2,1,j,2,48,168,14,j,1,1.08302034488,03,03,60.0222941047,PLT_learning_3,B,2014_Mrz_31_1449,P13,
stim_fb/ques.jpg,stim_fb/negf.jpg,stim_fb/posf.jpg,stim_03/d.jpg,stim_03/c.jpg,1,2,f,2,49,169,25,f,1,1.21630837547,03,03,60.0222941047,PLT_learning_3,B,2014_Mrz_31_1449,P13,
stim_fb/ques.jpg,stim_fb/negf.jpg,stim_fb/posf.jpg,stim_03/e.jpg,stim_03/f.jpg,2,3,j,2,50,170,52,j,1,1.06636200043,03,03,60.0222941047,PLT_learning_3,B,2014_Mrz_31_1449,P13,
stim_fb/ques.jpg,stim_fb/negf.jpg,stim_fb/posf.jpg,stim_03/b.jpg,stim_03/a.jpg,1,1,f,2,51,171,3,f,1,1.24963693793,03,03,60.0222941047,PLT_learning_3,B,2014_Mrz_31_1449,P13,
stim_fb/ques.jpg,stim_fb/negf.jpg,stim_fb/posf.jpg,stim_03/a.jpg,stim_03/b.jpg,2,1,j,2,52,172,12,j,1,0.933090829802,03,03,60.0222941047,PLT_learning_3,B,2014_Mrz_31_1449,P13,
stim_fb/ques.jpg,stim_fb/negf.jpg,stim_fb/posf.jpg,stim_03/c.jpg,stim_03/d.jpg,2,2,j,2,53,173,31,j,1,0.849752374222,03,03,60.0222941047,PLT_learning_3,B,2014_Mrz_31_1449,P13,
stim_fb/ques.jpg,stim_fb/negf.jpg,stim_fb/posf.jpg,stim_03/d.jpg,stim_03/c.jpg,1,2,f,2,54,174,20,f,1,1.13300281876,03,03,60.0222941047,PLT_learning_3,B,2014_Mrz_31_1449,P13,
stim_fb/ques.jpg,stim_fb/negf.jpg,stim_fb/posf.jpg,stim_03/c.jpg,stim_03/d.jpg,2,2,j,2,55,175,33,j,1,0.76646306395,03,03,60.0222941047,PLT_learning_3,B,2014_Mrz_31_1449,P13,
stim_fb/ques.jpg,stim_fb/negf.jpg,stim_fb/posf.jpg,stim_03/b.jpg,stim_03/a.jpg,1,1,f,2,56,176,7,f,1,0.783110942358,03,03,60.0222941047,PLT_learning_3,B,2014_Mrz_31_1449,P13,
stim_fb/ques.jpg,stim_fb/posf.jpg,stim_fb/negf.jpg,stim_03/d.jpg,stim_03/c.jpg,1,2,f,2,57,177,29,f,1,0.766447755852,03,03,60.0222941047,PLT_learning_3,B,2014_Mrz_31_1449,P13,
stim_fb/ques.jpg,stim_fb/posf.jpg,stim_fb/negf.jpg,stim_03/a.jpg,stim_03/b.jpg,2,1,j,2,58,178,18,j,1,0.783068296222,03,03,60.0222941047,PLT_learning_3,B,2014_Mrz_31_1449,P13,
stim_fb/ques.jpg,stim_fb/negf.jpg,stim_fb/posf.jpg,stim_03/a.jpg,stim_03/b.jpg,2,1,j,2,59,179,17,j,1,1.49953890746,03,03,60.0222941047,PLT_learning_3,B,2014_Mrz_31_1449,P13,
stim_fb/ques.jpg,stim_fb/negf.jpg,stim_fb/posf.jpg,stim_03/e.jpg,stim_03/f.jpg,2,3,j,3,0,180,51,j,1,1.68284976936,03,03,60.0222941047,PLT_learning_3,B,2014_Mrz_31_1449,P13,
stim_fb/ques.jpg,stim_fb/negf.jpg,stim_fb/posf.jpg,stim_03/c.jpg,stim_03/d.jpg,2,2,j,3,1,181,36,j,1,1.24963701011,03,03,60.0222941047,PLT_learning_3,B,2014_Mrz_31_1449,P13,
stim_fb/ques.jpg,stim_fb/posf.jpg,stim_fb/negf.jpg,stim_03/a.jpg,stim_03/b.jpg,2,1,j,3,2,182,19,j,1,0.86642038774,03,03,60.0222941047,PLT_learning_3,B,2014_Mrz_31_1449,P13,
stim_fb/ques.jpg,stim_fb/negf.jpg,stim_fb/posf.jpg,stim_03/e.jpg,stim_03/f.jpg,2,3,j,3,3,183,55,j,1,0.799771223633,03,03,60.0222941047,PLT_learning_3,B,2014_Mrz_31_1449,P13,
stim_fb/ques.jpg,stim_fb/negf.jpg,stim_fb/posf.jpg,stim_03/f.jpg,stim_03/e.jpg,1,3,f,3,4,184,42,j,0,0.966400631572,03,03,60.0222941047,PLT_learning_3,B,2014_Mrz_31_1449,P13,
stim_fb/ques.jpg,stim_fb/negf.jpg,stim_fb/posf.jpg,stim_03/e.jpg,stim_03/f.jpg,2,3,j,3,5,185,50,f,0,1.03306073089,03,03,60.0222941047,PLT_learning_3,B,2014_Mrz_31_1449,P13,
stim_fb/ques.jpg,stim_fb/negf.jpg,stim_fb/posf.jpg,stim_03/b.jpg,stim_03/a.jpg,1,1,f,3,6,186,3,f,1,0.799756393724,03,03,60.0222941047,PLT_learning_3,B,2014_Mrz_31_1449,P13,
stim_fb/ques.jpg,stim_fb/negf.jpg,stim_fb/posf.jpg,stim_03/c.jpg,stim_03/d.jpg,2,2,j,3,7,187,30,j,1,0.99969174483,03,03,60.0222941047,PLT_learning_3,B,2014_Mrz_31_1449,P13,
stim_fb/ques.jpg,stim_fb/negf.jpg,stim_fb/posf.jpg,stim_03/f.jpg,stim_03/e.jpg,1,3,f,3,8,188,40,f,1,1.21634318109,03,03,60.0222941047,PLT_learning_3,B,2014_Mrz_31_1449,P13,
stim_fb/ques.jpg,stim_fb/negf.jpg,stim_fb/posf.jpg,stim_03/e.jpg,stim_03/f.jpg,2,3,j,3,9,189,54,j,1,0.999706286019,03,03,60.0222941047,PLT_learning_3,B,2014_Mrz_31_1449,P13,
stim_fb/ques.jpg,stim_fb/posf.jpg,stim_fb/negf.jpg,stim_03/e.jpg,stim_03/f.jpg,2,3,j,3,10,190,59,j,1,1.06633202483,03,03,60.0222941047,PLT_learning_3,B,2014_Mrz_31_1449,P13,
stim_fb/ques.jpg,stim_fb/negf.jpg,stim_fb/posf.jpg,stim_03/b.jpg,stim_03/a.jpg,1,1,f,3,11,191,0,f,1,0.933061031642,03,03,60.0222941047,PLT_learning_3,B,2014_Mrz_31_1449,P13,
stim_fb/ques.jpg,stim_fb/negf.jpg,stim_fb/posf.jpg,stim_03/a.jpg,stim_03/b.jpg,2,1,j,3,12,192,17,j,1,1.09972199712,03,03,60.0222941047,PLT_learning_3,B,2014_Mrz_31_1449,P13,
stim_fb/ques.jpg,stim_fb/negf.jpg,stim_fb/posf.jpg,stim_03/a.jpg,stim_03/b.jpg,2,1,j,3,13,193,10,j,1,0.716478226185,03,03,60.0222941047,PLT_learning_3,B,2014_Mrz_31_1449,P13,
stim_fb/ques.jpg,stim_fb/posf.jpg,stim_fb/negf.jpg,stim_03/b.jpg,stim_03/a.jpg,1,1,f,3,14,194,9,f,1,1.16635613583,03,03,60.0222941047,PLT_learning_3,B,2014_Mrz_31_1449,P13,
stim_fb/ques.jpg,stim_fb/negf.jpg,stim_fb/posf.jpg,stim_03/b.jpg,stim_03/a.jpg,1,1,f,3,15,195,1,f,1,0.749760954575,03,03,60.0222941047,PLT_learning_3,B,2014_Mrz_31_1449,P13,
stim_fb/ques.jpg,stim_fb/negf.jpg,stim_fb/posf.jpg,stim_03/b.jpg,stim_03/a.jpg,1,1,f,3,16,196,7,f,1,0.899698075586,03,03,60.0222941047,PLT_learning_3,B,2014_Mrz_31_1449,P13,
stim_fb/ques.jpg,stim_fb/negf.jpg,stim_fb/posf.jpg,stim_03/c.jpg,stim_03/d.jpg,2,2,j,3,17,197,33,j,1,1.34958993094,03,03,60.0222941047,PLT_learning_3,B,2014_Mrz_31_1449,P13,
stim_fb/ques.jpg,stim_fb/negf.jpg,stim_fb/posf.jpg,stim_03/e.jpg,stim_03/f.jpg,2,3,j,3,18,198,53,j,1,1.11638300921,03,03,60.0222941047,PLT_learning_3,B,2014_Mrz_31_1449,P13,
stim_fb/ques.jpg,stim_fb/posf.jpg,stim_fb/negf.jpg,stim_03/f.jpg,stim_03/e.jpg,1,3,f,3,19,199,47,j,0,0.816435622155,03,03,60.0222941047,PLT_learning_3,B,2014_Mrz_31_1449,P13,
stim_fb/ques.jpg,stim_fb/posf.jpg,stim_fb/negf.jpg,stim_03/c.jpg,stim_03/d.jpg,2,2,j,3,20,200,38,j,1,1.0830498423,03,03,60.0222941047,PLT_learning_3,B,2014_Mrz_31_1449,P13,
stim_fb/ques.jpg,stim_fb/negf.jpg,stim_fb/posf.jpg,stim_03/f.jpg,stim_03/e.jpg,1,3,f,3,21,201,45,j,0,0.833144597617,03,03,60.0222941047,PLT_learning_3,B,2014_Mrz_31_1449,P13,
stim_fb/ques.jpg,stim_fb/negf.jpg,stim_fb/posf.jpg,stim_03/d.jpg,stim_03/c.jpg,1,2,f,3,22,202,23,f,1,0.999572600309,03,03,60.0222941047,PLT_learning_3,B,2014_Mrz_31_1449,P13,
stim_fb/ques.jpg,stim_fb/negf.jpg,stim_fb/posf.jpg,stim_03/c.jpg,stim_03/d.jpg,2,2,j,3,23,203,35,j,1,0.666462748165,03,03,60.0222941047,PLT_learning_3,B,2014_Mrz_31_1449,P13,
stim_fb/ques.jpg,stim_fb/posf.jpg,stim_fb/negf.jpg,stim_03/c.jpg,stim_03/d.jpg,2,2,j,3,24,204,39,j,1,0.583209223956,03,03,60.0222941047,PLT_learning_3,B,2014_Mrz_31_1449,P13,
stim_fb/ques.jpg,stim_fb/posf.jpg,stim_fb/negf.jpg,stim_03/d.jpg,stim_03/c.jpg,1,2,f,3,25,205,27,f,1,0.599849956579,03,03,60.0222941047,PLT_learning_3,B,2014_Mrz_31_1449,P13,
stim_fb/ques.jpg,stim_fb/posf.jpg,stim_fb/negf.jpg,stim_03/e.jpg,stim_03/f.jpg,2,3,j,3,26,206,56,j,1,1.31625317308,03,03,60.0222941047,PLT_learning_3,B,2014_Mrz_31_1449,P13,
stim_fb/ques.jpg,stim_fb/negf.jpg,stim_fb/posf.jpg,stim_03/f.jpg,stim_03/e.jpg,1,3,f,3,27,207,41,j,0,0.999740637511,03,03,60.0222941047,PLT_learning_3,B,2014_Mrz_31_1449,P13,
stim_fb/ques.jpg,stim_fb/negf.jpg,stim_fb/posf.jpg,stim_03/c.jpg,stim_03/d.jpg,2,2,j,3,28,208,32,j,1,0.749748187803,03,03,60.0222941047,PLT_learning_3,B,2014_Mrz_31_1449,P13,
stim_fb/ques.jpg,stim_fb/negf.jpg,stim_fb/posf.jpg,stim_03/a.jpg,stim_03/b.jpg,2,1,j,3,29,209,14,j,1,0.899744207396,03,03,60.0222941047,PLT_learning_3,B,2014_Mrz_31_1449,P13,
stim_fb/ques.jpg,stim_fb/negf.jpg,stim_fb/posf.jpg,stim_03/d.jpg,stim_03/c.jpg,1,2,f,3,30,210,22,f,1,1.13300511348,03,03,60.0222941047,PLT_learning_3,B,2014_Mrz_31_1449,P13,
stim_fb/ques.jpg,stim_fb/negf.jpg,stim_fb/posf.jpg,stim_03/f.jpg,stim_03/e.jpg,1,3,f,3,31,211,44,j,0,1.04967657056,03,03,60.0222941047,PLT_learning_3,B,2014_Mrz_31_1449,P13,
stim_fb/ques.jpg,stim_fb/negf.jpg,stim_fb/posf.jpg,stim_03/a.jpg,stim_03/b.jpg,2,1,j,3,32,212,16,j,1,1.33294731262,03,03,60.0222941047,PLT_learning_3,B,2014_Mrz_31_1449,P13,
stim_fb/ques.jpg,stim_fb/negf.jpg,stim_fb/posf.jpg,stim_03/d.jpg,stim_03/c.jpg,1,2,f,3,33,213,24,f,1,1.28294803893,03,03,60.0222941047,PLT_learning_3,B,2014_Mrz_31_1449,P13,
stim_fb/ques.jpg,stim_fb/negf.jpg,stim_fb/posf.jpg,stim_03/d.jpg,stim_03/c.jpg,1,2,f,3,34,214,25,None,0,,03,03,60.0222941047,PLT_learning_3,B,2014_Mrz_31_1449,P13,
stim_fb/ques.jpg,stim_fb/negf.jpg,stim_fb/posf.jpg,stim_03/d.jpg,stim_03/c.jpg,1,2,f,3,35,215,21,f,1,0.766425079417,03,03,60.0222941047,PLT_learning_3,B,2014_Mrz_31_1449,P13,
stim_fb/ques.jpg,stim_fb/negf.jpg,stim_fb/posf.jpg,stim_03/d.jpg,stim_03/c.jpg,1,2,f,3,36,216,20,f,1,0.683080681045,03,03,60.0222941047,PLT_learning_3,B,2014_Mrz_31_1449,P13,
stim_fb/ques.jpg,stim_fb/negf.jpg,stim_fb/posf.jpg,stim_03/a.jpg,stim_03/b.jpg,2,1,j,3,37,217,12,j,1,0.833089112529,03,03,60.0222941047,PLT_learning_3,B,2014_Mrz_31_1449,P13,
stim_fb/ques.jpg,stim_fb/negf.jpg,stim_fb/posf.jpg,stim_03/b.jpg,stim_03/a.jpg,1,1,f,3,38,218,4,f,1,1.36626743608,03,03,60.0222941047,PLT_learning_3,B,2014_Mrz_31_1449,P13,
stim_fb/ques.jpg,stim_fb/posf.jpg,stim_fb/negf.jpg,stim_03/d.jpg,stim_03/c.jpg,1,2,f,3,39,219,28,f,1,0.883083769732,03,03,60.0222941047,PLT_learning_3,B,2014_Mrz_31_1449,P13,
stim_fb/ques.jpg,stim_fb/negf.jpg,stim_fb/posf.jpg,stim_03/c.jpg,stim_03/d.jpg,2,2,j,3,40,220,34,j,1,0.733144038225,03,03,60.0222941047,PLT_learning_3,B,2014_Mrz_31_1449,P13,
stim_fb/ques.jpg,stim_fb/negf.jpg,stim_fb/posf.jpg,stim_03/e.jpg,stim_03/f.jpg,2,3,j,3,41,221,52,f,0,1.09967874046,03,03,60.0222941047,PLT_learning_3,B,2014_Mrz_31_1449,P13,
stim_fb/ques.jpg,stim_fb/posf.jpg,stim_fb/negf.jpg,stim_03/c.jpg,stim_03/d.jpg,2,2,j,3,42,222,37,j,1,0.699830239509,03,03,60.0222941047,PLT_learning_3,B,2014_Mrz_31_1449,P13,
stim_fb/ques.jpg,stim_fb/negf.jpg,stim_fb/posf.jpg,stim_03/f.jpg,stim_03/e.jpg,1,3,f,3,43,223,43,j,0,0.866431277842,03,03,60.0222941047,PLT_learning_3,B,2014_Mrz_31_1449,P13,
stim_fb/ques.jpg,stim_fb/posf.jpg,stim_fb/negf.jpg,stim_03/f.jpg,stim_03/e.jpg,1,3,f,3,44,224,48,j,0,1.29962054563,03,03,60.0222941047,PLT_learning_3,B,2014_Mrz_31_1449,P13,
stim_fb/ques.jpg,stim_fb/negf.jpg,stim_fb/posf.jpg,stim_03/b.jpg,stim_03/a.jpg,1,1,f,3,45,225,5,f,1,0.983027719237,03,03,60.0222941047,PLT_learning_3,B,2014_Mrz_31_1449,P13,
stim_fb/ques.jpg,stim_fb/posf.jpg,stim_fb/negf.jpg,stim_03/e.jpg,stim_03/f.jpg,2,3,j,3,46,226,57,f,0,1.16631312579,03,03,60.0222941047,PLT_learning_3,B,2014_Mrz_31_1449,P13,
stim_fb/ques.jpg,stim_fb/posf.jpg,stim_fb/negf.jpg,stim_03/a.jpg,stim_03/b.jpg,2,1,j,3,47,227,18,j,1,0.983034810885,03,03,60.0222941047,PLT_learning_3,B,2014_Mrz_31_1449,P13,
stim_fb/ques.jpg,stim_fb/negf.jpg,stim_fb/posf.jpg,stim_03/a.jpg,stim_03/b.jpg,2,1,j,3,48,228,15,j,1,0.733112375424,03,03,60.0222941047,PLT_learning_3,B,2014_Mrz_31_1449,P13,
stim_fb/ques.jpg,stim_fb/posf.jpg,stim_fb/negf.jpg,stim_03/f.jpg,stim_03/e.jpg,1,3,f,3,49,229,49,j,0,1.48289340496,03,03,60.0222941047,PLT_learning_3,B,2014_Mrz_31_1449,P13,
stim_fb/ques.jpg,stim_fb/negf.jpg,stim_fb/posf.jpg,stim_03/b.jpg,stim_03/a.jpg,1,1,f,3,50,230,6,f,1,0.94973614884,03,03,60.0222941047,PLT_learning_3,B,2014_Mrz_31_1449,P13,
stim_fb/ques.jpg,stim_fb/negf.jpg,stim_fb/posf.jpg,stim_03/a.jpg,stim_03/b.jpg,2,1,j,3,51,231,13,j,1,0.783100885328,03,03,60.0222941047,PLT_learning_3,B,2014_Mrz_31_1449,P13,
stim_fb/ques.jpg,stim_fb/negf.jpg,stim_fb/posf.jpg,stim_03/d.jpg,stim_03/c.jpg,1,2,f,3,52,232,26,None,0,,03,03,60.0222941047,PLT_learning_3,B,2014_Mrz_31_1449,P13,
stim_fb/ques.jpg,stim_fb/posf.jpg,stim_fb/negf.jpg,stim_03/d.jpg,stim_03/c.jpg,1,2,f,3,53,233,29,f,1,1.06635308023,03,03,60.0222941047,PLT_learning_3,B,2014_Mrz_31_1449,P13,
stim_fb/ques.jpg,stim_fb/negf.jpg,stim_fb/posf.jpg,stim_03/b.jpg,stim_03/a.jpg,1,1,f,3,54,234,2,f,1,0.866426995184,03,03,60.0222941047,PLT_learning_3,B,2014_Mrz_31_1449,P13,
stim_fb/ques.jpg,stim_fb/negf.jpg,stim_fb/posf.jpg,stim_03/a.jpg,stim_03/b.jpg,2,1,j,3,55,235,11,j,1,0.983067375932,03,03,60.0222941047,PLT_learning_3,B,2014_Mrz_31_1449,P13,
stim_fb/ques.jpg,stim_fb/negf.jpg,stim_fb/posf.jpg,stim_03/c.jpg,stim_03/d.jpg,2,2,j,3,56,236,31,j,1,0.84977216648,03,03,60.0222941047,PLT_learning_3,B,2014_Mrz_31_1449,P13,
stim_fb/ques.jpg,stim_fb/posf.jpg,stim_fb/negf.jpg,stim_03/f.jpg,stim_03/e.jpg,1,3,f,3,57,237,46,j,0,0.949748855464,03,03,60.0222941047,PLT_learning_3,B,2014_Mrz_31_1449,P13,
stim_fb/ques.jpg,stim_fb/posf.jpg,stim_fb/negf.jpg,stim_03/e.jpg,stim_03/f.jpg,2,3,j,3,58,238,58,f,0,1.64944469047,03,03,60.0222941047,PLT_learning_3,B,2014_Mrz_31_1449,P13,
stim_fb/ques.jpg,stim_fb/posf.jpg,stim_fb/negf.jpg,stim_03/b.jpg,stim_03/a.jpg,1,1,f,3,59,239,8,f,1,1.0829728176,03,03,60.0222941047,PLT_learning_3,B,2014_Mrz_31_1449,P13,
stim_fb/ques.jpg,stim_fb/negf.jpg,stim_fb/posf.jpg,stim_03/b.jpg,stim_03/a.jpg,1,1,f,4,0,240,4,f,1,0.866427265858,03,03,60.0222941047,PLT_learning_3,B,2014_Mrz_31_1449,P13,
stim_fb/ques.jpg,stim_fb/posf.jpg,stim_fb/negf.jpg,stim_03/d.jpg,stim_03/c.jpg,1,2,f,4,1,241,29,f,1,0.683157537321,03,03,60.0222941047,PLT_learning_3,B,2014_Mrz_31_1449,P13,
stim_fb/ques.jpg,stim_fb/negf.jpg,stim_fb/posf.jpg,stim_03/b.jpg,stim_03/a.jpg,1,1,f,4,2,242,1,f,1,0.866437058229,03,03,60.0222941047,PLT_learning_3,B,2014_Mrz_31_1449,P13,
stim_fb/ques.jpg,stim_fb/negf.jpg,stim_fb/posf.jpg,stim_03/b.jpg,stim_03/a.jpg,1,1,f,4,3,243,7,f,1,0.683153215566,03,03,60.0222941047,PLT_learning_3,B,2014_Mrz_31_1449,P13,
stim_fb/ques.jpg,stim_fb/posf.jpg,stim_fb/negf.jpg,stim_03/f.jpg,stim_03/e.jpg,1,3,f,4,4,244,48,j,0,0.899747211874,03,03,60.0222941047,PLT_learning_3,B,2014_Mrz_31_1449,P13,
stim_fb/ques.jpg,stim_fb/negf.jpg,stim_fb/posf.jpg,stim_03/c.jpg,stim_03/d.jpg,2,2,j,4,5,245,34,j,1,0.749798590242,03,03,60.0222941047,PLT_learning_3,B,2014_Mrz_31_1449,P13,
stim_fb/ques.jpg,stim_fb/negf.jpg,stim_fb/posf.jpg,stim_03/f.jpg,stim_03/e.jpg,1,3,f,4,6,246,42,j,0,1.16633350451,03,03,60.0222941047,PLT_learning_3,B,2014_Mrz_31_1449,P13,
stim_fb/ques.jpg,stim_fb/negf.jpg,stim_fb/posf.jpg,stim_03/b.jpg,stim_03/a.jpg,1,1,f,4,7,247,3,f,1,1.06637439127,03,03,60.0222941047,PLT_learning_3,B,2014_Mrz_31_1449,P13,
stim_fb/ques.jpg,stim_fb/posf.jpg,stim_fb/negf.jpg,stim_03/c.jpg,stim_03/d.jpg,2,2,j,4,8,248,38,j,1,0.666491030553,03,03,60.0222941047,PLT_learning_3,B,2014_Mrz_31_1449,P13,
stim_fb/ques.jpg,stim_fb/posf.jpg,stim_fb/negf.jpg,stim_03/f.jpg,stim_03/e.jpg,1,3,f,4,9,249,47,j,0,0.949764879344,03,03,60.0222941047,PLT_learning_3,B,2014_Mrz_31_1449,P13,
stim_fb/ques.jpg,stim_fb/posf.jpg,stim_fb/negf.jpg,stim_03/a.jpg,stim_03/b.jpg,2,1,j,4,10,250,18,j,1,1.1163347481,03,03,60.0222941047,PLT_learning_3,B,2014_Mrz_31_1449,P13,
stim_fb/ques.jpg,stim_fb/posf.jpg,stim_fb/negf.jpg,stim_03/e.jpg,stim_03/f.jpg,2,3,j,4,11,251,59,f,0,1.11649729965,03,03,60.0222941047,PLT_learning_3,B,2014_Mrz_31_1449,P13,
stim_fb/ques.jpg,stim_fb/negf.jpg,stim_fb/posf.jpg,stim_03/b.jpg,stim_03/a.jpg,1,1,f,4,12,252,5,f,1,0.79979401736,03,03,60.0222941047,PLT_learning_3,B,2014_Mrz_31_1449,P13,
stim_fb/ques.jpg,stim_fb/negf.jpg,stim_fb/posf.jpg,stim_03/d.jpg,stim_03/c.jpg,1,2,f,4,13,253,26,f,1,1.09967317662,03,03,60.0222941047,PLT_learning_3,B,2014_Mrz_31_1449,P13,
stim_fb/ques.jpg,stim_fb/negf.jpg,stim_fb/posf.jpg,stim_03/f.jpg,stim_03/e.jpg,1,3,f,4,14,254,45,j,0,0.883068969899,03,03,60.0222941047,PLT_learning_3,B,2014_Mrz_31_1449,P13,
stim_fb/ques.jpg,stim_fb/posf.jpg,stim_fb/negf.jpg,stim_03/d.jpg,stim_03/c.jpg,1,2,f,4,15,255,27,f,1,0.666508798772,03,03,60.0222941047,PLT_learning_3,B,2014_Mrz_31_1449,P13,
stim_fb/ques.jpg,stim_fb/negf.jpg,stim_fb/posf.jpg,stim_03/c.jpg,stim_03/d.jpg,2,2,j,4,16,256,35,j,1,0.666497550779,03,03,60.0222941047,PLT_learning_3,B,2014_Mrz_31_1449,P13,
stim_fb/ques.jpg,stim_fb/negf.jpg,stim_fb/posf.jpg,stim_03/f.jpg,stim_03/e.jpg,1,3,f,4,17,257,40,j,0,1.1829988534,03,03,60.0222941047,PLT_learning_3,B,2014_Mrz_31_1449,P13,
stim_fb/ques.jpg,stim_fb/posf.jpg,stim_fb/negf.jpg,stim_03/e.jpg,stim_03/f.jpg,2,3,j,4,18,258,57,f,0,1.09965254828,03,03,60.0222941047,PLT_learning_3,B,2014_Mrz_31_1449,P13,
stim_fb/ques.jpg,stim_fb/negf.jpg,stim_fb/posf.jpg,stim_03/f.jpg,stim_03/e.jpg,1,3,f,4,19,259,43,j,0,1.34957941377,03,03,60.0222941047,PLT_learning_3,B,2014_Mrz_31_1449,P13,
stim_fb/ques.jpg,stim_fb/negf.jpg,stim_fb/posf.jpg,stim_03/d.jpg,stim_03/c.jpg,1,2,f,4,20,260,24,f,1,0.733139439781,03,03,60.0222941047,PLT_learning_3,B,2014_Mrz_31_1449,P13,
stim_fb/ques.jpg,stim_fb/posf.jpg,stim_fb/negf.jpg,stim_03/e.jpg,stim_03/f.jpg,2,3,j,4,21,261,58,f,0,1.38293723905,03,03,60.0222941047,PLT_learning_3,B,2014_Mrz_31_1449,P13,
stim_fb/ques.jpg,stim_fb/negf.jpg,stim_fb/posf.jpg,stim_03/e.jpg,stim_03/f.jpg,2,3,j,4,22,262,53,j,1,0.833063708304,03,03,60.0222941047,PLT_learning_3,B,2014_Mrz_31_1449,P13,
stim_fb/ques.jpg,stim_fb/posf.jpg,stim_fb/negf.jpg,stim_03/c.jpg,stim_03/d.jpg,2,2,j,4,23,263,39,j,1,0.816449889663,03,03,60.0222941047,PLT_learning_3,B,2014_Mrz_31_1449,P13,
stim_fb/ques.jpg,stim_fb/negf.jpg,stim_fb/posf.jpg,stim_03/a.jpg,stim_03/b.jpg,2,1,j,4,24,264,14,j,1,1.18299863385,03,03,60.0222941047,PLT_learning_3,B,2014_Mrz_31_1449,P13,
stim_fb/ques.jpg,stim_fb/negf.jpg,stim_fb/posf.jpg,stim_03/e.jpg,stim_03/f.jpg,2,3,j,4,25,265,54,f,0,0.916452136255,03,03,60.0222941047,PLT_learning_3,B,2014_Mrz_31_1449,P13,
stim_fb/ques.jpg,stim_fb/negf.jpg,stim_fb/posf.jpg,stim_03/a.jpg,stim_03/b.jpg,2,1,j,4,26,266,15,j,1,0.899732541362,03,03,60.0222941047,PLT_learning_3,B,2014_Mrz_31_1449,P13,
stim_fb/ques.jpg,stim_fb/negf.jpg,stim_fb/posf.jpg,stim_03/e.jpg,stim_03/f.jpg,2,3,j,4,27,267,50,j,1,0.849768737946,03,03,60.0222941047,PLT_learning_3,B,2014_Mrz_31_1449,P13,
stim_fb/ques.jpg,stim_fb/posf.jpg,stim_fb/negf.jpg,stim_03/d.jpg,stim_03/c.jpg,1,2,f,4,28,268,28,f,1,1.06634960959,03,03,60.0222941047,PLT_learning_3,B,2014_Mrz_31_1449,P13,
stim_fb/ques.jpg,stim_fb/negf.jpg,stim_fb/posf.jpg,stim_03/d.jpg,stim_03/c.jpg,1,2,f,4,29,269,25,f,1,1.14970956267,03,03,60.0222941047,PLT_learning_3,B,2014_Mrz_31_1449,P13,
stim_fb/ques.jpg,stim_fb/posf.jpg,stim_fb/negf.jpg,stim_03/f.jpg,stim_03/e.jpg,1,3,f,4,30,270,49,j,0,0.899743202897,03,03,60.0222941047,PLT_learning_3,B,2014_Mrz_31_1449,P13,
stim_fb/ques.jpg,stim_fb/negf.jpg,stim_fb/posf.jpg,stim_03/a.jpg,stim_03/b.jpg,2,1,j,4,31,271,17,j,1,0.766459939174,03,03,60.0222941047,PLT_learning_3,B,2014_Mrz_31_1449,P13,
stim_fb/ques.jpg,stim_fb/negf.jpg,stim_fb/posf.jpg,stim_03/d.jpg,stim_03/c.jpg,1,2,f,4,32,272,22,f,1,0.916437543938,03,03,60.0222941047,PLT_learning_3,B,2014_Mrz_31_1449,P13,
stim_fb/ques.jpg,stim_fb/posf.jpg,stim_fb/negf.jpg,stim_03/c.jpg,stim_03/d.jpg,2,2,j,4,33,273,37,j,1,0.733137927016,03,03,60.0222941047,PLT_learning_3,B,2014_Mrz_31_1449,P13,
stim_fb/ques.jpg,stim_fb/negf.jpg,stim_fb/posf.jpg,stim_03/a.jpg,stim_03/b.jpg,2,1,j,4,34,274,10,j,1,0.716471137544,03,03,60.0222941047,PLT_learning_3,B,2014_Mrz_31_1449,P13,
stim_fb/ques.jpg,stim_fb/negf.jpg,stim_fb/posf.jpg,stim_03/f.jpg,stim_03/e.jpg,1,3,f,4,35,275,44,j,0,0.999710153645,03,03,60.0222941047,PLT_learning_3,B,2014_Mrz_31_1449,P13,
stim_fb/ques.jpg,stim_fb/posf.jpg,stim_fb/negf.jpg,stim_03/b.jpg,stim_03/a.jpg,1,1,f,4,36,276,8,f,1,0.683161242543,03,03,60.0222941047,PLT_learning_3,B,2014_Mrz_31_1449,P13,
stim_fb/ques.jpg,stim_fb/negf.jpg,stim_fb/posf.jpg,stim_03/b.jpg,stim_03/a.jpg,1,1,f,4,37,277,0,j,0,0.899743410413,03,03,60.0222941047,PLT_learning_3,B,2014_Mrz_31_1449,P13,
stim_fb/ques.jpg,stim_fb/negf.jpg,stim_fb/posf.jpg,stim_03/d.jpg,stim_03/c.jpg,1,2,f,4,38,278,20,f,1,0.833118961817,03,03,60.0222941047,PLT_learning_3,B,2014_Mrz_31_1449,P13,
stim_fb/ques.jpg,stim_fb/negf.jpg,stim_fb/posf.jpg,stim_03/d.jpg,stim_03/c.jpg,1,2,f,4,39,279,23,None,0,,03,03,60.0222941047,PLT_learning_3,B,2014_Mrz_31_1449,P13,
stim_fb/ques.jpg,stim_fb/negf.jpg,stim_fb/posf.jpg,stim_03/f.jpg,stim_03/e.jpg,1,3,f,4,40,280,41,j,0,0.899736147338,03,03,60.0222941047,PLT_learning_3,B,2014_Mrz_31_1449,P13,
stim_fb/ques.jpg,stim_fb/negf.jpg,stim_fb/posf.jpg,stim_03/b.jpg,stim_03/a.jpg,1,1,f,4,41,281,6,f,1,0.516542084111,03,03,60.0222941047,PLT_learning_3,B,2014_Mrz_31_1449,P13,
stim_fb/ques.jpg,stim_fb/posf.jpg,stim_fb/negf.jpg,stim_03/b.jpg,stim_03/a.jpg,1,1,f,4,42,282,9,f,1,0.78313691199,03,03,60.0222941047,PLT_learning_3,B,2014_Mrz_31_1449,P13,
stim_fb/ques.jpg,stim_fb/negf.jpg,stim_fb/posf.jpg,stim_03/a.jpg,stim_03/b.jpg,2,1,j,4,43,283,13,j,1,0.81643930933,03,03,60.0222941047,PLT_learning_3,B,2014_Mrz_31_1449,P13,
stim_fb/ques.jpg,stim_fb/negf.jpg,stim_fb/posf.jpg,stim_03/c.jpg,stim_03/d.jpg,2,2,j,4,44,284,31,j,1,0.816450737773,03,03,60.0222941047,PLT_learning_3,B,2014_Mrz_31_1449,P13,
stim_fb/ques.jpg,stim_fb/negf.jpg,stim_fb/posf.jpg,stim_03/e.jpg,stim_03/f.jpg,2,3,j,4,45,285,51,f,0,0.966411088597,03,03,60.0222941047,PLT_learning_3,B,2014_Mrz_31_1449,P13,
stim_fb/ques.jpg,stim_fb/negf.jpg,stim_fb/posf.jpg,stim_03/d.jpg,stim_03/c.jpg,1,2,f,4,46,286,21,f,1,0.749776184479,03,03,60.0222941047,PLT_learning_3,B,2014_Mrz_31_1449,P13,
stim_fb/ques.jpg,stim_fb/posf.jpg,stim_fb/negf.jpg,stim_03/f.jpg,stim_03/e.jpg,1,3,f,4,47,287,46,j,0,0.916386389628,03,03,60.0222941047,PLT_learning_3,B,2014_Mrz_31_1449,P13,
stim_fb/ques.jpg,stim_fb/negf.jpg,stim_fb/posf.jpg,stim_03/c.jpg,stim_03/d.jpg,2,2,j,4,48,288,32,j,1,0.749743559283,03,03,60.0222941047,PLT_learning_3,B,2014_Mrz_31_1449,P13,
stim_fb/ques.jpg,stim_fb/negf.jpg,stim_fb/posf.jpg,stim_03/c.jpg,stim_03/d.jpg,2,2,j,4,49,289,36,j,1,0.616501010891,03,03,60.0222941047,PLT_learning_3,B,2014_Mrz_31_1449,P13,
stim_fb/ques.jpg,stim_fb/negf.jpg,stim_fb/posf.jpg,stim_03/e.jpg,stim_03/f.jpg,2,3,j,4,50,290,55,f,0,1.29962089149,03,03,60.0222941047,PLT_learning_3,B,2014_Mrz_31_1449,P13,
stim_fb/ques.jpg,stim_fb/negf.jpg,stim_fb/posf.jpg,stim_03/a.jpg,stim_03/b.jpg,2,1,j,4,51,291,12,j,1,0.833126624886,03,03,60.0222941047,PLT_learning_3,B,2014_Mrz_31_1449,P13,
stim_fb/ques.jpg,stim_fb/negf.jpg,stim_fb/posf.jpg,stim_03/e.jpg,stim_03/f.jpg,2,3,j,4,52,292,52,f,0,1.2662848404,03,03,60.0222941047,PLT_learning_3,B,2014_Mrz_31_1449,P13,
stim_fb/ques.jpg,stim_fb/negf.jpg,stim_fb/posf.jpg,stim_03/a.jpg,stim_03/b.jpg,2,1,j,4,53,293,11,j,1,0.616485008064,03,03,60.0222941047,PLT_learning_3,B,2014_Mrz_31_1449,P13,
stim_fb/ques.jpg,stim_fb/negf.jpg,stim_fb/posf.jpg,stim_03/c.jpg,stim_03/d.jpg,2,2,j,4,54,294,30,j,1,0.666463611313,03,03,60.0222941047,PLT_learning_3,B,2014_Mrz_31_1449,P13,
stim_fb/ques.jpg,stim_fb/negf.jpg,stim_fb/posf.jpg,stim_03/b.jpg,stim_03/a.jpg,1,1,f,4,55,295,2,f,1,0.783098743999,03,03,60.0222941047,PLT_learning_3,B,2014_Mrz_31_1449,P13,
stim_fb/ques.jpg,stim_fb/posf.jpg,stim_fb/negf.jpg,stim_03/a.jpg,stim_03/b.jpg,2,1,j,4,56,296,19,j,1,0.89974012624,03,03,60.0222941047,PLT_learning_3,B,2014_Mrz_31_1449,P13,
stim_fb/ques.jpg,stim_fb/negf.jpg,stim_fb/posf.jpg,stim_03/c.jpg,stim_03/d.jpg,2,2,j,4,57,297,33,j,1,1.29961830205,03,03,60.0222941047,PLT_learning_3,B,2014_Mrz_31_1449,P13,
stim_fb/ques.jpg,stim_fb/posf.jpg,stim_fb/negf.jpg,stim_03/e.jpg,stim_03/f.jpg,2,3,j,4,58,298,56,j,1,0.999709822821,03,03,60.0222941047,PLT_learning_3,B,2014_Mrz_31_1449,P13,
stim_fb/ques.jpg,stim_fb/negf.jpg,stim_fb/posf.jpg,stim_03/a.jpg,stim_03/b.jpg,2,1,j,4,59,299,16,f,0,0.899679970526,03,03,60.0222941047,PLT_learning_3,B,2014_Mrz_31_1449,P13,
stim_fb/ques.jpg,stim_fb/negf.jpg,stim_fb/posf.jpg,stim_03/a.jpg,stim_03/b.jpg,2,1,j,5,0,300,10,j,1,0.983007343526,03,03,60.0222941047,PLT_learning_3,B,2014_Mrz_31_1449,P13,
stim_fb/ques.jpg,stim_fb/negf.jpg,stim_fb/posf.jpg,stim_03/f.jpg,stim_03/e.jpg,1,3,f,5,1,301,41,f,1,1.29960214885,03,03,60.0222941047,PLT_learning_3,B,2014_Mrz_31_1449,P13,
stim_fb/ques.jpg,stim_fb/negf.jpg,stim_fb/posf.jpg,stim_03/d.jpg,stim_03/c.jpg,1,2,f,5,2,302,26,f,1,0.766452077609,03,03,60.0222941047,PLT_learning_3,B,2014_Mrz_31_1449,P13,
stim_fb/ques.jpg,stim_fb/negf.jpg,stim_fb/posf.jpg,stim_03/c.jpg,stim_03/d.jpg,2,2,j,5,3,303,35,j,1,0.683141414194,03,03,60.0222941047,PLT_learning_3,B,2014_Mrz_31_1449,P13,
stim_fb/ques.jpg,stim_fb/negf.jpg,stim_fb/posf.jpg,stim_03/f.jpg,stim_03/e.jpg,1,3,f,5,4,304,42,j,0,0.818418465957,03,03,60.0222941047,PLT_learning_3,B,2014_Mrz_31_1449,P13,
stim_fb/ques.jpg,stim_fb/negf.jpg,stim_fb/posf.jpg,stim_03/c.jpg,stim_03/d.jpg,2,2,j,5,5,305,33,j,1,0.733116727255,03,03,60.0222941047,PLT_learning_3,B,2014_Mrz_31_1449,P13,
stim_fb/ques.jpg,stim_fb/negf.jpg,stim_fb/posf.jpg,stim_03/b.jpg,stim_03/a.jpg,1,1,f,5,6,306,0,f,1,0.899746866013,03,03,60.0222941047,PLT_learning_3,B,2014_Mrz_31_1449,P13,
stim_fb/ques.jpg,stim_fb/negf.jpg,stim_fb/posf.jpg,stim_03/e.jpg,stim_03/f.jpg,2,3,j,5,7,307,50,f,0,0.883127227889,03,03,60.0222941047,PLT_learning_3,B,2014_Mrz_31_1449,P13,
stim_fb/ques.jpg,stim_fb/posf.jpg,stim_fb/negf.jpg,stim_03/d.jpg,stim_03/c.jpg,1,2,f,5,8,308,29,f,1,0.833103954468,03,03,60.0222941047,PLT_learning_3,B,2014_Mrz_31_1449,P13,
stim_fb/ques.jpg,stim_fb/negf.jpg,stim_fb/posf.jpg,stim_03/f.jpg,stim_03/e.jpg,1,3,f,5,9,309,45,j,0,0.949799712032,03,03,60.0222941047,PLT_learning_3,B,2014_Mrz_31_1449,P13,
stim_fb/ques.jpg,stim_fb/posf.jpg,stim_fb/negf.jpg,stim_03/d.jpg,stim_03/c.jpg,1,2,f,5,10,310,28,f,1,0.66652392642,03,03,60.0222941047,PLT_learning_3,B,2014_Mrz_31_1449,P13,
stim_fb/ques.jpg,stim_fb/negf.jpg,stim_fb/posf.jpg,stim_03/d.jpg,stim_03/c.jpg,1,2,f,5,11,311,21,f,1,0.499752508054,03,03,60.0222941047,PLT_learning_3,B,2014_Mrz_31_1449,P13,
stim_fb/ques.jpg,stim_fb/negf.jpg,stim_fb/posf.jpg,stim_03/a.jpg,stim_03/b.jpg,2,1,j,5,12,312,17,j,1,1.04973957136,03,03,60.0222941047,PLT_learning_3,B,2014_Mrz_31_1449,P13,
stim_fb/ques.jpg,stim_fb/posf.jpg,stim_fb/negf.jpg,stim_03/e.jpg,stim_03/f.jpg,2,3,j,5,13,313,57,None,0,,03,03,60.0222941047,PLT_learning_3,B,2014_Mrz_31_1449,P13,
stim_fb/ques.jpg,stim_fb/posf.jpg,stim_fb/negf.jpg,stim_03/c.jpg,stim_03/d.jpg,2,2,j,5,14,314,38,j,1,0.816396600037,03,03,60.0222941047,PLT_learning_3,B,2014_Mrz_31_1449,P13,
stim_fb/ques.jpg,stim_fb/posf.jpg,stim_fb/negf.jpg,stim_03/d.jpg,stim_03/c.jpg,1,2,f,5,15,315,27,j,0,0.649805044304,03,03,60.0222941047,PLT_learning_3,B,2014_Mrz_31_1449,P13,
stim_fb/ques.jpg,stim_fb/negf.jpg,stim_fb/posf.jpg,stim_03/f.jpg,stim_03/e.jpg,1,3,f,5,16,316,43,f,1,1.03300276463,03,03,60.0222941047,PLT_learning_3,B,2014_Mrz_31_1449,P13,
stim_fb/ques.jpg,stim_fb/negf.jpg,stim_fb/posf.jpg,stim_03/d.jpg,stim_03/c.jpg,1,2,f,5,17,317,22,f,1,0.733131581223,03,03,60.0222941047,PLT_learning_3,B,2014_Mrz_31_1449,P13,
stim_fb/ques.jpg,stim_fb/negf.jpg,stim_fb/posf.jpg,stim_03/a.jpg,stim_03/b.jpg,2,1,j,5,18,318,13,j,1,0.81645287008,03,03,60.0222941047,PLT_learning_3,B,2014_Mrz_31_1449,P13,
stim_fb/ques.jpg,stim_fb/posf.jpg,stim_fb/negf.jpg,stim_03/e.jpg,stim_03/f.jpg,2,3,j,5,19,319,59,f,0,0.96631781446,03,03,60.0222941047,PLT_learning_3,B,2014_Mrz_31_1449,P13,
stim_fb/ques.jpg,stim_fb/negf.jpg,stim_fb/posf.jpg,stim_03/c.jpg,stim_03/d.jpg,2,2,j,5,20,320,31,j,1,1.08304205892,03,03,60.0222941047,PLT_learning_3,B,2014_Mrz_31_1449,P13,
stim_fb/ques.jpg,stim_fb/negf.jpg,stim_fb/posf.jpg,stim_03/b.jpg,stim_03/a.jpg,1,1,f,5,21,321,5,f,1,0.749825880161,03,03,60.0222941047,PLT_learning_3,B,2014_Mrz_31_1449,P13,
stim_fb/ques.jpg,stim_fb/negf.jpg,stim_fb/posf.jpg,stim_03/f.jpg,stim_03/e.jpg,1,3,f,5,22,322,40,j,0,0.866383531013,03,03,60.0222941047,PLT_learning_3,B,2014_Mrz_31_1449,P13,
stim_fb/ques.jpg,stim_fb/posf.jpg,stim_fb/negf.jpg,stim_03/f.jpg,stim_03/e.jpg,1,3,f,5,23,323,48,f,1,0.83309836656,03,03,60.0222941047,PLT_learning_3,B,2014_Mrz_31_1449,P13,
stim_fb/ques.jpg,stim_fb/posf.jpg,stim_fb/negf.jpg,stim_03/e.jpg,stim_03/f.jpg,2,3,j,5,24,324,56,j,1,0.849716233277,03,03,60.0222941047,PLT_learning_3,B,2014_Mrz_31_1449,P13,
stim_fb/ques.jpg,stim_fb/negf.jpg,stim_fb/posf.jpg,stim_03/e.jpg,stim_03/f.jpg,2,3,j,5,25,325,51,f,0,0.533223267406,03,03,60.0222941047,PLT_learning_3,B,2014_Mrz_31_1449,P13,
stim_fb/ques.jpg,stim_fb/negf.jpg,stim_fb/posf.jpg,stim_03/a.jpg,stim_03/b.jpg,2,1,j,5,26,326,12,j,1,0.816458151225,03,03,60.0222941047,PLT_learning_3,B,2014_Mrz_31_1449,P13,
stim_fb/ques.jpg,stim_fb/negf.jpg,stim_fb/posf.jpg,stim_03/b.jpg,stim_03/a.jpg,1,1,f,5,27,327,3,f,1,0.883085345653,03,03,60.0222941047,PLT_learning_3,B,2014_Mrz_31_1449,P13,
stim_fb/ques.jpg,stim_fb/posf.jpg,stim_fb/negf.jpg,stim_03/c.jpg,stim_03/d.jpg,2,2,j,5,28,328,39,j,1,0.849768698848,03,03,60.0222941047,PLT_learning_3,B,2014_Mrz_31_1449,P13,
stim_fb/ques.jpg,stim_fb/negf.jpg,stim_fb/posf.jpg,stim_03/a.jpg,stim_03/b.jpg,2,1,j,5,29,329,16,j,1,0.86643368383,03,03,60.0222941047,PLT_learning_3,B,2014_Mrz_31_1449,P13,
stim_fb/ques.jpg,stim_fb/negf.jpg,stim_fb/posf.jpg,stim_03/d.jpg,stim_03/c.jpg,1,2,f,5,30,330,25,f,1,0.949710864916,03,03,60.0222941047,PLT_learning_3,B,2014_Mrz_31_1449,P13,
stim_fb/ques.jpg,stim_fb/posf.jpg,stim_fb/negf.jpg,stim_03/a.jpg,stim_03/b.jpg,2,1,j,5,31,331,18,j,1,0.66649030575,03,03,60.0222941047,PLT_learning_3,B,2014_Mrz_31_1449,P13,
stim_fb/ques.jpg,stim_fb/posf.jpg,stim_fb/negf.jpg,stim_03/a.jpg,stim_03/b.jpg,2,1,j,5,32,332,19,j,1,0.899766634211,03,03,60.0222941047,PLT_learning_3,B,2014_Mrz_31_1449,P13,
stim_fb/ques.jpg,stim_fb/negf.jpg,stim_fb/posf.jpg,stim_03/a.jpg,stim_03/b.jpg,2,1,j,5,33,333,15,j,1,0.816408681105,03,03,60.0222941047,PLT_learning_3,B,2014_Mrz_31_1449,P13,
stim_fb/ques.jpg,stim_fb/negf.jpg,stim_fb/posf.jpg,stim_03/c.jpg,stim_03/d.jpg,2,2,j,5,34,334,36,j,1,0.683196851163,03,03,60.0222941047,PLT_learning_3,B,2014_Mrz_31_1449,P13,
stim_fb/ques.jpg,stim_fb/posf.jpg,stim_fb/negf.jpg,stim_03/f.jpg,stim_03/e.jpg,1,3,f,5,35,335,49,j,0,0.899731242129,03,03,60.0222941047,PLT_learning_3,B,2014_Mrz_31_1449,P13,
stim_fb/ques.jpg,stim_fb/negf.jpg,stim_fb/posf.jpg,stim_03/b.jpg,stim_03/a.jpg,1,1,f,5,36,336,2,f,1,0.86642802976,03,03,60.0222941047,PLT_learning_3,B,2014_Mrz_31_1449,P13,
stim_fb/ques.jpg,stim_fb/negf.jpg,stim_fb/posf.jpg,stim_03/e.jpg,stim_03/f.jpg,2,3,j,5,37,337,54,j,1,0.866421599756,03,03,60.0222941047,PLT_learning_3,B,2014_Mrz_31_1449,P13,
stim_fb/ques.jpg,stim_fb/negf.jpg,stim_fb/posf.jpg,stim_03/c.jpg,stim_03/d.jpg,2,2,j,5,38,338,30,j,1,0.683147260745,03,03,60.0222941047,PLT_learning_3,B,2014_Mrz_31_1449,P13,
stim_fb/ques.jpg,stim_fb/negf.jpg,stim_fb/posf.jpg,stim_03/d.jpg,stim_03/c.jpg,1,2,f,5,39,339,20,f,1,0.76645739484,03,03,60.0222941047,PLT_learning_3,B,2014_Mrz_31_1449,P13,
stim_fb/ques.jpg,stim_fb/posf.jpg,stim_fb/negf.jpg,stim_03/e.jpg,stim_03/f.jpg,2,3,j,5,40,340,58,j,1,1.03303205453,03,03,60.0222941047,PLT_learning_3,B,2014_Mrz_31_1449,P13,
stim_fb/ques.jpg,stim_fb/negf.jpg,stim_fb/posf.jpg,stim_03/c.jpg,stim_03/d.jpg,2,2,j,5,41,341,32,j,1,0.699750598302,03,03,60.0222941047,PLT_learning_3,B,2014_Mrz_31_1449,P13,
stim_fb/ques.jpg,stim_fb/negf.jpg,stim_fb/posf.jpg,stim_03/b.jpg,stim_03/a.jpg,1,1,f,5,42,342,1,f,1,0.833094435777,03,03,60.0222941047,PLT_learning_3,B,2014_Mrz_31_1449,P13,
stim_fb/ques.jpg,stim_fb/negf.jpg,stim_fb/posf.jpg,stim_03/c.jpg,stim_03/d.jpg,2,2,j,5,43,343,34,j,1,0.866418312577,03,03,60.0222941047,PLT_learning_3,B,2014_Mrz_31_1449,P13,
stim_fb/ques.jpg,stim_fb/negf.jpg,stim_fb/posf.jpg,stim_03/e.jpg,stim_03/f.jpg,2,3,j,5,44,344,52,f,0,0.849778151374,03,03,60.0222941047,PLT_learning_3,B,2014_Mrz_31_1449,P13,
stim_fb/ques.jpg,stim_fb/negf.jpg,stim_fb/posf.jpg,stim_03/f.jpg,stim_03/e.jpg,1,3,f,5,45,345,44,f,1,0.866446408498,03,03,60.0222941047,PLT_learning_3,B,2014_Mrz_31_1449,P13,
stim_fb/ques.jpg,stim_fb/posf.jpg,stim_fb/negf.jpg,stim_03/f.jpg,stim_03/e.jpg,1,3,f,5,46,346,46,j,0,0.783131161679,03,03,60.0222941047,PLT_learning_3,B,2014_Mrz_31_1449,P13,
stim_fb/ques.jpg,stim_fb/posf.jpg,stim_fb/negf.jpg,stim_03/b.jpg,stim_03/a.jpg,1,1,f,5,47,347,9,f,1,1.04970574918,03,03,60.0222941047,PLT_learning_3,B,2014_Mrz_31_1449,P13,
stim_fb/ques.jpg,stim_fb/negf.jpg,stim_fb/posf.jpg,stim_03/b.jpg,stim_03/a.jpg,1,1,f,5,48,348,6,f,1,1.36628149607,03,03,60.0222941047,PLT_learning_3,B,2014_Mrz_31_1449,P13,
stim_fb/ques.jpg,stim_fb/negf.jpg,stim_fb/posf.jpg,stim_03/b.jpg,stim_03/a.jpg,1,1,f,5,49,349,4,f,1,1.19963824769,03,03,60.0222941047,PLT_learning_3,B,2014_Mrz_31_1449,P13,
stim_fb/ques.jpg,stim_fb/negf.jpg,stim_fb/posf.jpg,stim_03/e.jpg,stim_03/f.jpg,2,3,j,5,50,350,53,f,0,1.26629874701,03,03,60.0222941047,PLT_learning_3,B,2014_Mrz_31_1449,P13,
stim_fb/ques.jpg,stim_fb/posf.jpg,stim_fb/negf.jpg,stim_03/f.jpg,stim_03/e.jpg,1,3,f,5,51,351,47,j,0,0.999726679775,03,03,60.0222941047,PLT_learning_3,B,2014_Mrz_31_1449,P13,
stim_fb/ques.jpg,stim_fb/negf.jpg,stim_fb/posf.jpg,stim_03/b.jpg,stim_03/a.jpg,1,1,f,5,52,352,7,f,1,0.76646771653,03,03,60.0222941047,PLT_learning_3,B,2014_Mrz_31_1449,P13,
stim_fb/ques.jpg,stim_fb/negf.jpg,stim_fb/posf.jpg,stim_03/d.jpg,stim_03/c.jpg,1,2,f,5,53,353,23,j,0,1.48286719172,03,03,60.0222941047,PLT_learning_3,B,2014_Mrz_31_1449,P13,
stim_fb/ques.jpg,stim_fb/negf.jpg,stim_fb/posf.jpg,stim_03/d.jpg,stim_03/c.jpg,1,2,f,5,54,354,24,f,1,0.716488235095,03,03,60.0222941047,PLT_learning_3,B,2014_Mrz_31_1449,P13,
stim_fb/ques.jpg,stim_fb/negf.jpg,stim_fb/posf.jpg,stim_03/a.jpg,stim_03/b.jpg,2,1,j,5,55,355,11,j,1,0.816420485482,03,03,60.0222941047,PLT_learning_3,B,2014_Mrz_31_1449,P13,
stim_fb/ques.jpg,stim_fb/posf.jpg,stim_fb/negf.jpg,stim_03/c.jpg,stim_03/d.jpg,2,2,j,5,56,356,37,j,1,1.04969030274,03,03,60.0222941047,PLT_learning_3,B,2014_Mrz_31_1449,P13,
stim_fb/ques.jpg,stim_fb/negf.jpg,stim_fb/posf.jpg,stim_03/e.jpg,stim_03/f.jpg,2,3,j,5,57,357,55,f,0,0.433241772462,03,03,60.0222941047,PLT_learning_3,B,2014_Mrz_31_1449,P13,
stim_fb/ques.jpg,stim_fb/negf.jpg,stim_fb/posf.jpg,stim_03/a.jpg,stim_03/b.jpg,2,1,j,5,58,358,14,j,1,0.849768187576,03,03,60.0222941047,PLT_learning_3,B,2014_Mrz_31_1449,P13,
stim_fb/ques.jpg,stim_fb/posf.jpg,stim_fb/negf.jpg,stim_03/b.jpg,stim_03/a.jpg,1,1,f,5,59,359,8,f,1,0.816353580974,03,03,60.0222941047,PLT_learning_3,B,2014_Mrz_31_1449,P13,
