Fb3,Fb2,Fb1,Symbol2,Symbol1,PosCond,Pair,Correct,trials.thisRepN,trials.thisTrialN,trials.thisN,trials.thisIndex,Response.keys,Response.corr,Response.rt,Version,Session Number,frameRate,expName,StimCondition,date,Participant,
stim_fb/ques.jpg,stim_fb/negf.jpg,stim_fb/posf.jpg,stim_02/e.jpg,stim_02/f.jpg,2,3,j,0,0,0,51,j,1,1.36627224758,02,02,60.0210781611,PLT_learning_02,B,2014_Feb_26_1625,P14,
stim_fb/ques.jpg,stim_fb/posf.jpg,stim_fb/negf.jpg,stim_02/c.jpg,stim_02/d.jpg,2,2,j,0,1,1,38,f,0,0.79978699709,02,02,60.0210781611,PLT_learning_02,B,2014_Feb_26_1625,P14,
stim_fb/ques.jpg,stim_fb/negf.jpg,stim_fb/posf.jpg,stim_02/a.jpg,stim_02/b.jpg,2,1,j,0,2,2,12,j,1,1.24962596071,02,02,60.0210781611,PLT_learning_02,B,2014_Feb_26_1625,P14,
stim_fb/ques.jpg,stim_fb/posf.jpg,stim_fb/negf.jpg,stim_02/b.jpg,stim_02/a.jpg,1,1,f,0,3,3,8,f,1,1.0830445756,02,02,60.0210781611,PLT_learning_02,B,2014_Feb_26_1625,P14,
stim_fb/ques.jpg,stim_fb/negf.jpg,stim_fb/posf.jpg,stim_02/d.jpg,stim_02/c.jpg,1,2,f,0,4,4,23,f,1,1.31626418448,02,02,60.0210781611,PLT_learning_02,B,2014_Feb_26_1625,P14,
stim_fb/ques.jpg,stim_fb/negf.jpg,stim_fb/posf.jpg,stim_02/b.jpg,stim_02/a.jpg,1,1,f,0,5,5,6,f,1,1.13299635642,02,02,60.0210781611,PLT_learning_02,B,2014_Feb_26_1625,P14,
stim_fb/ques.jpg,stim_fb/negf.jpg,stim_fb/posf.jpg,stim_02/a.jpg,stim_02/b.jpg,2,1,j,0,6,6,13,j,1,1.14965483267,02,02,60.0210781611,PLT_learning_02,B,2014_Feb_26_1625,P14,
stim_fb/ques.jpg,stim_fb/negf.jpg,stim_fb/posf.jpg,stim_02/a.jpg,stim_02/b.jpg,2,1,j,0,7,7,11,j,1,0.916290707589,02,02,60.0210781611,PLT_learning_02,B,2014_Feb_26_1625,P14,
stim_fb/ques.jpg,stim_fb/posf.jpg,stim_fb/negf.jpg,stim_02/e.jpg,stim_02/f.jpg,2,3,j,0,8,8,58,f,0,1.21631050594,02,02,60.0210781611,PLT_learning_02,B,2014_Feb_26_1625,P14,
stim_fb/ques.jpg,stim_fb/negf.jpg,stim_fb/posf.jpg,stim_02/b.jpg,stim_02/a.jpg,1,1,f,0,9,9,0,f,1,1.23298067533,02,02,60.0210781611,PLT_learning_02,B,2014_Feb_26_1625,P14,
stim_fb/ques.jpg,stim_fb/posf.jpg,stim_fb/negf.jpg,stim_02/d.jpg,stim_02/c.jpg,1,2,f,0,10,10,28,f,1,1.33294722596,02,02,60.0210781611,PLT_learning_02,B,2014_Feb_26_1625,P14,
stim_fb/ques.jpg,stim_fb/negf.jpg,stim_fb/posf.jpg,stim_02/c.jpg,stim_02/d.jpg,2,2,j,0,11,11,30,j,1,1.04969386696,02,02,60.0210781611,PLT_learning_02,B,2014_Feb_26_1625,P14,
stim_fb/ques.jpg,stim_fb/negf.jpg,stim_fb/posf.jpg,stim_02/e.jpg,stim_02/f.jpg,2,3,j,0,12,12,52,f,0,1.11635068007,02,02,60.0210781611,PLT_learning_02,B,2014_Feb_26_1625,P14,
stim_fb/ques.jpg,stim_fb/negf.jpg,stim_fb/posf.jpg,stim_02/a.jpg,stim_02/b.jpg,2,1,j,0,13,13,10,j,1,0.98307413027,02,02,60.0210781611,PLT_learning_02,B,2014_Feb_26_1625,P14,
stim_fb/ques.jpg,stim_fb/posf.jpg,stim_fb/negf.jpg,stim_02/c.jpg,stim_02/d.jpg,2,2,j,0,14,14,37,j,1,0.949720101353,02,02,60.0210781611,PLT_learning_02,B,2014_Feb_26_1625,P14,
stim_fb/ques.jpg,stim_fb/posf.jpg,stim_fb/negf.jpg,stim_02/a.jpg,stim_02/b.jpg,2,1,j,0,15,15,19,j,1,0.916419229931,02,02,60.0210781611,PLT_learning_02,B,2014_Feb_26_1625,P14,
stim_fb/ques.jpg,stim_fb/negf.jpg,stim_fb/posf.jpg,stim_02/f.jpg,stim_02/e.jpg,1,3,f,0,16,16,43,f,1,1.66621130969,02,02,60.0210781611,PLT_learning_02,B,2014_Feb_26_1625,P14,
stim_fb/ques.jpg,stim_fb/posf.jpg,stim_fb/negf.jpg,stim_02/c.jpg,stim_02/d.jpg,2,2,j,0,17,17,39,None,0,,02,02,60.0210781611,PLT_learning_02,B,2014_Feb_26_1625,P14,
stim_fb/ques.jpg,stim_fb/negf.jpg,stim_fb/posf.jpg,stim_02/d.jpg,stim_02/c.jpg,1,2,f,0,18,18,22,j,0,1.01642507951,02,02,60.0210781611,PLT_learning_02,B,2014_Feb_26_1625,P14,
stim_fb/ques.jpg,stim_fb/negf.jpg,stim_fb/posf.jpg,stim_02/b.jpg,stim_02/a.jpg,1,1,f,0,19,19,3,f,1,0.616497075962,02,02,60.0210781611,PLT_learning_02,B,2014_Feb_26_1625,P14,
stim_fb/ques.jpg,stim_fb/negf.jpg,stim_fb/posf.jpg,stim_02/c.jpg,stim_02/d.jpg,2,2,j,0,20,20,33,j,1,0.883082749754,02,02,60.0210781611,PLT_learning_02,B,2014_Feb_26_1625,P14,
stim_fb/ques.jpg,stim_fb/negf.jpg,stim_fb/posf.jpg,stim_02/c.jpg,stim_02/d.jpg,2,2,j,0,21,21,34,f,0,0.816462134871,02,02,60.0210781611,PLT_learning_02,B,2014_Feb_26_1625,P14,
stim_fb/ques.jpg,stim_fb/negf.jpg,stim_fb/posf.jpg,stim_02/f.jpg,stim_02/e.jpg,1,3,f,0,22,22,40,j,0,1.03309500831,02,02,60.0210781611,PLT_learning_02,B,2014_Feb_26_1625,P14,
stim_fb/ques.jpg,stim_fb/posf.jpg,stim_fb/negf.jpg,stim_02/a.jpg,stim_02/b.jpg,2,1,j,0,23,23,18,j,1,1.06640549169,02,02,60.0210781611,PLT_learning_02,B,2014_Feb_26_1625,P14,
stim_fb/ques.jpg,stim_fb/negf.jpg,stim_fb/posf.jpg,stim_02/a.jpg,stim_02/b.jpg,2,1,j,0,24,24,15,f,0,0.849767195735,02,02,60.0210781611,PLT_learning_02,B,2014_Feb_26_1625,P14,
stim_fb/ques.jpg,stim_fb/negf.jpg,stim_fb/posf.jpg,stim_02/a.jpg,stim_02/b.jpg,2,1,j,0,25,25,14,j,1,0.616489349704,02,02,60.0210781611,PLT_learning_02,B,2014_Feb_26_1625,P14,
stim_fb/ques.jpg,stim_fb/negf.jpg,stim_fb/posf.jpg,stim_02/c.jpg,stim_02/d.jpg,2,2,j,0,26,26,35,f,0,1.51623207044,02,02,60.0210781611,PLT_learning_02,B,2014_Feb_26_1625,P14,
stim_fb/ques.jpg,stim_fb/posf.jpg,stim_fb/negf.jpg,stim_02/b.jpg,stim_02/a.jpg,1,1,f,0,27,27,9,f,1,1.09962092616,02,02,60.0210781611,PLT_learning_02,B,2014_Feb_26_1625,P14,
stim_fb/ques.jpg,stim_fb/negf.jpg,stim_fb/posf.jpg,stim_02/d.jpg,stim_02/c.jpg,1,2,f,0,28,28,20,f,1,1.06636667393,02,02,60.0210781611,PLT_learning_02,B,2014_Feb_26_1625,P14,
stim_fb/ques.jpg,stim_fb/negf.jpg,stim_fb/posf.jpg,stim_02/c.jpg,stim_02/d.jpg,2,2,j,0,29,29,32,j,1,1.11621852768,02,02,60.0210781611,PLT_learning_02,B,2014_Feb_26_1625,P14,
stim_fb/ques.jpg,stim_fb/posf.jpg,stim_fb/negf.jpg,stim_02/f.jpg,stim_02/e.jpg,1,3,f,0,30,30,49,j,0,1.14963599672,02,02,60.0210781611,PLT_learning_02,B,2014_Feb_26_1625,P14,
stim_fb/ques.jpg,stim_fb/negf.jpg,stim_fb/posf.jpg,stim_02/b.jpg,stim_02/a.jpg,1,1,f,0,31,31,5,f,1,0.766454835678,02,02,60.0210781611,PLT_learning_02,B,2014_Feb_26_1625,P14,
stim_fb/ques.jpg,stim_fb/posf.jpg,stim_fb/negf.jpg,stim_02/d.jpg,stim_02/c.jpg,1,2,f,0,32,32,29,j,0,1.23302597424,02,02,60.0210781611,PLT_learning_02,B,2014_Feb_26_1625,P14,
stim_fb/ques.jpg,stim_fb/negf.jpg,stim_fb/posf.jpg,stim_02/e.jpg,stim_02/f.jpg,2,3,j,0,33,33,50,j,1,1.36636045443,02,02,60.0210781611,PLT_learning_02,B,2014_Feb_26_1625,P14,
stim_fb/ques.jpg,stim_fb/negf.jpg,stim_fb/posf.jpg,stim_02/d.jpg,stim_02/c.jpg,1,2,f,0,34,34,24,f,1,0.949746341757,02,02,60.0210781611,PLT_learning_02,B,2014_Feb_26_1625,P14,
stim_fb/ques.jpg,stim_fb/posf.jpg,stim_fb/negf.jpg,stim_02/e.jpg,stim_02/f.jpg,2,3,j,0,35,35,56,f,0,0.899779869324,02,02,60.0210781611,PLT_learning_02,B,2014_Feb_26_1625,P14,
stim_fb/ques.jpg,stim_fb/negf.jpg,stim_fb/posf.jpg,stim_02/d.jpg,stim_02/c.jpg,1,2,f,0,36,36,21,f,1,0.816499199254,02,02,60.0210781611,PLT_learning_02,B,2014_Feb_26_1625,P14,
stim_fb/ques.jpg,stim_fb/negf.jpg,stim_fb/posf.jpg,stim_02/e.jpg,stim_02/f.jpg,2,3,j,0,37,37,53,j,1,0.816433708017,02,02,60.0210781611,PLT_learning_02,B,2014_Feb_26_1625,P14,
stim_fb/ques.jpg,stim_fb/posf.jpg,stim_fb/negf.jpg,stim_02/f.jpg,stim_02/e.jpg,1,3,f,0,38,38,48,f,1,0.832090203833,02,02,60.0210781611,PLT_learning_02,B,2014_Feb_26_1625,P14,
stim_fb/ques.jpg,stim_fb/negf.jpg,stim_fb/posf.jpg,stim_02/c.jpg,stim_02/d.jpg,2,2,j,0,39,39,31,j,1,1.13302199232,02,02,60.0210781611,PLT_learning_02,B,2014_Feb_26_1625,P14,
stim_fb/ques.jpg,stim_fb/negf.jpg,stim_fb/posf.jpg,stim_02/a.jpg,stim_02/b.jpg,2,1,j,0,40,40,17,j,1,0.899823114112,02,02,60.0210781611,PLT_learning_02,B,2014_Feb_26_1625,P14,
stim_fb/ques.jpg,stim_fb/negf.jpg,stim_fb/posf.jpg,stim_02/b.jpg,stim_02/a.jpg,1,1,f,0,41,41,4,f,1,1.11629703235,02,02,60.0210781611,PLT_learning_02,B,2014_Feb_26_1625,P14,
stim_fb/ques.jpg,stim_fb/posf.jpg,stim_fb/negf.jpg,stim_02/e.jpg,stim_02/f.jpg,2,3,j,0,42,42,59,j,1,1.38291217359,02,02,60.0210781611,PLT_learning_02,B,2014_Feb_26_1625,P14,
stim_fb/ques.jpg,stim_fb/negf.jpg,stim_fb/posf.jpg,stim_02/b.jpg,stim_02/a.jpg,1,1,f,0,43,43,1,f,1,0.716481136232,02,02,60.0210781611,PLT_learning_02,B,2014_Feb_26_1625,P14,
stim_fb/ques.jpg,stim_fb/negf.jpg,stim_fb/posf.jpg,stim_02/d.jpg,stim_02/c.jpg,1,2,f,0,44,44,26,j,0,1.33293475087,02,02,60.0210781611,PLT_learning_02,B,2014_Feb_26_1625,P14,
stim_fb/ques.jpg,stim_fb/posf.jpg,stim_fb/negf.jpg,stim_02/e.jpg,stim_02/f.jpg,2,3,j,0,45,45,57,j,1,1.08298061218,02,02,60.0210781611,PLT_learning_02,B,2014_Feb_26_1625,P14,
stim_fb/ques.jpg,stim_fb/negf.jpg,stim_fb/posf.jpg,stim_02/a.jpg,stim_02/b.jpg,2,1,j,0,46,46,16,j,1,1.08301786904,02,02,60.0210781611,PLT_learning_02,B,2014_Feb_26_1625,P14,
stim_fb/ques.jpg,stim_fb/negf.jpg,stim_fb/posf.jpg,stim_02/c.jpg,stim_02/d.jpg,2,2,j,0,47,47,36,j,1,1.16632761558,02,02,60.0210781611,PLT_learning_02,B,2014_Feb_26_1625,P14,
stim_fb/ques.jpg,stim_fb/posf.jpg,stim_fb/negf.jpg,stim_02/f.jpg,stim_02/e.jpg,1,3,f,0,48,48,47,j,0,1.66615162292,02,02,60.0210781611,PLT_learning_02,B,2014_Feb_26_1625,P14,
stim_fb/ques.jpg,stim_fb/negf.jpg,stim_fb/posf.jpg,stim_02/b.jpg,stim_02/a.jpg,1,1,f,0,49,49,2,f,1,0.78311158262,02,02,60.0210781611,PLT_learning_02,B,2014_Feb_26_1625,P14,
stim_fb/ques.jpg,stim_fb/negf.jpg,stim_fb/posf.jpg,stim_02/b.jpg,stim_02/a.jpg,1,1,f,0,50,50,7,f,1,0.733036780175,02,02,60.0210781611,PLT_learning_02,B,2014_Feb_26_1625,P14,
stim_fb/ques.jpg,stim_fb/posf.jpg,stim_fb/negf.jpg,stim_02/d.jpg,stim_02/c.jpg,1,2,f,0,51,51,27,j,0,1.54949858121,02,02,60.0210781611,PLT_learning_02,B,2014_Feb_26_1625,P14,
stim_fb/ques.jpg,stim_fb/negf.jpg,stim_fb/posf.jpg,stim_02/f.jpg,stim_02/e.jpg,1,3,f,0,52,52,44,None,0,,02,02,60.0210781611,PLT_learning_02,B,2014_Feb_26_1625,P14,
stim_fb/ques.jpg,stim_fb/negf.jpg,stim_fb/posf.jpg,stim_02/f.jpg,stim_02/e.jpg,1,3,f,0,53,53,41,j,0,0.883109158578,02,02,60.0210781611,PLT_learning_02,B,2014_Feb_26_1625,P14,
stim_fb/ques.jpg,stim_fb/negf.jpg,stim_fb/posf.jpg,stim_02/f.jpg,stim_02/e.jpg,1,3,f,0,54,54,45,f,1,1.11633994932,02,02,60.0210781611,PLT_learning_02,B,2014_Feb_26_1625,P14,
stim_fb/ques.jpg,stim_fb/negf.jpg,stim_fb/posf.jpg,stim_02/e.jpg,stim_02/f.jpg,2,3,j,0,55,55,55,j,1,1.01639349779,02,02,60.0210781611,PLT_learning_02,B,2014_Feb_26_1625,P14,
stim_fb/ques.jpg,stim_fb/posf.jpg,stim_fb/negf.jpg,stim_02/f.jpg,stim_02/e.jpg,1,3,f,0,56,56,46,f,1,0.733140033534,02,02,60.0210781611,PLT_learning_02,B,2014_Feb_26_1625,P14,
stim_fb/ques.jpg,stim_fb/negf.jpg,stim_fb/posf.jpg,stim_02/f.jpg,stim_02/e.jpg,1,3,f,0,57,57,42,f,1,0.866423611852,02,02,60.0210781611,PLT_learning_02,B,2014_Feb_26_1625,P14,
stim_fb/ques.jpg,stim_fb/negf.jpg,stim_fb/posf.jpg,stim_02/e.jpg,stim_02/f.jpg,2,3,j,0,58,58,54,f,0,1.48290488944,02,02,60.0210781611,PLT_learning_02,B,2014_Feb_26_1625,P14,
stim_fb/ques.jpg,stim_fb/negf.jpg,stim_fb/posf.jpg,stim_02/d.jpg,stim_02/c.jpg,1,2,f,0,59,59,25,f,1,1.63289389403,02,02,60.0210781611,PLT_learning_02,B,2014_Feb_26_1625,P14,
stim_fb/ques.jpg,stim_fb/negf.jpg,stim_fb/posf.jpg,stim_02/f.jpg,stim_02/e.jpg,1,3,f,1,0,60,40,f,1,1.23305647025,02,02,60.0210781611,PLT_learning_02,B,2014_Feb_26_1625,P14,
stim_fb/ques.jpg,stim_fb/posf.jpg,stim_fb/negf.jpg,stim_02/e.jpg,stim_02/f.jpg,2,3,j,1,1,61,58,j,1,1.34962104947,02,02,60.0210781611,PLT_learning_02,B,2014_Feb_26_1625,P14,
stim_fb/ques.jpg,stim_fb/posf.jpg,stim_fb/negf.jpg,stim_02/a.jpg,stim_02/b.jpg,2,1,j,1,2,62,19,j,1,0.899754825904,02,02,60.0210781611,PLT_learning_02,B,2014_Feb_26_1625,P14,
stim_fb/ques.jpg,stim_fb/negf.jpg,stim_fb/posf.jpg,stim_02/d.jpg,stim_02/c.jpg,1,2,f,1,3,63,25,j,0,1.46632853888,02,02,60.0210781611,PLT_learning_02,B,2014_Feb_26_1625,P14,
stim_fb/ques.jpg,stim_fb/negf.jpg,stim_fb/posf.jpg,stim_02/a.jpg,stim_02/b.jpg,2,1,j,1,4,64,10,j,1,0.966364893497,02,02,60.0210781611,PLT_learning_02,B,2014_Feb_26_1625,P14,
stim_fb/ques.jpg,stim_fb/posf.jpg,stim_fb/negf.jpg,stim_02/d.jpg,stim_02/c.jpg,1,2,f,1,5,65,28,f,1,1.03306577244,02,02,60.0210781611,PLT_learning_02,B,2014_Feb_26_1625,P14,
stim_fb/ques.jpg,stim_fb/negf.jpg,stim_fb/posf.jpg,stim_02/b.jpg,stim_02/a.jpg,1,1,f,1,6,66,3,f,1,1.08302708701,02,02,60.0210781611,PLT_learning_02,B,2014_Feb_26_1625,P14,
stim_fb/ques.jpg,stim_fb/negf.jpg,stim_fb/posf.jpg,stim_02/e.jpg,stim_02/f.jpg,2,3,j,1,7,67,55,j,1,1.11633209374,02,02,60.0210781611,PLT_learning_02,B,2014_Feb_26_1625,P14,
stim_fb/ques.jpg,stim_fb/negf.jpg,stim_fb/posf.jpg,stim_02/f.jpg,stim_02/e.jpg,1,3,f,1,8,68,41,j,0,0.999726741904,02,02,60.0210781611,PLT_learning_02,B,2014_Feb_26_1625,P14,
stim_fb/ques.jpg,stim_fb/negf.jpg,stim_fb/posf.jpg,stim_02/c.jpg,stim_02/d.jpg,2,2,j,1,9,69,34,j,1,1.06635289659,02,02,60.0210781611,PLT_learning_02,B,2014_Feb_26_1625,P14,
stim_fb/ques.jpg,stim_fb/negf.jpg,stim_fb/posf.jpg,stim_02/e.jpg,stim_02/f.jpg,2,3,j,1,10,70,51,j,1,0.899755361238,02,02,60.0210781611,PLT_learning_02,B,2014_Feb_26_1625,P14,
stim_fb/ques.jpg,stim_fb/negf.jpg,stim_fb/posf.jpg,stim_02/b.jpg,stim_02/a.jpg,1,1,f,1,11,71,1,f,1,0.799778112947,02,02,60.0210781611,PLT_learning_02,B,2014_Feb_26_1625,P14,
stim_fb/ques.jpg,stim_fb/negf.jpg,stim_fb/posf.jpg,stim_02/a.jpg,stim_02/b.jpg,2,1,j,1,12,72,16,j,1,0.983071874648,02,02,60.0210781611,PLT_learning_02,B,2014_Feb_26_1625,P14,
stim_fb/ques.jpg,stim_fb/negf.jpg,stim_fb/posf.jpg,stim_02/f.jpg,stim_02/e.jpg,1,3,f,1,13,73,45,f,1,0.89976179728,02,02,60.0210781611,PLT_learning_02,B,2014_Feb_26_1625,P14,
stim_fb/ques.jpg,stim_fb/negf.jpg,stim_fb/posf.jpg,stim_02/e.jpg,stim_02/f.jpg,2,3,j,1,14,74,50,f,0,0.833110015714,02,02,60.0210781611,PLT_learning_02,B,2014_Feb_26_1625,P14,
stim_fb/ques.jpg,stim_fb/posf.jpg,stim_fb/negf.jpg,stim_02/d.jpg,stim_02/c.jpg,1,2,f,1,15,75,29,j,0,1.06638347682,02,02,60.0210781611,PLT_learning_02,B,2014_Feb_26_1625,P14,
stim_fb/ques.jpg,stim_fb/negf.jpg,stim_fb/posf.jpg,stim_02/b.jpg,stim_02/a.jpg,1,1,f,1,16,76,0,f,1,0.98449430305,02,02,60.0210781611,PLT_learning_02,B,2014_Feb_26_1625,P14,
stim_fb/ques.jpg,stim_fb/negf.jpg,stim_fb/posf.jpg,stim_02/e.jpg,stim_02/f.jpg,2,3,j,1,17,77,53,j,1,0.899762876971,02,02,60.0210781611,PLT_learning_02,B,2014_Feb_26_1625,P14,
stim_fb/ques.jpg,stim_fb/negf.jpg,stim_fb/posf.jpg,stim_02/a.jpg,stim_02/b.jpg,2,1,j,1,18,78,12,j,1,0.999722465245,02,02,60.0210781611,PLT_learning_02,B,2014_Feb_26_1625,P14,
stim_fb/ques.jpg,stim_fb/negf.jpg,stim_fb/posf.jpg,stim_02/f.jpg,stim_02/e.jpg,1,3,f,1,19,79,44,f,1,1.26631597657,02,02,60.0210781611,PLT_learning_02,B,2014_Feb_26_1625,P14,
stim_fb/ques.jpg,stim_fb/negf.jpg,stim_fb/posf.jpg,stim_02/c.jpg,stim_02/d.jpg,2,2,j,1,20,80,30,j,1,1.19964608687,02,02,60.0210781611,PLT_learning_02,B,2014_Feb_26_1625,P14,
stim_fb/ques.jpg,stim_fb/negf.jpg,stim_fb/posf.jpg,stim_02/d.jpg,stim_02/c.jpg,1,2,f,1,21,81,20,f,1,1.33294844099,02,02,60.0210781611,PLT_learning_02,B,2014_Feb_26_1625,P14,
stim_fb/ques.jpg,stim_fb/negf.jpg,stim_fb/posf.jpg,stim_02/b.jpg,stim_02/a.jpg,1,1,f,1,22,82,4,f,1,0.783118550988,02,02,60.0210781611,PLT_learning_02,B,2014_Feb_26_1625,P14,
stim_fb/ques.jpg,stim_fb/negf.jpg,stim_fb/posf.jpg,stim_02/a.jpg,stim_02/b.jpg,2,1,j,1,23,83,13,j,1,0.91641949459,02,02,60.0210781611,PLT_learning_02,B,2014_Feb_26_1625,P14,
stim_fb/ques.jpg,stim_fb/posf.jpg,stim_fb/negf.jpg,stim_02/a.jpg,stim_02/b.jpg,2,1,j,1,24,84,18,j,1,0.866428276479,02,02,60.0210781611,PLT_learning_02,B,2014_Feb_26_1625,P14,
stim_fb/ques.jpg,stim_fb/negf.jpg,stim_fb/posf.jpg,stim_02/d.jpg,stim_02/c.jpg,1,2,f,1,25,85,26,f,1,0.766459166472,02,02,60.0210781611,PLT_learning_02,B,2014_Feb_26_1625,P14,
stim_fb/ques.jpg,stim_fb/negf.jpg,stim_fb/posf.jpg,stim_02/a.jpg,stim_02/b.jpg,2,1,j,1,26,86,11,j,1,0.66650233908,02,02,60.0210781611,PLT_learning_02,B,2014_Feb_26_1625,P14,
stim_fb/ques.jpg,stim_fb/posf.jpg,stim_fb/negf.jpg,stim_02/f.jpg,stim_02/e.jpg,1,3,f,1,27,87,47,j,0,1.19968145503,02,02,60.0210781611,PLT_learning_02,B,2014_Feb_26_1625,P14,
stim_fb/ques.jpg,stim_fb/posf.jpg,stim_fb/negf.jpg,stim_02/f.jpg,stim_02/e.jpg,1,3,f,1,28,88,48,j,0,1.04969843836,02,02,60.0210781611,PLT_learning_02,B,2014_Feb_26_1625,P14,
stim_fb/ques.jpg,stim_fb/negf.jpg,stim_fb/posf.jpg,stim_02/b.jpg,stim_02/a.jpg,1,1,f,1,29,89,2,f,1,1.04964299216,02,02,60.0210781611,PLT_learning_02,B,2014_Feb_26_1625,P14,
stim_fb/ques.jpg,stim_fb/posf.jpg,stim_fb/negf.jpg,stim_02/e.jpg,stim_02/f.jpg,2,3,j,1,30,90,57,j,1,1.03304275908,02,02,60.0210781611,PLT_learning_02,B,2014_Feb_26_1625,P14,
stim_fb/ques.jpg,stim_fb/posf.jpg,stim_fb/negf.jpg,stim_02/e.jpg,stim_02/f.jpg,2,3,j,1,31,91,59,f,0,1.43290878715,02,02,60.0210781611,PLT_learning_02,B,2014_Feb_26_1625,P14,
stim_fb/ques.jpg,stim_fb/posf.jpg,stim_fb/negf.jpg,stim_02/b.jpg,stim_02/a.jpg,1,1,f,1,32,92,9,f,1,0.783154466508,02,02,60.0210781611,PLT_learning_02,B,2014_Feb_26_1625,P14,
stim_fb/ques.jpg,stim_fb/negf.jpg,stim_fb/posf.jpg,stim_02/d.jpg,stim_02/c.jpg,1,2,f,1,33,93,23,j,0,1.14969337975,02,02,60.0210781611,PLT_learning_02,B,2014_Feb_26_1625,P14,
stim_fb/ques.jpg,stim_fb/negf.jpg,stim_fb/posf.jpg,stim_02/a.jpg,stim_02/b.jpg,2,1,j,1,34,94,14,j,1,0.849758311592,02,02,60.0210781611,PLT_learning_02,B,2014_Feb_26_1625,P14,
stim_fb/ques.jpg,stim_fb/negf.jpg,stim_fb/posf.jpg,stim_02/a.jpg,stim_02/b.jpg,2,1,j,1,35,95,17,j,1,0.84976331005,02,02,60.0210781611,PLT_learning_02,B,2014_Feb_26_1625,P14,
stim_fb/ques.jpg,stim_fb/posf.jpg,stim_fb/negf.jpg,stim_02/c.jpg,stim_02/d.jpg,2,2,j,1,36,96,39,j,1,1.04970572251,02,02,60.0210781611,PLT_learning_02,B,2014_Feb_26_1625,P14,
stim_fb/ques.jpg,stim_fb/negf.jpg,stim_fb/posf.jpg,stim_02/f.jpg,stim_02/e.jpg,1,3,f,1,37,97,42,j,0,1.29963243585,02,02,60.0210781611,PLT_learning_02,B,2014_Feb_26_1625,P14,
stim_fb/ques.jpg,stim_fb/posf.jpg,stim_fb/negf.jpg,stim_02/e.jpg,stim_02/f.jpg,2,3,j,1,38,98,56,f,0,1.3496142435,02,02,60.0210781611,PLT_learning_02,B,2014_Feb_26_1625,P14,
stim_fb/ques.jpg,stim_fb/negf.jpg,stim_fb/posf.jpg,stim_02/c.jpg,stim_02/d.jpg,2,2,j,1,39,99,36,f,0,1.34960596687,02,02,60.0210781611,PLT_learning_02,B,2014_Feb_26_1625,P14,
stim_fb/ques.jpg,stim_fb/negf.jpg,stim_fb/posf.jpg,stim_02/e.jpg,stim_02/f.jpg,2,3,j,1,40,100,54,f,0,1.63279952181,02,02,60.0210781611,PLT_learning_02,B,2014_Feb_26_1625,P14,
stim_fb/ques.jpg,stim_fb/posf.jpg,stim_fb/negf.jpg,stim_02/b.jpg,stim_02/a.jpg,1,1,f,1,41,101,8,j,0,0.933073408471,02,02,60.0210781611,PLT_learning_02,B,2014_Feb_26_1625,P14,
stim_fb/ques.jpg,stim_fb/negf.jpg,stim_fb/posf.jpg,stim_02/c.jpg,stim_02/d.jpg,2,2,j,1,42,102,31,j,1,0.900765101014,02,02,60.0210781611,PLT_learning_02,B,2014_Feb_26_1625,P14,
stim_fb/ques.jpg,stim_fb/negf.jpg,stim_fb/posf.jpg,stim_02/c.jpg,stim_02/d.jpg,2,2,j,1,43,103,33,j,1,0.86640030075,02,02,60.0210781611,PLT_learning_02,B,2014_Feb_26_1625,P14,
stim_fb/ques.jpg,stim_fb/negf.jpg,stim_fb/posf.jpg,stim_02/a.jpg,stim_02/b.jpg,2,1,j,1,44,104,15,j,1,0.716498669935,02,02,60.0210781611,PLT_learning_02,B,2014_Feb_26_1625,P14,
stim_fb/ques.jpg,stim_fb/negf.jpg,stim_fb/posf.jpg,stim_02/e.jpg,stim_02/f.jpg,2,3,j,1,45,105,52,j,1,0.883098497004,02,02,60.0210781611,PLT_learning_02,B,2014_Feb_26_1625,P14,
stim_fb/ques.jpg,stim_fb/negf.jpg,stim_fb/posf.jpg,stim_02/b.jpg,stim_02/a.jpg,1,1,f,1,46,106,6,f,1,0.783132012541,02,02,60.0210781611,PLT_learning_02,B,2014_Feb_26_1625,P14,
stim_fb/ques.jpg,stim_fb/negf.jpg,stim_fb/posf.jpg,stim_02/d.jpg,stim_02/c.jpg,1,2,f,1,47,107,21,f,1,0.716534519289,02,02,60.0210781611,PLT_learning_02,B,2014_Feb_26_1625,P14,
stim_fb/ques.jpg,stim_fb/posf.jpg,stim_fb/negf.jpg,stim_02/c.jpg,stim_02/d.jpg,2,2,j,1,48,108,37,j,1,1.04968543094,02,02,60.0210781611,PLT_learning_02,B,2014_Feb_26_1625,P14,
stim_fb/ques.jpg,stim_fb/negf.jpg,stim_fb/posf.jpg,stim_02/c.jpg,stim_02/d.jpg,2,2,j,1,49,109,32,j,1,0.883102767648,02,02,60.0210781611,PLT_learning_02,B,2014_Feb_26_1625,P14,
stim_fb/ques.jpg,stim_fb/posf.jpg,stim_fb/negf.jpg,stim_02/d.jpg,stim_02/c.jpg,1,2,f,1,50,110,27,f,1,0.866455987549,02,02,60.0210781611,PLT_learning_02,B,2014_Feb_26_1625,P14,
stim_fb/ques.jpg,stim_fb/negf.jpg,stim_fb/posf.jpg,stim_02/d.jpg,stim_02/c.jpg,1,2,f,1,51,111,22,f,1,0.86643764483,02,02,60.0210781611,PLT_learning_02,B,2014_Feb_26_1625,P14,
stim_fb/ques.jpg,stim_fb/posf.jpg,stim_fb/negf.jpg,stim_02/f.jpg,stim_02/e.jpg,1,3,f,1,52,112,49,f,1,1.39960009925,02,02,60.0210781611,PLT_learning_02,B,2014_Feb_26_1625,P14,
stim_fb/ques.jpg,stim_fb/negf.jpg,stim_fb/posf.jpg,stim_02/f.jpg,stim_02/e.jpg,1,3,f,1,53,113,43,f,1,0.849883916662,02,02,60.0210781611,PLT_learning_02,B,2014_Feb_26_1625,P14,
stim_fb/ques.jpg,stim_fb/posf.jpg,stim_fb/negf.jpg,stim_02/f.jpg,stim_02/e.jpg,1,3,f,1,54,114,46,f,1,0.616497884978,02,02,60.0210781611,PLT_learning_02,B,2014_Feb_26_1625,P14,
stim_fb/ques.jpg,stim_fb/negf.jpg,stim_fb/posf.jpg,stim_02/c.jpg,stim_02/d.jpg,2,2,j,1,55,115,35,j,1,1.53287669416,02,02,60.0210781611,PLT_learning_02,B,2014_Feb_26_1625,P14,
stim_fb/ques.jpg,stim_fb/negf.jpg,stim_fb/posf.jpg,stim_02/b.jpg,stim_02/a.jpg,1,1,f,1,56,116,5,f,1,0.74978700912,02,02,60.0210781611,PLT_learning_02,B,2014_Feb_26_1625,P14,
stim_fb/ques.jpg,stim_fb/negf.jpg,stim_fb/posf.jpg,stim_02/d.jpg,stim_02/c.jpg,1,2,f,1,57,117,24,j,0,0.733137026037,02,02,60.0210781611,PLT_learning_02,B,2014_Feb_26_1625,P14,
stim_fb/ques.jpg,stim_fb/posf.jpg,stim_fb/negf.jpg,stim_02/c.jpg,stim_02/d.jpg,2,2,j,1,58,118,38,j,1,0.799787087315,02,02,60.0210781611,PLT_learning_02,B,2014_Feb_26_1625,P14,
stim_fb/ques.jpg,stim_fb/negf.jpg,stim_fb/posf.jpg,stim_02/b.jpg,stim_02/a.jpg,1,1,f,1,59,119,7,f,1,0.749800055639,02,02,60.0210781611,PLT_learning_02,B,2014_Feb_26_1625,P14,
stim_fb/ques.jpg,stim_fb/negf.jpg,stim_fb/posf.jpg,stim_02/a.jpg,stim_02/b.jpg,2,1,j,2,0,120,16,j,1,0.866434968158,02,02,60.0210781611,PLT_learning_02,B,2014_Feb_26_1625,P14,
stim_fb/ques.jpg,stim_fb/posf.jpg,stim_fb/negf.jpg,stim_02/a.jpg,stim_02/b.jpg,2,1,j,2,1,121,19,j,1,0.683154111623,02,02,60.0210781611,PLT_learning_02,B,2014_Feb_26_1625,P14,
stim_fb/ques.jpg,stim_fb/negf.jpg,stim_fb/posf.jpg,stim_02/d.jpg,stim_02/c.jpg,1,2,f,2,2,122,25,j,0,0.983114421696,02,02,60.0210781611,PLT_learning_02,B,2014_Feb_26_1625,P14,
stim_fb/ques.jpg,stim_fb/negf.jpg,stim_fb/posf.jpg,stim_02/c.jpg,stim_02/d.jpg,2,2,j,2,3,123,31,f,0,0.98304981767,02,02,60.0210781611,PLT_learning_02,B,2014_Feb_26_1625,P14,
stim_fb/ques.jpg,stim_fb/posf.jpg,stim_fb/negf.jpg,stim_02/e.jpg,stim_02/f.jpg,2,3,j,2,4,124,58,j,1,1.13300619394,02,02,60.0210781611,PLT_learning_02,B,2014_Feb_26_1625,P14,
stim_fb/ques.jpg,stim_fb/posf.jpg,stim_fb/negf.jpg,stim_02/d.jpg,stim_02/c.jpg,1,2,f,2,5,125,27,f,1,1.38280947963,02,02,60.0210781611,PLT_learning_02,B,2014_Feb_26_1625,P14,
stim_fb/ques.jpg,stim_fb/posf.jpg,stim_fb/negf.jpg,stim_02/f.jpg,stim_02/e.jpg,1,3,f,2,6,126,48,j,0,1.01637569642,02,02,60.0210781611,PLT_learning_02,B,2014_Feb_26_1625,P14,
stim_fb/ques.jpg,stim_fb/negf.jpg,stim_fb/posf.jpg,stim_02/a.jpg,stim_02/b.jpg,2,1,j,2,7,127,14,j,1,0.599838265878,02,02,60.0210781611,PLT_learning_02,B,2014_Feb_26_1625,P14,
stim_fb/ques.jpg,stim_fb/posf.jpg,stim_fb/negf.jpg,stim_02/f.jpg,stim_02/e.jpg,1,3,f,2,8,128,49,f,1,1.0163932602,02,02,60.0210781611,PLT_learning_02,B,2014_Feb_26_1625,P14,
stim_fb/ques.jpg,stim_fb/negf.jpg,stim_fb/posf.jpg,stim_02/e.jpg,stim_02/f.jpg,2,3,j,2,9,129,54,j,1,0.933067062654,02,02,60.0210781611,PLT_learning_02,B,2014_Feb_26_1625,P14,
stim_fb/ques.jpg,stim_fb/negf.jpg,stim_fb/posf.jpg,stim_02/e.jpg,stim_02/f.jpg,2,3,j,2,10,130,50,f,0,0.683155155224,02,02,60.0210781611,PLT_learning_02,B,2014_Feb_26_1625,P14,
stim_fb/ques.jpg,stim_fb/posf.jpg,stim_fb/negf.jpg,stim_02/a.jpg,stim_02/b.jpg,2,1,j,2,11,131,18,j,1,0.766448104901,02,02,60.0210781611,PLT_learning_02,B,2014_Feb_26_1625,P14,
stim_fb/ques.jpg,stim_fb/negf.jpg,stim_fb/posf.jpg,stim_02/b.jpg,stim_02/a.jpg,1,1,f,2,12,132,6,f,1,0.949758473997,02,02,60.0210781611,PLT_learning_02,B,2014_Feb_26_1625,P14,
stim_fb/ques.jpg,stim_fb/negf.jpg,stim_fb/posf.jpg,stim_02/a.jpg,stim_02/b.jpg,2,1,j,2,13,133,15,f,0,1.18301006158,02,02,60.0210781611,PLT_learning_02,B,2014_Feb_26_1625,P14,
stim_fb/ques.jpg,stim_fb/negf.jpg,stim_fb/posf.jpg,stim_02/b.jpg,stim_02/a.jpg,1,1,f,2,14,134,4,f,1,0.866297146638,02,02,60.0210781611,PLT_learning_02,B,2014_Feb_26_1625,P14,
stim_fb/ques.jpg,stim_fb/negf.jpg,stim_fb/posf.jpg,stim_02/b.jpg,stim_02/a.jpg,1,1,f,2,15,135,5,f,1,0.74980105112,02,02,60.0210781611,PLT_learning_02,B,2014_Feb_26_1625,P14,
stim_fb/ques.jpg,stim_fb/negf.jpg,stim_fb/posf.jpg,stim_02/a.jpg,stim_02/b.jpg,2,1,j,2,16,136,13,j,1,1.39960952775,02,02,60.0210781611,PLT_learning_02,B,2014_Feb_26_1625,P14,
stim_fb/ques.jpg,stim_fb/posf.jpg,stim_fb/negf.jpg,stim_02/b.jpg,stim_02/a.jpg,1,1,f,2,17,137,8,f,1,0.849776561078,02,02,60.0210781611,PLT_learning_02,B,2014_Feb_26_1625,P14,
stim_fb/ques.jpg,stim_fb/negf.jpg,stim_fb/posf.jpg,stim_02/d.jpg,stim_02/c.jpg,1,2,f,2,18,138,22,f,1,1.34961089616,02,02,60.0210781611,PLT_learning_02,B,2014_Feb_26_1625,P14,
stim_fb/ques.jpg,stim_fb/posf.jpg,stim_fb/negf.jpg,stim_02/e.jpg,stim_02/f.jpg,2,3,j,2,19,139,59,j,1,1.24969686243,02,02,60.0210781611,PLT_learning_02,B,2014_Feb_26_1625,P14,
stim_fb/ques.jpg,stim_fb/negf.jpg,stim_fb/posf.jpg,stim_02/a.jpg,stim_02/b.jpg,2,1,j,2,20,140,11,j,1,0.849759872482,02,02,60.0210781611,PLT_learning_02,B,2014_Feb_26_1625,P14,
stim_fb/ques.jpg,stim_fb/posf.jpg,stim_fb/negf.jpg,stim_02/e.jpg,stim_02/f.jpg,2,3,j,2,21,141,57,j,1,0.916430312554,02,02,60.0210781611,PLT_learning_02,B,2014_Feb_26_1625,P14,
stim_fb/ques.jpg,stim_fb/negf.jpg,stim_fb/posf.jpg,stim_02/b.jpg,stim_02/a.jpg,1,1,f,2,22,142,7,f,1,0.833132508778,02,02,60.0210781611,PLT_learning_02,B,2014_Feb_26_1625,P14,
stim_fb/ques.jpg,stim_fb/negf.jpg,stim_fb/posf.jpg,stim_02/e.jpg,stim_02/f.jpg,2,3,j,2,23,143,52,j,1,1.04970919918,02,02,60.0210781611,PLT_learning_02,B,2014_Feb_26_1625,P14,
stim_fb/ques.jpg,stim_fb/negf.jpg,stim_fb/posf.jpg,stim_02/f.jpg,stim_02/e.jpg,1,3,f,2,24,144,41,j,0,1.04970469395,02,02,60.0210781611,PLT_learning_02,B,2014_Feb_26_1625,P14,
stim_fb/ques.jpg,stim_fb/negf.jpg,stim_fb/posf.jpg,stim_02/d.jpg,stim_02/c.jpg,1,2,f,2,25,145,23,f,1,0.999713572078,02,02,60.0210781611,PLT_learning_02,B,2014_Feb_26_1625,P14,
stim_fb/ques.jpg,stim_fb/negf.jpg,stim_fb/posf.jpg,stim_02/d.jpg,stim_02/c.jpg,1,2,f,2,26,146,20,f,1,0.883093787265,02,02,60.0210781611,PLT_learning_02,B,2014_Feb_26_1625,P14,
stim_fb/ques.jpg,stim_fb/negf.jpg,stim_fb/posf.jpg,stim_02/a.jpg,stim_02/b.jpg,2,1,j,2,27,147,12,j,1,0.766482733213,02,02,60.0210781611,PLT_learning_02,B,2014_Feb_26_1625,P14,
stim_fb/ques.jpg,stim_fb/negf.jpg,stim_fb/posf.jpg,stim_02/c.jpg,stim_02/d.jpg,2,2,j,2,28,148,33,f,0,0.933059805565,02,02,60.0210781611,PLT_learning_02,B,2014_Feb_26_1625,P14,
stim_fb/ques.jpg,stim_fb/negf.jpg,stim_fb/posf.jpg,stim_02/e.jpg,stim_02/f.jpg,2,3,j,2,29,149,53,j,1,0.583220700596,02,02,60.0210781611,PLT_learning_02,B,2014_Feb_26_1625,P14,
stim_fb/ques.jpg,stim_fb/posf.jpg,stim_fb/negf.jpg,stim_02/c.jpg,stim_02/d.jpg,2,2,j,2,30,150,39,j,1,1.21637181074,02,02,60.0210781611,PLT_learning_02,B,2014_Feb_26_1625,P14,
stim_fb/ques.jpg,stim_fb/negf.jpg,stim_fb/posf.jpg,stim_02/d.jpg,stim_02/c.jpg,1,2,f,2,31,151,26,f,1,1.3829321975,02,02,60.0210781611,PLT_learning_02,B,2014_Feb_26_1625,P14,
stim_fb/ques.jpg,stim_fb/negf.jpg,stim_fb/posf.jpg,stim_02/e.jpg,stim_02/f.jpg,2,3,j,2,32,152,51,f,0,1.61617571898,02,02,60.0210781611,PLT_learning_02,B,2014_Feb_26_1625,P14,
stim_fb/ques.jpg,stim_fb/negf.jpg,stim_fb/posf.jpg,stim_02/f.jpg,stim_02/e.jpg,1,3,f,2,33,153,42,j,0,1.01629762784,02,02,60.0210781611,PLT_learning_02,B,2014_Feb_26_1625,P14,
stim_fb/ques.jpg,stim_fb/negf.jpg,stim_fb/posf.jpg,stim_02/c.jpg,stim_02/d.jpg,2,2,j,2,34,154,35,f,0,1.08302395922,02,02,60.0210781611,PLT_learning_02,B,2014_Feb_26_1625,P14,
stim_fb/ques.jpg,stim_fb/negf.jpg,stim_fb/posf.jpg,stim_02/f.jpg,stim_02/e.jpg,1,3,f,2,35,155,44,j,0,1.08302651258,02,02,60.0210781611,PLT_learning_02,B,2014_Feb_26_1625,P14,
stim_fb/ques.jpg,stim_fb/posf.jpg,stim_fb/negf.jpg,stim_02/b.jpg,stim_02/a.jpg,1,1,f,2,36,156,9,f,1,1.66617498816,02,02,60.0210781611,PLT_learning_02,B,2014_Feb_26_1625,P14,
stim_fb/ques.jpg,stim_fb/posf.jpg,stim_fb/negf.jpg,stim_02/c.jpg,stim_02/d.jpg,2,2,j,2,37,157,38,j,1,1.1663239735,02,02,60.0210781611,PLT_learning_02,B,2014_Feb_26_1625,P14,
stim_fb/ques.jpg,stim_fb/posf.jpg,stim_fb/negf.jpg,stim_02/f.jpg,stim_02/e.jpg,1,3,f,2,38,158,47,f,1,0.816450889843,02,02,60.0210781611,PLT_learning_02,B,2014_Feb_26_1625,P14,
stim_fb/ques.jpg,stim_fb/posf.jpg,stim_fb/negf.jpg,stim_02/e.jpg,stim_02/f.jpg,2,3,j,2,39,159,56,f,0,0.849764645379,02,02,60.0210781611,PLT_learning_02,B,2014_Feb_26_1625,P14,
stim_fb/ques.jpg,stim_fb/negf.jpg,stim_fb/posf.jpg,stim_02/d.jpg,stim_02/c.jpg,1,2,f,2,40,160,24,j,0,0.849776131007,02,02,60.0210781611,PLT_learning_02,B,2014_Feb_26_1625,P14,
stim_fb/ques.jpg,stim_fb/negf.jpg,stim_fb/posf.jpg,stim_02/c.jpg,stim_02/d.jpg,2,2,j,2,41,161,30,f,0,0.89959060759,02,02,60.0210781611,PLT_learning_02,B,2014_Feb_26_1625,P14,
stim_fb/ques.jpg,stim_fb/negf.jpg,stim_fb/posf.jpg,stim_02/f.jpg,stim_02/e.jpg,1,3,f,2,42,162,43,j,0,0.999698648882,02,02,60.0210781611,PLT_learning_02,B,2014_Feb_26_1625,P14,
stim_fb/ques.jpg,stim_fb/posf.jpg,stim_fb/negf.jpg,stim_02/d.jpg,stim_02/c.jpg,1,2,f,2,43,163,29,f,1,1.11636010256,02,02,60.0210781611,PLT_learning_02,B,2014_Feb_26_1625,P14,
stim_fb/ques.jpg,stim_fb/posf.jpg,stim_fb/negf.jpg,stim_02/c.jpg,stim_02/d.jpg,2,2,j,2,44,164,37,j,1,0.883114012677,02,02,60.0210781611,PLT_learning_02,B,2014_Feb_26_1625,P14,
stim_fb/ques.jpg,stim_fb/negf.jpg,stim_fb/posf.jpg,stim_02/d.jpg,stim_02/c.jpg,1,2,f,2,45,165,21,f,1,0.999718883317,02,02,60.0210781611,PLT_learning_02,B,2014_Feb_26_1625,P14,
stim_fb/ques.jpg,stim_fb/negf.jpg,stim_fb/posf.jpg,stim_02/b.jpg,stim_02/a.jpg,1,1,f,2,46,166,0,f,1,0.783117122427,02,02,60.0210781611,PLT_learning_02,B,2014_Feb_26_1625,P14,
stim_fb/ques.jpg,stim_fb/negf.jpg,stim_fb/posf.jpg,stim_02/e.jpg,stim_02/f.jpg,2,3,j,2,47,167,55,j,1,0.949719575041,02,02,60.0210781611,PLT_learning_02,B,2014_Feb_26_1625,P14,
stim_fb/ques.jpg,stim_fb/posf.jpg,stim_fb/negf.jpg,stim_02/d.jpg,stim_02/c.jpg,1,2,f,2,48,168,28,f,1,1.56620902098,02,02,60.0210781611,PLT_learning_02,B,2014_Feb_26_1625,P14,
stim_fb/ques.jpg,stim_fb/negf.jpg,stim_fb/posf.jpg,stim_02/a.jpg,stim_02/b.jpg,2,1,j,2,49,169,10,j,1,0.883125699807,02,02,60.0210781611,PLT_learning_02,B,2014_Feb_26_1625,P14,
stim_fb/ques.jpg,stim_fb/negf.jpg,stim_fb/posf.jpg,stim_02/b.jpg,stim_02/a.jpg,1,1,f,2,50,170,1,f,1,0.683147898136,02,02,60.0210781611,PLT_learning_02,B,2014_Feb_26_1625,P14,
stim_fb/ques.jpg,stim_fb/negf.jpg,stim_fb/posf.jpg,stim_02/c.jpg,stim_02/d.jpg,2,2,j,2,51,171,34,j,1,0.883095408305,02,02,60.0210781611,PLT_learning_02,B,2014_Feb_26_1625,P14,
stim_fb/ques.jpg,stim_fb/negf.jpg,stim_fb/posf.jpg,stim_02/b.jpg,stim_02/a.jpg,1,1,f,2,52,172,3,f,1,0.716528492267,02,02,60.0210781611,PLT_learning_02,B,2014_Feb_26_1625,P14,
stim_fb/ques.jpg,stim_fb/posf.jpg,stim_fb/negf.jpg,stim_02/f.jpg,stim_02/e.jpg,1,3,f,2,53,173,46,j,0,0.983040906459,02,02,60.0210781611,PLT_learning_02,B,2014_Feb_26_1625,P14,
stim_fb/ques.jpg,stim_fb/negf.jpg,stim_fb/posf.jpg,stim_02/c.jpg,stim_02/d.jpg,2,2,j,2,54,174,36,j,1,0.883134000496,02,02,60.0210781611,PLT_learning_02,B,2014_Feb_26_1625,P14,
stim_fb/ques.jpg,stim_fb/negf.jpg,stim_fb/posf.jpg,stim_02/c.jpg,stim_02/d.jpg,2,2,j,2,55,175,32,j,1,0.816465064172,02,02,60.0210781611,PLT_learning_02,B,2014_Feb_26_1625,P14,
stim_fb/ques.jpg,stim_fb/negf.jpg,stim_fb/posf.jpg,stim_02/f.jpg,stim_02/e.jpg,1,3,f,2,56,176,40,f,1,1.11634537485,02,02,60.0210781611,PLT_learning_02,B,2014_Feb_26_1625,P14,
stim_fb/ques.jpg,stim_fb/negf.jpg,stim_fb/posf.jpg,stim_02/f.jpg,stim_02/e.jpg,1,3,f,2,57,177,45,f,1,0.666503975158,02,02,60.0210781611,PLT_learning_02,B,2014_Feb_26_1625,P14,
stim_fb/ques.jpg,stim_fb/negf.jpg,stim_fb/posf.jpg,stim_02/a.jpg,stim_02/b.jpg,2,1,j,2,58,178,17,j,1,0.716494122601,02,02,60.0210781611,PLT_learning_02,B,2014_Feb_26_1625,P14,
stim_fb/ques.jpg,stim_fb/negf.jpg,stim_fb/posf.jpg,stim_02/b.jpg,stim_02/a.jpg,1,1,f,2,59,179,2,f,1,0.933061838633,02,02,60.0210781611,PLT_learning_02,B,2014_Feb_26_1625,P14,
stim_fb/ques.jpg,stim_fb/posf.jpg,stim_fb/negf.jpg,stim_02/a.jpg,stim_02/b.jpg,2,1,j,3,0,180,18,j,1,0.649847017692,02,02,60.0210781611,PLT_learning_02,B,2014_Feb_26_1625,P14,
stim_fb/ques.jpg,stim_fb/posf.jpg,stim_fb/negf.jpg,stim_02/e.jpg,stim_02/f.jpg,2,3,j,3,1,181,58,j,1,1.29966454388,02,02,60.0210781611,PLT_learning_02,B,2014_Feb_26_1625,P14,
stim_fb/ques.jpg,stim_fb/posf.jpg,stim_fb/negf.jpg,stim_02/c.jpg,stim_02/d.jpg,2,2,j,3,2,182,37,f,0,1.49953060804,02,02,60.0210781611,PLT_learning_02,B,2014_Feb_26_1625,P14,
stim_fb/ques.jpg,stim_fb/negf.jpg,stim_fb/posf.jpg,stim_02/a.jpg,stim_02/b.jpg,2,1,j,3,3,183,13,j,1,0.666495770709,02,02,60.0210781611,PLT_learning_02,B,2014_Feb_26_1625,P14,
stim_fb/ques.jpg,stim_fb/posf.jpg,stim_fb/negf.jpg,stim_02/d.jpg,stim_02/c.jpg,1,2,f,3,4,184,29,None,0,,02,02,60.0210781611,PLT_learning_02,B,2014_Feb_26_1625,P14,
stim_fb/ques.jpg,stim_fb/posf.jpg,stim_fb/negf.jpg,stim_02/d.jpg,stim_02/c.jpg,1,2,f,3,5,185,28,j,0,0.949729782483,02,02,60.0210781611,PLT_learning_02,B,2014_Feb_26_1625,P14,
stim_fb/ques.jpg,stim_fb/negf.jpg,stim_fb/posf.jpg,stim_02/a.jpg,stim_02/b.jpg,2,1,j,3,6,186,17,j,1,0.79978496703,02,02,60.0210781611,PLT_learning_02,B,2014_Feb_26_1625,P14,
stim_fb/ques.jpg,stim_fb/negf.jpg,stim_fb/posf.jpg,stim_02/d.jpg,stim_02/c.jpg,1,2,f,3,7,187,21,f,1,1.09973553282,02,02,60.0210781611,PLT_learning_02,B,2014_Feb_26_1625,P14,
stim_fb/ques.jpg,stim_fb/negf.jpg,stim_fb/posf.jpg,stim_02/c.jpg,stim_02/d.jpg,2,2,j,3,8,188,35,j,1,1.28295914166,02,02,60.0210781611,PLT_learning_02,B,2014_Feb_26_1625,P14,
stim_fb/ques.jpg,stim_fb/negf.jpg,stim_fb/posf.jpg,stim_02/a.jpg,stim_02/b.jpg,2,1,j,3,9,189,11,j,1,0.84976322584,02,02,60.0210781611,PLT_learning_02,B,2014_Feb_26_1625,P14,
stim_fb/ques.jpg,stim_fb/posf.jpg,stim_fb/negf.jpg,stim_02/b.jpg,stim_02/a.jpg,1,1,f,3,10,190,9,f,1,0.749818759257,02,02,60.0210781611,PLT_learning_02,B,2014_Feb_26_1625,P14,
stim_fb/ques.jpg,stim_fb/negf.jpg,stim_fb/posf.jpg,stim_02/f.jpg,stim_02/e.jpg,1,3,f,3,11,191,42,j,0,0.983023216367,02,02,60.0210781611,PLT_learning_02,B,2014_Feb_26_1625,P14,
stim_fb/ques.jpg,stim_fb/negf.jpg,stim_fb/posf.jpg,stim_02/e.jpg,stim_02/f.jpg,2,3,j,3,12,192,50,j,1,1.39958369035,02,02,60.0210781611,PLT_learning_02,B,2014_Feb_26_1625,P14,
stim_fb/ques.jpg,stim_fb/negf.jpg,stim_fb/posf.jpg,stim_02/d.jpg,stim_02/c.jpg,1,2,f,3,13,193,25,j,0,1.11635291464,02,02,60.0210781611,PLT_learning_02,B,2014_Feb_26_1625,P14,
stim_fb/ques.jpg,stim_fb/posf.jpg,stim_fb/negf.jpg,stim_02/b.jpg,stim_02/a.jpg,1,1,f,3,14,194,8,j,0,0.716511400666,02,02,60.0210781611,PLT_learning_02,B,2014_Feb_26_1625,P14,
stim_fb/ques.jpg,stim_fb/negf.jpg,stim_fb/posf.jpg,stim_02/c.jpg,stim_02/d.jpg,2,2,j,3,15,195,30,f,0,1.28297467839,02,02,60.0210781611,PLT_learning_02,B,2014_Feb_26_1625,P14,
stim_fb/ques.jpg,stim_fb/negf.jpg,stim_fb/posf.jpg,stim_02/a.jpg,stim_02/b.jpg,2,1,j,3,16,196,12,j,1,1.01638085428,02,02,60.0210781611,PLT_learning_02,B,2014_Feb_26_1625,P14,
stim_fb/ques.jpg,stim_fb/negf.jpg,stim_fb/posf.jpg,stim_02/e.jpg,stim_02/f.jpg,2,3,j,3,17,197,51,j,1,0.849752693589,02,02,60.0210781611,PLT_learning_02,B,2014_Feb_26_1625,P14,
stim_fb/ques.jpg,stim_fb/posf.jpg,stim_fb/negf.jpg,stim_02/e.jpg,stim_02/f.jpg,2,3,j,3,18,198,56,j,1,1.04969843234,02,02,60.0210781611,PLT_learning_02,B,2014_Feb_26_1625,P14,
stim_fb/ques.jpg,stim_fb/negf.jpg,stim_fb/posf.jpg,stim_02/d.jpg,stim_02/c.jpg,1,2,f,3,19,199,23,f,1,1.66615874768,02,02,60.0210781611,PLT_learning_02,B,2014_Feb_26_1625,P14,
stim_fb/ques.jpg,stim_fb/negf.jpg,stim_fb/posf.jpg,stim_02/b.jpg,stim_02/a.jpg,1,1,f,3,20,200,5,None,0,,02,02,60.0210781611,PLT_learning_02,B,2014_Feb_26_1625,P14,
stim_fb/ques.jpg,stim_fb/negf.jpg,stim_fb/posf.jpg,stim_02/a.jpg,stim_02/b.jpg,2,1,j,3,21,201,15,j,1,0.716452814641,02,02,60.0210781611,PLT_learning_02,B,2014_Feb_26_1625,P14,
stim_fb/ques.jpg,stim_fb/posf.jpg,stim_fb/negf.jpg,stim_02/d.jpg,stim_02/c.jpg,1,2,f,3,22,202,27,f,1,1.06632705318,02,02,60.0210781611,PLT_learning_02,B,2014_Feb_26_1625,P14,
stim_fb/ques.jpg,stim_fb/posf.jpg,stim_fb/negf.jpg,stim_02/f.jpg,stim_02/e.jpg,1,3,f,3,23,203,49,f,1,1.16632747122,02,02,60.0210781611,PLT_learning_02,B,2014_Feb_26_1625,P14,
stim_fb/ques.jpg,stim_fb/negf.jpg,stim_fb/posf.jpg,stim_02/f.jpg,stim_02/e.jpg,1,3,f,3,24,204,45,j,0,0.916425831385,02,02,60.0210781611,PLT_learning_02,B,2014_Feb_26_1625,P14,
stim_fb/ques.jpg,stim_fb/posf.jpg,stim_fb/negf.jpg,stim_02/f.jpg,stim_02/e.jpg,1,3,f,3,25,205,46,j,0,1.16633639446,02,02,60.0210781611,PLT_learning_02,B,2014_Feb_26_1625,P14,
stim_fb/ques.jpg,stim_fb/negf.jpg,stim_fb/posf.jpg,stim_02/b.jpg,stim_02/a.jpg,1,1,f,3,26,206,7,f,1,0.916391554951,02,02,60.0210781611,PLT_learning_02,B,2014_Feb_26_1625,P14,
stim_fb/ques.jpg,stim_fb/negf.jpg,stim_fb/posf.jpg,stim_02/f.jpg,stim_02/e.jpg,1,3,f,3,27,207,40,j,0,0.316614046511,02,02,60.0210781611,PLT_learning_02,B,2014_Feb_26_1625,P14,
stim_fb/ques.jpg,stim_fb/negf.jpg,stim_fb/posf.jpg,stim_02/a.jpg,stim_02/b.jpg,2,1,j,3,28,208,14,j,1,0.566541728258,02,02,60.0210781611,PLT_learning_02,B,2014_Feb_26_1625,P14,
stim_fb/ques.jpg,stim_fb/posf.jpg,stim_fb/negf.jpg,stim_02/c.jpg,stim_02/d.jpg,2,2,j,3,29,209,39,f,0,0.866444778611,02,02,60.0210781611,PLT_learning_02,B,2014_Feb_26_1625,P14,
stim_fb/ques.jpg,stim_fb/negf.jpg,stim_fb/posf.jpg,stim_02/a.jpg,stim_02/b.jpg,2,1,j,3,30,210,10,j,1,1.04969618875,02,02,60.0210781611,PLT_learning_02,B,2014_Feb_26_1625,P14,
stim_fb/ques.jpg,stim_fb/posf.jpg,stim_fb/negf.jpg,stim_02/a.jpg,stim_02/b.jpg,2,1,j,3,31,211,19,j,1,0.816451166532,02,02,60.0210781611,PLT_learning_02,B,2014_Feb_26_1625,P14,
stim_fb/ques.jpg,stim_fb/negf.jpg,stim_fb/posf.jpg,stim_02/b.jpg,stim_02/a.jpg,1,1,f,3,32,212,4,f,1,0.883127239645,02,02,60.0210781611,PLT_learning_02,B,2014_Feb_26_1625,P14,
stim_fb/ques.jpg,stim_fb/negf.jpg,stim_fb/posf.jpg,stim_02/e.jpg,stim_02/f.jpg,2,3,j,3,33,213,54,j,1,0.816465975444,02,02,60.0210781611,PLT_learning_02,B,2014_Feb_26_1625,P14,
stim_fb/ques.jpg,stim_fb/posf.jpg,stim_fb/negf.jpg,stim_02/f.jpg,stim_02/e.jpg,1,3,f,3,34,214,48,f,1,0.716548477079,02,02,60.0210781611,PLT_learning_02,B,2014_Feb_26_1625,P14,
stim_fb/ques.jpg,stim_fb/negf.jpg,stim_fb/posf.jpg,stim_02/d.jpg,stim_02/c.jpg,1,2,f,3,35,215,20,j,0,1.23294612221,02,02,60.0210781611,PLT_learning_02,B,2014_Feb_26_1625,P14,
stim_fb/ques.jpg,stim_fb/negf.jpg,stim_fb/posf.jpg,stim_02/c.jpg,stim_02/d.jpg,2,2,j,3,36,216,32,j,1,1.28292488929,02,02,60.0210781611,PLT_learning_02,B,2014_Feb_26_1625,P14,
stim_fb/ques.jpg,stim_fb/negf.jpg,stim_fb/posf.jpg,stim_02/b.jpg,stim_02/a.jpg,1,1,f,3,37,217,6,f,1,1.16633431027,02,02,60.0210781611,PLT_learning_02,B,2014_Feb_26_1625,P14,
stim_fb/ques.jpg,stim_fb/posf.jpg,stim_fb/negf.jpg,stim_02/e.jpg,stim_02/f.jpg,2,3,j,3,38,218,57,j,1,0.949724293802,02,02,60.0210781611,PLT_learning_02,B,2014_Feb_26_1625,P14,
stim_fb/ques.jpg,stim_fb/negf.jpg,stim_fb/posf.jpg,stim_02/c.jpg,stim_02/d.jpg,2,2,j,3,39,219,31,f,0,1.41623985384,02,02,60.0210781611,PLT_learning_02,B,2014_Feb_26_1625,P14,
stim_fb/ques.jpg,stim_fb/negf.jpg,stim_fb/posf.jpg,stim_02/f.jpg,stim_02/e.jpg,1,3,f,3,40,220,44,f,1,0.849718203623,02,02,60.0210781611,PLT_learning_02,B,2014_Feb_26_1625,P14,
stim_fb/ques.jpg,stim_fb/negf.jpg,stim_fb/posf.jpg,stim_02/b.jpg,stim_02/a.jpg,1,1,f,3,41,221,0,f,1,1.29963136217,02,02,60.0210781611,PLT_learning_02,B,2014_Feb_26_1625,P14,
stim_fb/ques.jpg,stim_fb/negf.jpg,stim_fb/posf.jpg,stim_02/e.jpg,stim_02/f.jpg,2,3,j,3,42,222,55,j,1,0.816471641567,02,02,60.0210781611,PLT_learning_02,B,2014_Feb_26_1625,P14,
stim_fb/ques.jpg,stim_fb/negf.jpg,stim_fb/posf.jpg,stim_02/b.jpg,stim_02/a.jpg,1,1,f,3,43,223,2,f,1,0.649838404222,02,02,60.0210781611,PLT_learning_02,B,2014_Feb_26_1625,P14,
stim_fb/ques.jpg,stim_fb/posf.jpg,stim_fb/negf.jpg,stim_02/f.jpg,stim_02/e.jpg,1,3,f,3,44,224,47,f,1,0.633156824385,02,02,60.0210781611,PLT_learning_02,B,2014_Feb_26_1625,P14,
stim_fb/ques.jpg,stim_fb/negf.jpg,stim_fb/posf.jpg,stim_02/d.jpg,stim_02/c.jpg,1,2,f,3,45,225,26,j,0,0.949789102337,02,02,60.0210781611,PLT_learning_02,B,2014_Feb_26_1625,P14,
stim_fb/ques.jpg,stim_fb/negf.jpg,stim_fb/posf.jpg,stim_02/c.jpg,stim_02/d.jpg,2,2,j,3,46,226,34,j,1,0.683138195953,02,02,60.0210781611,PLT_learning_02,B,2014_Feb_26_1625,P14,
stim_fb/ques.jpg,stim_fb/negf.jpg,stim_fb/posf.jpg,stim_02/c.jpg,stim_02/d.jpg,2,2,j,3,47,227,33,f,0,0.933076671604,02,02,60.0210781611,PLT_learning_02,B,2014_Feb_26_1625,P14,
stim_fb/ques.jpg,stim_fb/negf.jpg,stim_fb/posf.jpg,stim_02/d.jpg,stim_02/c.jpg,1,2,f,3,48,228,22,f,1,1.01638621965,02,02,60.0210781611,PLT_learning_02,B,2014_Feb_26_1625,P14,
stim_fb/ques.jpg,stim_fb/negf.jpg,stim_fb/posf.jpg,stim_02/b.jpg,stim_02/a.jpg,1,1,f,3,49,229,3,f,1,1.08301492169,02,02,60.0210781611,PLT_learning_02,B,2014_Feb_26_1625,P14,
stim_fb/ques.jpg,stim_fb/negf.jpg,stim_fb/posf.jpg,stim_02/e.jpg,stim_02/f.jpg,2,3,j,3,50,230,53,j,1,0.516562540131,02,02,60.0210781611,PLT_learning_02,B,2014_Feb_26_1625,P14,
stim_fb/ques.jpg,stim_fb/negf.jpg,stim_fb/posf.jpg,stim_02/f.jpg,stim_02/e.jpg,1,3,f,3,51,231,43,j,0,1.24964930489,02,02,60.0210781611,PLT_learning_02,B,2014_Feb_26_1625,P14,
stim_fb/ques.jpg,stim_fb/negf.jpg,stim_fb/posf.jpg,stim_02/d.jpg,stim_02/c.jpg,1,2,f,3,52,232,24,f,1,1.08299981805,02,02,60.0210781611,PLT_learning_02,B,2014_Feb_26_1625,P14,
stim_fb/ques.jpg,stim_fb/negf.jpg,stim_fb/posf.jpg,stim_02/b.jpg,stim_02/a.jpg,1,1,f,3,53,233,1,f,1,0.683150625935,02,02,60.0210781611,PLT_learning_02,B,2014_Feb_26_1625,P14,
stim_fb/ques.jpg,stim_fb/negf.jpg,stim_fb/posf.jpg,stim_02/f.jpg,stim_02/e.jpg,1,3,f,3,54,234,41,j,0,0.416580738491,02,02,60.0210781611,PLT_learning_02,B,2014_Feb_26_1625,P14,
stim_fb/ques.jpg,stim_fb/posf.jpg,stim_fb/negf.jpg,stim_02/e.jpg,stim_02/f.jpg,2,3,j,3,55,235,59,f,0,0.916377058819,02,02,60.0210781611,PLT_learning_02,B,2014_Feb_26_1625,P14,
stim_fb/ques.jpg,stim_fb/negf.jpg,stim_fb/posf.jpg,stim_02/a.jpg,stim_02/b.jpg,2,1,j,3,56,236,16,j,1,0.69982078631,02,02,60.0210781611,PLT_learning_02,B,2014_Feb_26_1625,P14,
stim_fb/ques.jpg,stim_fb/negf.jpg,stim_fb/posf.jpg,stim_02/c.jpg,stim_02/d.jpg,2,2,j,3,57,237,36,f,0,1.03304838911,02,02,60.0210781611,PLT_learning_02,B,2014_Feb_26_1625,P14,
stim_fb/ques.jpg,stim_fb/posf.jpg,stim_fb/negf.jpg,stim_02/c.jpg,stim_02/d.jpg,2,2,j,3,58,238,38,j,1,0.833084653499,02,02,60.0210781611,PLT_learning_02,B,2014_Feb_26_1625,P14,
stim_fb/ques.jpg,stim_fb/negf.jpg,stim_fb/posf.jpg,stim_02/e.jpg,stim_02/f.jpg,2,3,j,3,59,239,52,f,0,0.766434565154,02,02,60.0210781611,PLT_learning_02,B,2014_Feb_26_1625,P14,
stim_fb/ques.jpg,stim_fb/negf.jpg,stim_fb/posf.jpg,stim_02/f.jpg,stim_02/e.jpg,1,3,f,4,0,240,45,j,0,1.29961010218,02,02,60.0210781611,PLT_learning_02,B,2014_Feb_26_1625,P14,
stim_fb/ques.jpg,stim_fb/negf.jpg,stim_fb/posf.jpg,stim_02/a.jpg,stim_02/b.jpg,2,1,j,4,1,241,17,j,1,0.766449611657,02,02,60.0210781611,PLT_learning_02,B,2014_Feb_26_1625,P14,
stim_fb/ques.jpg,stim_fb/negf.jpg,stim_fb/posf.jpg,stim_02/d.jpg,stim_02/c.jpg,1,2,f,4,2,242,26,f,1,0.733131844121,02,02,60.0210781611,PLT_learning_02,B,2014_Feb_26_1625,P14,
stim_fb/ques.jpg,stim_fb/negf.jpg,stim_fb/posf.jpg,stim_02/b.jpg,stim_02/a.jpg,1,1,f,4,3,243,0,f,1,0.733128746401,02,02,60.0210781611,PLT_learning_02,B,2014_Feb_26_1625,P14,
stim_fb/ques.jpg,stim_fb/negf.jpg,stim_fb/posf.jpg,stim_02/e.jpg,stim_02/f.jpg,2,3,j,4,4,244,53,j,1,0.866441599687,02,02,60.0210781611,PLT_learning_02,B,2014_Feb_26_1625,P14,
stim_fb/ques.jpg,stim_fb/negf.jpg,stim_fb/posf.jpg,stim_02/d.jpg,stim_02/c.jpg,1,2,f,4,5,245,25,f,1,0.616534681694,02,02,60.0210781611,PLT_learning_02,B,2014_Feb_26_1625,P14,
stim_fb/ques.jpg,stim_fb/negf.jpg,stim_fb/posf.jpg,stim_02/b.jpg,stim_02/a.jpg,1,1,f,4,6,246,6,f,1,0.916422613363,02,02,60.0210781611,PLT_learning_02,B,2014_Feb_26_1625,P14,
stim_fb/ques.jpg,stim_fb/posf.jpg,stim_fb/negf.jpg,stim_02/f.jpg,stim_02/e.jpg,1,3,f,4,7,247,48,j,0,0.883063862678,02,02,60.0210781611,PLT_learning_02,B,2014_Feb_26_1625,P14,
stim_fb/ques.jpg,stim_fb/negf.jpg,stim_fb/posf.jpg,stim_02/d.jpg,stim_02/c.jpg,1,2,f,4,8,248,20,f,1,0.799792861708,02,02,60.0210781611,PLT_learning_02,B,2014_Feb_26_1625,P14,
stim_fb/ques.jpg,stim_fb/posf.jpg,stim_fb/negf.jpg,stim_02/e.jpg,stim_02/f.jpg,2,3,j,4,9,249,58,f,0,0.59987385358,02,02,60.0210781611,PLT_learning_02,B,2014_Feb_26_1625,P14,
stim_fb/ques.jpg,stim_fb/negf.jpg,stim_fb/posf.jpg,stim_02/b.jpg,stim_02/a.jpg,1,1,f,4,10,250,4,f,1,0.833127423102,02,02,60.0210781611,PLT_learning_02,B,2014_Feb_26_1625,P14,
stim_fb/ques.jpg,stim_fb/posf.jpg,stim_fb/negf.jpg,stim_02/c.jpg,stim_02/d.jpg,2,2,j,4,11,251,38,j,1,0.899720266765,02,02,60.0210781611,PLT_learning_02,B,2014_Feb_26_1625,P14,
stim_fb/ques.jpg,stim_fb/negf.jpg,stim_fb/posf.jpg,stim_02/e.jpg,stim_02/f.jpg,2,3,j,4,12,252,52,f,0,0.69981466004,02,02,60.0210781611,PLT_learning_02,B,2014_Feb_26_1625,P14,
stim_fb/ques.jpg,stim_fb/posf.jpg,stim_fb/negf.jpg,stim_02/d.jpg,stim_02/c.jpg,1,2,f,4,13,253,27,f,1,0.866431166683,02,02,60.0210781611,PLT_learning_02,B,2014_Feb_26_1625,P14,
stim_fb/ques.jpg,stim_fb/posf.jpg,stim_fb/negf.jpg,stim_02/f.jpg,stim_02/e.jpg,1,3,f,4,14,254,47,j,0,0.583192706822,02,02,60.0210781611,PLT_learning_02,B,2014_Feb_26_1625,P14,
stim_fb/ques.jpg,stim_fb/posf.jpg,stim_fb/negf.jpg,stim_02/c.jpg,stim_02/d.jpg,2,2,j,4,15,255,37,j,1,0.799796329351,02,02,60.0210781611,PLT_learning_02,B,2014_Feb_26_1625,P14,
stim_fb/ques.jpg,stim_fb/negf.jpg,stim_fb/posf.jpg,stim_02/f.jpg,stim_02/e.jpg,1,3,f,4,16,256,42,f,1,0.566532811031,02,02,60.0210781611,PLT_learning_02,B,2014_Feb_26_1625,P14,
stim_fb/ques.jpg,stim_fb/negf.jpg,stim_fb/posf.jpg,stim_02/a.jpg,stim_02/b.jpg,2,1,j,4,17,257,15,j,1,0.866438041819,02,02,60.0210781611,PLT_learning_02,B,2014_Feb_26_1625,P14,
stim_fb/ques.jpg,stim_fb/negf.jpg,stim_fb/posf.jpg,stim_02/b.jpg,stim_02/a.jpg,1,1,f,4,18,258,2,f,1,0.749788717378,02,02,60.0210781611,PLT_learning_02,B,2014_Feb_26_1625,P14,
stim_fb/ques.jpg,stim_fb/negf.jpg,stim_fb/posf.jpg,stim_02/a.jpg,stim_02/b.jpg,2,1,j,4,19,259,10,j,1,0.616535421538,02,02,60.0210781611,PLT_learning_02,B,2014_Feb_26_1625,P14,
stim_fb/ques.jpg,stim_fb/negf.jpg,stim_fb/posf.jpg,stim_02/f.jpg,stim_02/e.jpg,1,3,f,4,20,260,40,f,1,0.83309890903,02,02,60.0210781611,PLT_learning_02,B,2014_Feb_26_1625,P14,
stim_fb/ques.jpg,stim_fb/negf.jpg,stim_fb/posf.jpg,stim_02/c.jpg,stim_02/d.jpg,2,2,j,4,21,261,35,j,1,0.599854837181,02,02,60.0210781611,PLT_learning_02,B,2014_Feb_26_1625,P14,
stim_fb/ques.jpg,stim_fb/posf.jpg,stim_fb/negf.jpg,stim_02/c.jpg,stim_02/d.jpg,2,2,j,4,22,262,39,j,1,0.633164586733,02,02,60.0210781611,PLT_learning_02,B,2014_Feb_26_1625,P14,
stim_fb/ques.jpg,stim_fb/posf.jpg,stim_fb/negf.jpg,stim_02/e.jpg,stim_02/f.jpg,2,3,j,4,23,263,56,f,0,0.783118313396,02,02,60.0210781611,PLT_learning_02,B,2014_Feb_26_1625,P14,
stim_fb/ques.jpg,stim_fb/negf.jpg,stim_fb/posf.jpg,stim_02/b.jpg,stim_02/a.jpg,1,1,f,4,24,264,7,f,1,1.24964267637,02,02,60.0210781611,PLT_learning_02,B,2014_Feb_26_1625,P14,
stim_fb/ques.jpg,stim_fb/negf.jpg,stim_fb/posf.jpg,stim_02/b.jpg,stim_02/a.jpg,1,1,f,4,25,265,1,f,1,0.616511860813,02,02,60.0210781611,PLT_learning_02,B,2014_Feb_26_1625,P14,
stim_fb/ques.jpg,stim_fb/posf.jpg,stim_fb/negf.jpg,stim_02/a.jpg,stim_02/b.jpg,2,1,j,4,26,266,18,j,1,0.666504603725,02,02,60.0210781611,PLT_learning_02,B,2014_Feb_26_1625,P14,
stim_fb/ques.jpg,stim_fb/negf.jpg,stim_fb/posf.jpg,stim_02/c.jpg,stim_02/d.jpg,2,2,j,4,27,267,34,j,1,1.28296026045,02,02,60.0210781611,PLT_learning_02,B,2014_Feb_26_1625,P14,
stim_fb/ques.jpg,stim_fb/negf.jpg,stim_fb/posf.jpg,stim_02/a.jpg,stim_02/b.jpg,2,1,j,4,28,268,12,j,1,0.866457265735,02,02,60.0210781611,PLT_learning_02,B,2014_Feb_26_1625,P14,
stim_fb/ques.jpg,stim_fb/posf.jpg,stim_fb/negf.jpg,stim_02/f.jpg,stim_02/e.jpg,1,3,f,4,29,269,49,j,0,0.733150147743,02,02,60.0210781611,PLT_learning_02,B,2014_Feb_26_1625,P14,
stim_fb/ques.jpg,stim_fb/negf.jpg,stim_fb/posf.jpg,stim_02/c.jpg,stim_02/d.jpg,2,2,j,4,30,270,30,j,1,0.74976930399,02,02,60.0210781611,PLT_learning_02,B,2014_Feb_26_1625,P14,
stim_fb/ques.jpg,stim_fb/negf.jpg,stim_fb/posf.jpg,stim_02/c.jpg,stim_02/d.jpg,2,2,j,4,31,271,33,j,1,0.766470658115,02,02,60.0210781611,PLT_learning_02,B,2014_Feb_26_1625,P14,
stim_fb/ques.jpg,stim_fb/negf.jpg,stim_fb/posf.jpg,stim_02/a.jpg,stim_02/b.jpg,2,1,j,4,32,272,14,j,1,0.933093011331,02,02,60.0210781611,PLT_learning_02,B,2014_Feb_26_1625,P14,
stim_fb/ques.jpg,stim_fb/posf.jpg,stim_fb/negf.jpg,stim_02/d.jpg,stim_02/c.jpg,1,2,f,4,33,273,29,f,1,0.883072743814,02,02,60.0210781611,PLT_learning_02,B,2014_Feb_26_1625,P14,
stim_fb/ques.jpg,stim_fb/negf.jpg,stim_fb/posf.jpg,stim_02/e.jpg,stim_02/f.jpg,2,3,j,4,34,274,55,f,0,1.31624496658,02,02,60.0210781611,PLT_learning_02,B,2014_Feb_26_1625,P14,
stim_fb/ques.jpg,stim_fb/negf.jpg,stim_fb/posf.jpg,stim_02/f.jpg,stim_02/e.jpg,1,3,f,4,35,275,41,f,1,0.98306787167,02,02,60.0210781611,PLT_learning_02,B,2014_Feb_26_1625,P14,
stim_fb/ques.jpg,stim_fb/negf.jpg,stim_fb/posf.jpg,stim_02/e.jpg,stim_02/f.jpg,2,3,j,4,36,276,54,j,1,0.849809836016,02,02,60.0210781611,PLT_learning_02,B,2014_Feb_26_1625,P14,
stim_fb/ques.jpg,stim_fb/negf.jpg,stim_fb/posf.jpg,stim_02/f.jpg,stim_02/e.jpg,1,3,f,4,37,277,43,f,1,0.583185395599,02,02,60.0210781611,PLT_learning_02,B,2014_Feb_26_1625,P14,
stim_fb/ques.jpg,stim_fb/negf.jpg,stim_fb/posf.jpg,stim_02/e.jpg,stim_02/f.jpg,2,3,j,4,38,278,50,j,1,0.866435199735,02,02,60.0210781611,PLT_learning_02,B,2014_Feb_26_1625,P14,
stim_fb/ques.jpg,stim_fb/posf.jpg,stim_fb/negf.jpg,stim_02/e.jpg,stim_02/f.jpg,2,3,j,4,39,279,59,j,1,0.816424174254,02,02,60.0210781611,PLT_learning_02,B,2014_Feb_26_1625,P14,
stim_fb/ques.jpg,stim_fb/posf.jpg,stim_fb/negf.jpg,stim_02/a.jpg,stim_02/b.jpg,2,1,j,4,40,280,19,j,1,0.733145822964,02,02,60.0210781611,PLT_learning_02,B,2014_Feb_26_1625,P14,
stim_fb/ques.jpg,stim_fb/posf.jpg,stim_fb/negf.jpg,stim_02/b.jpg,stim_02/a.jpg,1,1,f,4,41,281,8,f,1,0.716487361749,02,02,60.0210781611,PLT_learning_02,B,2014_Feb_26_1625,P14,
stim_fb/ques.jpg,stim_fb/negf.jpg,stim_fb/posf.jpg,stim_02/d.jpg,stim_02/c.jpg,1,2,f,4,42,282,23,f,1,1.46624542372,02,02,60.0210781611,PLT_learning_02,B,2014_Feb_26_1625,P14,
stim_fb/ques.jpg,stim_fb/negf.jpg,stim_fb/posf.jpg,stim_02/c.jpg,stim_02/d.jpg,2,2,j,4,43,283,32,j,1,1.04968342494,02,02,60.0210781611,PLT_learning_02,B,2014_Feb_26_1625,P14,
stim_fb/ques.jpg,stim_fb/negf.jpg,stim_fb/posf.jpg,stim_02/d.jpg,stim_02/c.jpg,1,2,f,4,44,284,21,f,1,0.866414706656,02,02,60.0210781611,PLT_learning_02,B,2014_Feb_26_1625,P14,
stim_fb/ques.jpg,stim_fb/posf.jpg,stim_fb/negf.jpg,stim_02/e.jpg,stim_02/f.jpg,2,3,j,4,45,285,57,j,1,1.48290214059,02,02,60.0210781611,PLT_learning_02,B,2014_Feb_26_1625,P14,
stim_fb/ques.jpg,stim_fb/negf.jpg,stim_fb/posf.jpg,stim_02/c.jpg,stim_02/d.jpg,2,2,j,4,46,286,36,j,1,1.23302780581,02,02,60.0210781611,PLT_learning_02,B,2014_Feb_26_1625,P14,
stim_fb/ques.jpg,stim_fb/posf.jpg,stim_fb/negf.jpg,stim_02/d.jpg,stim_02/c.jpg,1,2,f,4,47,287,28,f,1,0.79981290667,02,02,60.0210781611,PLT_learning_02,B,2014_Feb_26_1625,P14,
stim_fb/ques.jpg,stim_fb/negf.jpg,stim_fb/posf.jpg,stim_02/d.jpg,stim_02/c.jpg,1,2,f,4,48,288,22,f,1,0.649828963692,02,02,60.0210781611,PLT_learning_02,B,2014_Feb_26_1625,P14,
stim_fb/ques.jpg,stim_fb/negf.jpg,stim_fb/posf.jpg,stim_02/f.jpg,stim_02/e.jpg,1,3,f,4,49,289,44,j,0,1.44956065593,02,02,60.0210781611,PLT_learning_02,B,2014_Feb_26_1625,P14,
stim_fb/ques.jpg,stim_fb/negf.jpg,stim_fb/posf.jpg,stim_02/b.jpg,stim_02/a.jpg,1,1,f,4,50,290,5,f,1,1.2329882843,02,02,60.0210781611,PLT_learning_02,B,2014_Feb_26_1625,P14,
stim_fb/ques.jpg,stim_fb/posf.jpg,stim_fb/negf.jpg,stim_02/b.jpg,stim_02/a.jpg,1,1,f,4,51,291,9,f,1,0.583198430087,02,02,60.0210781611,PLT_learning_02,B,2014_Feb_26_1625,P14,
stim_fb/ques.jpg,stim_fb/negf.jpg,stim_fb/posf.jpg,stim_02/a.jpg,stim_02/b.jpg,2,1,j,4,52,292,11,j,1,0.64982649153,02,02,60.0210781611,PLT_learning_02,B,2014_Feb_26_1625,P14,
stim_fb/ques.jpg,stim_fb/negf.jpg,stim_fb/posf.jpg,stim_02/b.jpg,stim_02/a.jpg,1,1,f,4,53,293,3,f,1,0.699822813362,02,02,60.0210781611,PLT_learning_02,B,2014_Feb_26_1625,P14,
stim_fb/ques.jpg,stim_fb/negf.jpg,stim_fb/posf.jpg,stim_02/a.jpg,stim_02/b.jpg,2,1,j,4,54,294,13,j,1,0.549851318411,02,02,60.0210781611,PLT_learning_02,B,2014_Feb_26_1625,P14,
stim_fb/ques.jpg,stim_fb/negf.jpg,stim_fb/posf.jpg,stim_02/e.jpg,stim_02/f.jpg,2,3,j,4,55,295,51,f,0,0.733115549507,02,02,60.0210781611,PLT_learning_02,B,2014_Feb_26_1625,P14,
stim_fb/ques.jpg,stim_fb/negf.jpg,stim_fb/posf.jpg,stim_02/c.jpg,stim_02/d.jpg,2,2,j,4,56,296,31,j,1,0.899772010737,02,02,60.0210781611,PLT_learning_02,B,2014_Feb_26_1625,P14,
stim_fb/ques.jpg,stim_fb/negf.jpg,stim_fb/posf.jpg,stim_02/d.jpg,stim_02/c.jpg,1,2,f,4,57,297,24,f,1,0.616499439854,02,02,60.0210781611,PLT_learning_02,B,2014_Feb_26_1625,P14,
stim_fb/ques.jpg,stim_fb/negf.jpg,stim_fb/posf.jpg,stim_02/a.jpg,stim_02/b.jpg,2,1,j,4,58,298,16,j,1,1.01636270103,02,02,60.0210781611,PLT_learning_02,B,2014_Feb_26_1625,P14,
stim_fb/ques.jpg,stim_fb/posf.jpg,stim_fb/negf.jpg,stim_02/f.jpg,stim_02/e.jpg,1,3,f,4,59,299,46,f,1,1.58290777062,02,02,60.0210781611,PLT_learning_02,B,2014_Feb_26_1625,P14,
stim_fb/ques.jpg,stim_fb/negf.jpg,stim_fb/posf.jpg,stim_02/b.jpg,stim_02/a.jpg,1,1,f,5,0,300,5,f,1,0.866430995256,02,02,60.0210781611,PLT_learning_02,B,2014_Feb_26_1625,P14,
stim_fb/ques.jpg,stim_fb/posf.jpg,stim_fb/negf.jpg,stim_02/c.jpg,stim_02/d.jpg,2,2,j,5,1,301,38,j,1,0.783142144796,02,02,60.0210781611,PLT_learning_02,B,2014_Feb_26_1625,P14,
stim_fb/ques.jpg,stim_fb/negf.jpg,stim_fb/posf.jpg,stim_02/b.jpg,stim_02/a.jpg,1,1,f,5,2,302,1,f,1,0.716476552808,02,02,60.0210781611,PLT_learning_02,B,2014_Feb_26_1625,P14,
stim_fb/ques.jpg,stim_fb/posf.jpg,stim_fb/negf.jpg,stim_02/e.jpg,stim_02/f.jpg,2,3,j,5,3,303,57,j,1,0.949745222968,02,02,60.0210781611,PLT_learning_02,B,2014_Feb_26_1625,P14,
stim_fb/ques.jpg,stim_fb/negf.jpg,stim_fb/posf.jpg,stim_02/e.jpg,stim_02/f.jpg,2,3,j,5,4,304,54,f,0,1.16632322464,02,02,60.0210781611,PLT_learning_02,B,2014_Feb_26_1625,P14,
stim_fb/ques.jpg,stim_fb/negf.jpg,stim_fb/posf.jpg,stim_02/b.jpg,stim_02/a.jpg,1,1,f,5,5,305,6,f,1,0.949745168833,02,02,60.0210781611,PLT_learning_02,B,2014_Feb_26_1625,P14,
stim_fb/ques.jpg,stim_fb/negf.jpg,stim_fb/posf.jpg,stim_02/f.jpg,stim_02/e.jpg,1,3,f,5,6,306,43,j,0,1.09967594529,02,02,60.0210781611,PLT_learning_02,B,2014_Feb_26_1625,P14,
stim_fb/ques.jpg,stim_fb/posf.jpg,stim_fb/negf.jpg,stim_02/d.jpg,stim_02/c.jpg,1,2,f,5,7,307,29,f,1,0.883082247502,02,02,60.0210781611,PLT_learning_02,B,2014_Feb_26_1625,P14,
stim_fb/ques.jpg,stim_fb/negf.jpg,stim_fb/posf.jpg,stim_02/e.jpg,stim_02/f.jpg,2,3,j,5,8,308,50,j,1,0.899754642446,02,02,60.0210781611,PLT_learning_02,B,2014_Feb_26_1625,P14,
stim_fb/ques.jpg,stim_fb/posf.jpg,stim_fb/negf.jpg,stim_02/d.jpg,stim_02/c.jpg,1,2,f,5,9,309,27,f,1,0.949743559823,02,02,60.0210781611,PLT_learning_02,B,2014_Feb_26_1625,P14,
stim_fb/ques.jpg,stim_fb/negf.jpg,stim_fb/posf.jpg,stim_02/d.jpg,stim_02/c.jpg,1,2,f,5,10,310,24,j,0,0.933106818746,02,02,60.0210781611,PLT_learning_02,B,2014_Feb_26_1625,P14,
stim_fb/ques.jpg,stim_fb/negf.jpg,stim_fb/posf.jpg,stim_02/b.jpg,stim_02/a.jpg,1,1,f,5,11,311,0,f,1,0.616510708942,02,02,60.0210781611,PLT_learning_02,B,2014_Feb_26_1625,P14,
stim_fb/ques.jpg,stim_fb/posf.jpg,stim_fb/negf.jpg,stim_02/f.jpg,stim_02/e.jpg,1,3,f,5,12,312,48,j,0,0.883099636845,02,02,60.0210781611,PLT_learning_02,B,2014_Feb_26_1625,P14,
stim_fb/ques.jpg,stim_fb/posf.jpg,stim_fb/negf.jpg,stim_02/e.jpg,stim_02/f.jpg,2,3,j,5,13,313,58,f,0,0.833127083255,02,02,60.0210781611,PLT_learning_02,B,2014_Feb_26_1625,P14,
stim_fb/ques.jpg,stim_fb/negf.jpg,stim_fb/posf.jpg,stim_02/b.jpg,stim_02/a.jpg,1,1,f,5,14,314,4,f,1,0.699817730694,02,02,60.0210781611,PLT_learning_02,B,2014_Feb_26_1625,P14,
stim_fb/ques.jpg,stim_fb/posf.jpg,stim_fb/negf.jpg,stim_02/f.jpg,stim_02/e.jpg,1,3,f,5,15,315,49,j,0,0.849758486027,02,02,60.0210781611,PLT_learning_02,B,2014_Feb_26_1625,P14,
stim_fb/ques.jpg,stim_fb/negf.jpg,stim_fb/posf.jpg,stim_02/f.jpg,stim_02/e.jpg,1,3,f,5,16,316,45,f,1,0.833113865309,02,02,60.0210781611,PLT_learning_02,B,2014_Feb_26_1625,P14,
stim_fb/ques.jpg,stim_fb/negf.jpg,stim_fb/posf.jpg,stim_02/d.jpg,stim_02/c.jpg,1,2,f,5,17,317,20,f,1,0.649817775806,02,02,60.0210781611,PLT_learning_02,B,2014_Feb_26_1625,P14,
stim_fb/ques.jpg,stim_fb/negf.jpg,stim_fb/posf.jpg,stim_02/d.jpg,stim_02/c.jpg,1,2,f,5,18,318,22,f,1,0.616493623356,02,02,60.0210781611,PLT_learning_02,B,2014_Feb_26_1625,P14,
stim_fb/ques.jpg,stim_fb/negf.jpg,stim_fb/posf.jpg,stim_02/f.jpg,stim_02/e.jpg,1,3,f,5,19,319,41,f,1,0.933040319997,02,02,60.0210781611,PLT_learning_02,B,2014_Feb_26_1625,P14,
stim_fb/ques.jpg,stim_fb/posf.jpg,stim_fb/negf.jpg,stim_02/d.jpg,stim_02/c.jpg,1,2,f,5,20,320,28,f,1,0.566551337208,02,02,60.0210781611,PLT_learning_02,B,2014_Feb_26_1625,P14,
stim_fb/ques.jpg,stim_fb/negf.jpg,stim_fb/posf.jpg,stim_02/a.jpg,stim_02/b.jpg,2,1,j,5,21,321,14,j,1,0.633177467838,02,02,60.0210781611,PLT_learning_02,B,2014_Feb_26_1625,P14,
stim_fb/ques.jpg,stim_fb/posf.jpg,stim_fb/negf.jpg,stim_02/b.jpg,stim_02/a.jpg,1,1,f,5,22,322,8,f,1,0.916433076443,02,02,60.0210781611,PLT_learning_02,B,2014_Feb_26_1625,P14,
stim_fb/ques.jpg,stim_fb/negf.jpg,stim_fb/posf.jpg,stim_02/d.jpg,stim_02/c.jpg,1,2,f,5,23,323,21,f,1,0.916384018165,02,02,60.0210781611,PLT_learning_02,B,2014_Feb_26_1625,P14,
stim_fb/ques.jpg,stim_fb/posf.jpg,stim_fb/negf.jpg,stim_02/f.jpg,stim_02/e.jpg,1,3,f,5,24,324,47,j,0,1.3162895467,02,02,60.0210781611,PLT_learning_02,B,2014_Feb_26_1625,P14,
stim_fb/ques.jpg,stim_fb/negf.jpg,stim_fb/posf.jpg,stim_02/f.jpg,stim_02/e.jpg,1,3,f,5,25,325,42,j,0,0.81640357892,02,02,60.0210781611,PLT_learning_02,B,2014_Feb_26_1625,P14,
stim_fb/ques.jpg,stim_fb/negf.jpg,stim_fb/posf.jpg,stim_02/a.jpg,stim_02/b.jpg,2,1,j,5,26,326,17,j,1,0.749789403087,02,02,60.0210781611,PLT_learning_02,B,2014_Feb_26_1625,P14,
stim_fb/ques.jpg,stim_fb/negf.jpg,stim_fb/posf.jpg,stim_02/a.jpg,stim_02/b.jpg,2,1,j,5,27,327,15,j,1,0.616489851956,02,02,60.0210781611,PLT_learning_02,B,2014_Feb_26_1625,P14,
stim_fb/ques.jpg,stim_fb/posf.jpg,stim_fb/negf.jpg,stim_02/e.jpg,stim_02/f.jpg,2,3,j,5,28,328,59,f,0,1.13299369779,02,02,60.0210781611,PLT_learning_02,B,2014_Feb_26_1625,P14,
stim_fb/ques.jpg,stim_fb/posf.jpg,stim_fb/negf.jpg,stim_02/a.jpg,stim_02/b.jpg,2,1,j,5,29,329,18,j,1,0.849813186367,02,02,60.0210781611,PLT_learning_02,B,2014_Feb_26_1625,P14,
stim_fb/ques.jpg,stim_fb/negf.jpg,stim_fb/posf.jpg,stim_02/a.jpg,stim_02/b.jpg,2,1,j,5,30,330,16,j,1,0.666481593371,02,02,60.0210781611,PLT_learning_02,B,2014_Feb_26_1625,P14,
stim_fb/ques.jpg,stim_fb/negf.jpg,stim_fb/posf.jpg,stim_02/b.jpg,stim_02/a.jpg,1,1,f,5,31,331,3,f,1,0.566533021557,02,02,60.0210781611,PLT_learning_02,B,2014_Feb_26_1625,P14,
stim_fb/ques.jpg,stim_fb/negf.jpg,stim_fb/posf.jpg,stim_02/c.jpg,stim_02/d.jpg,2,2,j,5,32,332,34,j,1,0.766292175247,02,02,60.0210781611,PLT_learning_02,B,2014_Feb_26_1625,P14,
stim_fb/ques.jpg,stim_fb/negf.jpg,stim_fb/posf.jpg,stim_02/d.jpg,stim_02/c.jpg,1,2,f,5,33,333,23,f,1,0.666468357381,02,02,60.0210781611,PLT_learning_02,B,2014_Feb_26_1625,P14,
stim_fb/ques.jpg,stim_fb/posf.jpg,stim_fb/negf.jpg,stim_02/c.jpg,stim_02/d.jpg,2,2,j,5,34,334,37,j,1,0.633161531116,02,02,60.0210781611,PLT_learning_02,B,2014_Feb_26_1625,P14,
stim_fb/ques.jpg,stim_fb/negf.jpg,stim_fb/posf.jpg,stim_02/b.jpg,stim_02/a.jpg,1,1,f,5,35,335,7,f,1,0.583197124834,02,02,60.0210781611,PLT_learning_02,B,2014_Feb_26_1625,P14,
stim_fb/ques.jpg,stim_fb/negf.jpg,stim_fb/posf.jpg,stim_02/d.jpg,stim_02/c.jpg,1,2,f,5,36,336,25,f,1,0.799770458869,02,02,60.0210781611,PLT_learning_02,B,2014_Feb_26_1625,P14,
stim_fb/ques.jpg,stim_fb/posf.jpg,stim_fb/negf.jpg,stim_02/a.jpg,stim_02/b.jpg,2,1,j,5,37,337,19,j,1,1.0663754859,02,02,60.0210781611,PLT_learning_02,B,2014_Feb_26_1625,P14,
stim_fb/ques.jpg,stim_fb/negf.jpg,stim_fb/posf.jpg,stim_02/c.jpg,stim_02/d.jpg,2,2,j,5,38,338,32,j,1,0.916395855671,02,02,60.0210781611,PLT_learning_02,B,2014_Feb_26_1625,P14,
stim_fb/ques.jpg,stim_fb/negf.jpg,stim_fb/posf.jpg,stim_02/e.jpg,stim_02/f.jpg,2,3,j,5,39,339,53,f,0,1.46623941474,02,02,60.0210781611,PLT_learning_02,B,2014_Feb_26_1625,P14,
stim_fb/ques.jpg,stim_fb/negf.jpg,stim_fb/posf.jpg,stim_02/c.jpg,stim_02/d.jpg,2,2,j,5,40,340,31,j,1,0.599875224998,02,02,60.0210781611,PLT_learning_02,B,2014_Feb_26_1625,P14,
stim_fb/ques.jpg,stim_fb/negf.jpg,stim_fb/posf.jpg,stim_02/f.jpg,stim_02/e.jpg,1,3,f,5,41,341,40,j,0,1.08302027804,02,02,60.0210781611,PLT_learning_02,B,2014_Feb_26_1625,P14,
stim_fb/ques.jpg,stim_fb/negf.jpg,stim_fb/posf.jpg,stim_02/d.jpg,stim_02/c.jpg,1,2,f,5,42,342,26,f,1,1.03302968549,02,02,60.0210781611,PLT_learning_02,B,2014_Feb_26_1625,P14,
stim_fb/ques.jpg,stim_fb/negf.jpg,stim_fb/posf.jpg,stim_02/a.jpg,stim_02/b.jpg,2,1,j,5,43,343,12,j,1,0.766446823708,02,02,60.0210781611,PLT_learning_02,B,2014_Feb_26_1625,P14,
stim_fb/ques.jpg,stim_fb/posf.jpg,stim_fb/negf.jpg,stim_02/b.jpg,stim_02/a.jpg,1,1,f,5,44,344,9,f,1,0.683170433305,02,02,60.0210781611,PLT_learning_02,B,2014_Feb_26_1625,P14,
stim_fb/ques.jpg,stim_fb/posf.jpg,stim_fb/negf.jpg,stim_02/c.jpg,stim_02/d.jpg,2,2,j,5,45,345,39,j,1,0.799818428433,02,02,60.0210781611,PLT_learning_02,B,2014_Feb_26_1625,P14,
stim_fb/ques.jpg,stim_fb/negf.jpg,stim_fb/posf.jpg,stim_02/c.jpg,stim_02/d.jpg,2,2,j,5,46,346,35,j,1,1.09970079623,02,02,60.0210781611,PLT_learning_02,B,2014_Feb_26_1625,P14,
stim_fb/ques.jpg,stim_fb/negf.jpg,stim_fb/posf.jpg,stim_02/a.jpg,stim_02/b.jpg,2,1,j,5,47,347,13,j,1,0.783156917617,02,02,60.0210781611,PLT_learning_02,B,2014_Feb_26_1625,P14,
stim_fb/ques.jpg,stim_fb/negf.jpg,stim_fb/posf.jpg,stim_02/e.jpg,stim_02/f.jpg,2,3,j,5,48,348,55,f,0,0.833111754047,02,02,60.0210781611,PLT_learning_02,B,2014_Feb_26_1625,P14,
stim_fb/ques.jpg,stim_fb/negf.jpg,stim_fb/posf.jpg,stim_02/c.jpg,stim_02/d.jpg,2,2,j,5,49,349,33,f,0,0.866424856956,02,02,60.0210781611,PLT_learning_02,B,2014_Feb_26_1625,P14,
stim_fb/ques.jpg,stim_fb/negf.jpg,stim_fb/posf.jpg,stim_02/c.jpg,stim_02/d.jpg,2,2,j,5,50,350,36,j,1,0.83309367298,02,02,60.0210781611,PLT_learning_02,B,2014_Feb_26_1625,P14,
stim_fb/ques.jpg,stim_fb/negf.jpg,stim_fb/posf.jpg,stim_02/c.jpg,stim_02/d.jpg,2,2,j,5,51,351,30,j,1,0.599830626838,02,02,60.0210781611,PLT_learning_02,B,2014_Feb_26_1625,P14,
stim_fb/ques.jpg,stim_fb/negf.jpg,stim_fb/posf.jpg,stim_02/a.jpg,stim_02/b.jpg,2,1,j,5,52,352,10,j,1,0.866432826821,02,02,60.0210781611,PLT_learning_02,B,2014_Feb_26_1625,P14,
stim_fb/ques.jpg,stim_fb/negf.jpg,stim_fb/posf.jpg,stim_02/b.jpg,stim_02/a.jpg,1,1,f,5,53,353,2,f,1,0.583189527898,02,02,60.0210781611,PLT_learning_02,B,2014_Feb_26_1625,P14,
stim_fb/ques.jpg,stim_fb/posf.jpg,stim_fb/negf.jpg,stim_02/f.jpg,stim_02/e.jpg,1,3,f,5,54,354,46,j,0,0.883104433801,02,02,60.0210781611,PLT_learning_02,B,2014_Feb_26_1625,P14,
stim_fb/ques.jpg,stim_fb/negf.jpg,stim_fb/posf.jpg,stim_02/e.jpg,stim_02/f.jpg,2,3,j,5,55,355,52,f,0,0.799698381215,02,02,60.0210781611,PLT_learning_02,B,2014_Feb_26_1625,P14,
stim_fb/ques.jpg,stim_fb/posf.jpg,stim_fb/negf.jpg,stim_02/e.jpg,stim_02/f.jpg,2,3,j,5,56,356,56,j,1,0.533157937158,02,02,60.0210781611,PLT_learning_02,B,2014_Feb_26_1625,P14,
stim_fb/ques.jpg,stim_fb/negf.jpg,stim_fb/posf.jpg,stim_02/e.jpg,stim_02/f.jpg,2,3,j,5,57,357,51,f,0,0.516429978722,02,02,60.0210781611,PLT_learning_02,B,2014_Feb_26_1625,P14,
stim_fb/ques.jpg,stim_fb/negf.jpg,stim_fb/posf.jpg,stim_02/a.jpg,stim_02/b.jpg,2,1,j,5,58,358,11,j,1,0.383255401087,02,02,60.0210781611,PLT_learning_02,B,2014_Feb_26_1625,P14,
stim_fb/ques.jpg,stim_fb/negf.jpg,stim_fb/posf.jpg,stim_02/f.jpg,stim_02/e.jpg,1,3,f,5,59,359,44,f,1,0.999707842798,02,02,60.0210781611,PLT_learning_02,B,2014_Feb_26_1625,P14,
