Fb3,Fb2,Fb1,Symbol2,Symbol1,PosCond,Pair,Correct,trials.thisRepN,trials.thisTrialN,trials.thisN,trials.thisIndex,Response.keys,Response.corr,Response.rt,Version,Session Number,frameRate,expName,StimCondition,date,Participant,
stim_fb/ques.jpg,stim_fb/posf.jpg,stim_fb/negf.jpg,stim_02/f.jpg,stim_02/e.jpg,1,3,f,0,0,0,47,None,0,,02,03,60.0207154878,PLT_learning_02,B,2014_Mrz_11_1736,P15,
stim_fb/ques.jpg,stim_fb/negf.jpg,stim_fb/posf.jpg,stim_02/f.jpg,stim_02/e.jpg,1,3,f,0,1,1,41,j,0,0.899741960804,02,03,60.0207154878,PLT_learning_02,B,2014_Mrz_11_1736,P15,
stim_fb/ques.jpg,stim_fb/negf.jpg,stim_fb/posf.jpg,stim_02/c.jpg,stim_02/d.jpg,2,2,j,0,2,2,33,f,0,1.1163500562,02,03,60.0207154878,PLT_learning_02,B,2014_Mrz_11_1736,P15,
stim_fb/ques.jpg,stim_fb/posf.jpg,stim_fb/negf.jpg,stim_02/f.jpg,stim_02/e.jpg,1,3,f,0,3,3,48,f,1,1.14967293451,02,03,60.0207154878,PLT_learning_02,B,2014_Mrz_11_1736,P15,
stim_fb/ques.jpg,stim_fb/posf.jpg,stim_fb/negf.jpg,stim_02/e.jpg,stim_02/f.jpg,2,3,j,0,4,4,56,f,0,0.916393339925,02,03,60.0207154878,PLT_learning_02,B,2014_Mrz_11_1736,P15,
stim_fb/ques.jpg,stim_fb/negf.jpg,stim_fb/posf.jpg,stim_02/e.jpg,stim_02/f.jpg,2,3,j,0,5,5,53,f,0,1.03300548941,02,03,60.0207154878,PLT_learning_02,B,2014_Mrz_11_1736,P15,
stim_fb/ques.jpg,stim_fb/negf.jpg,stim_fb/posf.jpg,stim_02/b.jpg,stim_02/a.jpg,1,1,f,0,6,6,6,j,0,1.11665705725,02,03,60.0207154878,PLT_learning_02,B,2014_Mrz_11_1736,P15,
stim_fb/ques.jpg,stim_fb/negf.jpg,stim_fb/posf.jpg,stim_02/b.jpg,stim_02/a.jpg,1,1,f,0,7,7,7,j,0,0.466555932075,02,03,60.0207154878,PLT_learning_02,B,2014_Mrz_11_1736,P15,
stim_fb/ques.jpg,stim_fb/posf.jpg,stim_fb/negf.jpg,stim_02/b.jpg,stim_02/a.jpg,1,1,f,0,8,8,9,f,1,0.699824519274,02,03,60.0207154878,PLT_learning_02,B,2014_Mrz_11_1736,P15,
stim_fb/ques.jpg,stim_fb/negf.jpg,stim_fb/posf.jpg,stim_02/c.jpg,stim_02/d.jpg,2,2,j,0,9,9,30,f,0,1.3829166438,02,03,60.0207154878,PLT_learning_02,B,2014_Mrz_11_1736,P15,
stim_fb/ques.jpg,stim_fb/negf.jpg,stim_fb/posf.jpg,stim_02/c.jpg,stim_02/d.jpg,2,2,j,0,10,10,31,j,1,1.13298953771,02,03,60.0207154878,PLT_learning_02,B,2014_Mrz_11_1736,P15,
stim_fb/ques.jpg,stim_fb/negf.jpg,stim_fb/posf.jpg,stim_02/d.jpg,stim_02/c.jpg,1,2,f,0,11,11,23,f,1,0.982901531186,02,03,60.0207154878,PLT_learning_02,B,2014_Mrz_11_1736,P15,
stim_fb/ques.jpg,stim_fb/negf.jpg,stim_fb/posf.jpg,stim_02/a.jpg,stim_02/b.jpg,2,1,j,0,12,12,17,j,1,1.26629192904,02,03,60.0207154878,PLT_learning_02,B,2014_Mrz_11_1736,P15,
stim_fb/ques.jpg,stim_fb/negf.jpg,stim_fb/posf.jpg,stim_02/a.jpg,stim_02/b.jpg,2,1,j,0,13,13,11,j,1,0.633148032164,02,03,60.0207154878,PLT_learning_02,B,2014_Mrz_11_1736,P15,
stim_fb/ques.jpg,stim_fb/negf.jpg,stim_fb/posf.jpg,stim_02/c.jpg,stim_02/d.jpg,2,2,j,0,14,14,34,j,1,1.5995116416,02,03,60.0207154878,PLT_learning_02,B,2014_Mrz_11_1736,P15,
stim_fb/ques.jpg,stim_fb/negf.jpg,stim_fb/posf.jpg,stim_02/c.jpg,stim_02/d.jpg,2,2,j,0,15,15,36,j,1,0.616472809705,02,03,60.0207154878,PLT_learning_02,B,2014_Mrz_11_1736,P15,
stim_fb/ques.jpg,stim_fb/negf.jpg,stim_fb/posf.jpg,stim_02/f.jpg,stim_02/e.jpg,1,3,f,0,16,16,43,f,1,0.949770208606,02,03,60.0207154878,PLT_learning_02,B,2014_Mrz_11_1736,P15,
stim_fb/ques.jpg,stim_fb/negf.jpg,stim_fb/posf.jpg,stim_02/f.jpg,stim_02/e.jpg,1,3,f,0,17,17,42,f,1,1.01639281061,02,03,60.0207154878,PLT_learning_02,B,2014_Mrz_11_1736,P15,
stim_fb/ques.jpg,stim_fb/posf.jpg,stim_fb/negf.jpg,stim_02/f.jpg,stim_02/e.jpg,1,3,f,0,18,18,46,f,1,0.866421945617,02,03,60.0207154878,PLT_learning_02,B,2014_Mrz_11_1736,P15,
stim_fb/ques.jpg,stim_fb/posf.jpg,stim_fb/negf.jpg,stim_02/e.jpg,stim_02/f.jpg,2,3,j,0,19,19,58,j,1,1.38292922411,02,03,60.0207154878,PLT_learning_02,B,2014_Mrz_11_1736,P15,
stim_fb/ques.jpg,stim_fb/posf.jpg,stim_fb/negf.jpg,stim_02/e.jpg,stim_02/f.jpg,2,3,j,0,20,20,57,j,1,0.833104495814,02,03,60.0207154878,PLT_learning_02,B,2014_Mrz_11_1736,P15,
stim_fb/ques.jpg,stim_fb/posf.jpg,stim_fb/negf.jpg,stim_02/c.jpg,stim_02/d.jpg,2,2,j,0,21,21,39,j,1,0.633431271075,02,03,60.0207154878,PLT_learning_02,B,2014_Mrz_11_1736,P15,
stim_fb/ques.jpg,stim_fb/negf.jpg,stim_fb/posf.jpg,stim_02/d.jpg,stim_02/c.jpg,1,2,f,0,22,22,24,f,1,0.766471265362,02,03,60.0207154878,PLT_learning_02,B,2014_Mrz_11_1736,P15,
stim_fb/ques.jpg,stim_fb/negf.jpg,stim_fb/posf.jpg,stim_02/c.jpg,stim_02/d.jpg,2,2,j,0,23,23,32,j,1,0.533199345871,02,03,60.0207154878,PLT_learning_02,B,2014_Mrz_11_1736,P15,
stim_fb/ques.jpg,stim_fb/negf.jpg,stim_fb/posf.jpg,stim_02/a.jpg,stim_02/b.jpg,2,1,j,0,24,24,14,j,1,0.899730075225,02,03,60.0207154878,PLT_learning_02,B,2014_Mrz_11_1736,P15,
stim_fb/ques.jpg,stim_fb/negf.jpg,stim_fb/posf.jpg,stim_02/d.jpg,stim_02/c.jpg,1,2,f,0,25,25,21,f,1,0.599840483002,02,03,60.0207154878,PLT_learning_02,B,2014_Mrz_11_1736,P15,
stim_fb/ques.jpg,stim_fb/negf.jpg,stim_fb/posf.jpg,stim_02/e.jpg,stim_02/f.jpg,2,3,j,0,26,26,52,j,1,1.03298605504,02,03,60.0207154878,PLT_learning_02,B,2014_Mrz_11_1736,P15,
stim_fb/ques.jpg,stim_fb/posf.jpg,stim_fb/negf.jpg,stim_02/f.jpg,stim_02/e.jpg,1,3,f,0,27,27,49,f,1,0.649825456103,02,03,60.0207154878,PLT_learning_02,B,2014_Mrz_11_1736,P15,
stim_fb/ques.jpg,stim_fb/negf.jpg,stim_fb/posf.jpg,stim_02/b.jpg,stim_02/a.jpg,1,1,f,0,28,28,4,f,1,0.866441804041,02,03,60.0207154878,PLT_learning_02,B,2014_Mrz_11_1736,P15,
stim_fb/ques.jpg,stim_fb/posf.jpg,stim_fb/negf.jpg,stim_02/e.jpg,stim_02/f.jpg,2,3,j,0,29,29,59,j,1,0.949725833167,02,03,60.0207154878,PLT_learning_02,B,2014_Mrz_11_1736,P15,
stim_fb/ques.jpg,stim_fb/negf.jpg,stim_fb/posf.jpg,stim_02/e.jpg,stim_02/f.jpg,2,3,j,0,30,30,51,j,1,0.833098441748,02,03,60.0207154878,PLT_learning_02,B,2014_Mrz_11_1736,P15,
stim_fb/ques.jpg,stim_fb/negf.jpg,stim_fb/posf.jpg,stim_02/b.jpg,stim_02/a.jpg,1,1,f,0,31,31,3,f,1,0.649823026057,02,03,60.0207154878,PLT_learning_02,B,2014_Mrz_11_1736,P15,
stim_fb/ques.jpg,stim_fb/posf.jpg,stim_fb/negf.jpg,stim_02/a.jpg,stim_02/b.jpg,2,1,j,0,32,32,19,f,0,0.516559659854,02,03,60.0207154878,PLT_learning_02,B,2014_Mrz_11_1736,P15,
stim_fb/ques.jpg,stim_fb/negf.jpg,stim_fb/posf.jpg,stim_02/e.jpg,stim_02/f.jpg,2,3,j,0,33,33,50,j,1,0.799785034003,02,03,60.0207154878,PLT_learning_02,B,2014_Mrz_11_1736,P15,
stim_fb/ques.jpg,stim_fb/negf.jpg,stim_fb/posf.jpg,stim_02/d.jpg,stim_02/c.jpg,1,2,f,0,34,34,22,f,1,0.68313660222,02,03,60.0207154878,PLT_learning_02,B,2014_Mrz_11_1736,P15,
stim_fb/ques.jpg,stim_fb/negf.jpg,stim_fb/posf.jpg,stim_02/d.jpg,stim_02/c.jpg,1,2,f,0,35,35,20,f,1,0.533175803281,02,03,60.0207154878,PLT_learning_02,B,2014_Mrz_11_1736,P15,
stim_fb/ques.jpg,stim_fb/posf.jpg,stim_fb/negf.jpg,stim_02/c.jpg,stim_02/d.jpg,2,2,j,0,36,36,38,j,1,0.599846804735,02,03,60.0207154878,PLT_learning_02,B,2014_Mrz_11_1736,P15,
stim_fb/ques.jpg,stim_fb/negf.jpg,stim_fb/posf.jpg,stim_02/f.jpg,stim_02/e.jpg,1,3,f,0,37,37,45,f,1,0.949736383423,02,03,60.0207154878,PLT_learning_02,B,2014_Mrz_11_1736,P15,
stim_fb/ques.jpg,stim_fb/negf.jpg,stim_fb/posf.jpg,stim_02/b.jpg,stim_02/a.jpg,1,1,f,0,38,38,1,f,1,0.766455960273,02,03,60.0207154878,PLT_learning_02,B,2014_Mrz_11_1736,P15,
stim_fb/ques.jpg,stim_fb/negf.jpg,stim_fb/posf.jpg,stim_02/e.jpg,stim_02/f.jpg,2,3,j,0,39,39,55,j,1,0.69981053146,02,03,60.0207154878,PLT_learning_02,B,2014_Mrz_11_1736,P15,
stim_fb/ques.jpg,stim_fb/negf.jpg,stim_fb/posf.jpg,stim_02/b.jpg,stim_02/a.jpg,1,1,f,0,40,40,2,f,1,0.699829222978,02,03,60.0207154878,PLT_learning_02,B,2014_Mrz_11_1736,P15,
stim_fb/ques.jpg,stim_fb/posf.jpg,stim_fb/negf.jpg,stim_02/d.jpg,stim_02/c.jpg,1,2,f,0,41,41,27,f,1,0.583176285982,02,03,60.0207154878,PLT_learning_02,B,2014_Mrz_11_1736,P15,
stim_fb/ques.jpg,stim_fb/negf.jpg,stim_fb/posf.jpg,stim_02/f.jpg,stim_02/e.jpg,1,3,f,0,42,42,40,f,1,0.749784843028,02,03,60.0207154878,PLT_learning_02,B,2014_Mrz_11_1736,P15,
stim_fb/ques.jpg,stim_fb/negf.jpg,stim_fb/posf.jpg,stim_02/a.jpg,stim_02/b.jpg,2,1,j,0,43,43,12,j,1,0.616480490822,02,03,60.0207154878,PLT_learning_02,B,2014_Mrz_11_1736,P15,
stim_fb/ques.jpg,stim_fb/negf.jpg,stim_fb/posf.jpg,stim_02/a.jpg,stim_02/b.jpg,2,1,j,0,44,44,13,j,1,0.666501099611,02,03,60.0207154878,PLT_learning_02,B,2014_Mrz_11_1736,P15,
stim_fb/ques.jpg,stim_fb/posf.jpg,stim_fb/negf.jpg,stim_02/d.jpg,stim_02/c.jpg,1,2,f,0,45,45,29,f,1,0.666488994486,02,03,60.0207154878,PLT_learning_02,B,2014_Mrz_11_1736,P15,
stim_fb/ques.jpg,stim_fb/negf.jpg,stim_fb/posf.jpg,stim_02/d.jpg,stim_02/c.jpg,1,2,f,0,46,46,25,f,1,0.783129023357,02,03,60.0207154878,PLT_learning_02,B,2014_Mrz_11_1736,P15,
stim_fb/ques.jpg,stim_fb/posf.jpg,stim_fb/negf.jpg,stim_02/b.jpg,stim_02/a.jpg,1,1,f,0,47,47,8,f,1,0.699820603528,02,03,60.0207154878,PLT_learning_02,B,2014_Mrz_11_1736,P15,
stim_fb/ques.jpg,stim_fb/posf.jpg,stim_fb/negf.jpg,stim_02/d.jpg,stim_02/c.jpg,1,2,f,0,48,48,28,f,1,0.966397491757,02,03,60.0207154878,PLT_learning_02,B,2014_Mrz_11_1736,P15,
stim_fb/ques.jpg,stim_fb/negf.jpg,stim_fb/posf.jpg,stim_02/a.jpg,stim_02/b.jpg,2,1,j,0,49,49,15,j,1,1.01632196028,02,03,60.0207154878,PLT_learning_02,B,2014_Mrz_11_1736,P15,
stim_fb/ques.jpg,stim_fb/negf.jpg,stim_fb/posf.jpg,stim_02/e.jpg,stim_02/f.jpg,2,3,j,0,50,50,54,j,1,1.01639830829,02,03,60.0207154878,PLT_learning_02,B,2014_Mrz_11_1736,P15,
stim_fb/ques.jpg,stim_fb/negf.jpg,stim_fb/posf.jpg,stim_02/a.jpg,stim_02/b.jpg,2,1,j,0,51,51,10,j,1,0.549879112643,02,03,60.0207154878,PLT_learning_02,B,2014_Mrz_11_1736,P15,
stim_fb/ques.jpg,stim_fb/negf.jpg,stim_fb/posf.jpg,stim_02/d.jpg,stim_02/c.jpg,1,2,f,0,52,52,26,f,1,0.666488609526,02,03,60.0207154878,PLT_learning_02,B,2014_Mrz_11_1736,P15,
stim_fb/ques.jpg,stim_fb/posf.jpg,stim_fb/negf.jpg,stim_02/c.jpg,stim_02/d.jpg,2,2,j,0,53,53,37,j,1,0.833104089803,02,03,60.0207154878,PLT_learning_02,B,2014_Mrz_11_1736,P15,
stim_fb/ques.jpg,stim_fb/posf.jpg,stim_fb/negf.jpg,stim_02/a.jpg,stim_02/b.jpg,2,1,j,0,54,54,18,j,1,0.5665006124,02,03,60.0207154878,PLT_learning_02,B,2014_Mrz_11_1736,P15,
stim_fb/ques.jpg,stim_fb/negf.jpg,stim_fb/posf.jpg,stim_02/f.jpg,stim_02/e.jpg,1,3,f,0,55,55,44,f,1,0.799730024097,02,03,60.0207154878,PLT_learning_02,B,2014_Mrz_11_1736,P15,
stim_fb/ques.jpg,stim_fb/negf.jpg,stim_fb/posf.jpg,stim_02/a.jpg,stim_02/b.jpg,2,1,j,0,56,56,16,j,1,1.09967767582,02,03,60.0207154878,PLT_learning_02,B,2014_Mrz_11_1736,P15,
stim_fb/ques.jpg,stim_fb/negf.jpg,stim_fb/posf.jpg,stim_02/b.jpg,stim_02/a.jpg,1,1,f,0,57,57,0,f,1,0.766440231126,02,03,60.0207154878,PLT_learning_02,B,2014_Mrz_11_1736,P15,
stim_fb/ques.jpg,stim_fb/negf.jpg,stim_fb/posf.jpg,stim_02/b.jpg,stim_02/a.jpg,1,1,f,0,58,58,5,f,1,0.716459128656,02,03,60.0207154878,PLT_learning_02,B,2014_Mrz_11_1736,P15,
stim_fb/ques.jpg,stim_fb/negf.jpg,stim_fb/posf.jpg,stim_02/c.jpg,stim_02/d.jpg,2,2,j,0,59,59,35,j,1,0.666503986797,02,03,60.0207154878,PLT_learning_02,B,2014_Mrz_11_1736,P15,
stim_fb/ques.jpg,stim_fb/posf.jpg,stim_fb/negf.jpg,stim_02/a.jpg,stim_02/b.jpg,2,1,j,1,0,60,19,j,1,0.783143880331,02,03,60.0207154878,PLT_learning_02,B,2014_Mrz_11_1736,P15,
stim_fb/ques.jpg,stim_fb/negf.jpg,stim_fb/posf.jpg,stim_02/d.jpg,stim_02/c.jpg,1,2,f,1,1,61,21,f,1,0.616776198764,02,03,60.0207154878,PLT_learning_02,B,2014_Mrz_11_1736,P15,
stim_fb/ques.jpg,stim_fb/negf.jpg,stim_fb/posf.jpg,stim_02/b.jpg,stim_02/a.jpg,1,1,f,1,2,62,6,f,1,0.616491305736,02,03,60.0207154878,PLT_learning_02,B,2014_Mrz_11_1736,P15,
stim_fb/ques.jpg,stim_fb/negf.jpg,stim_fb/posf.jpg,stim_02/b.jpg,stim_02/a.jpg,1,1,f,1,3,63,4,f,1,0.783098274831,02,03,60.0207154878,PLT_learning_02,B,2014_Mrz_11_1736,P15,
stim_fb/ques.jpg,stim_fb/posf.jpg,stim_fb/negf.jpg,stim_02/b.jpg,stim_02/a.jpg,1,1,f,1,4,64,9,f,1,0.76645974068,02,03,60.0207154878,PLT_learning_02,B,2014_Mrz_11_1736,P15,
stim_fb/ques.jpg,stim_fb/negf.jpg,stim_fb/posf.jpg,stim_02/a.jpg,stim_02/b.jpg,2,1,j,1,5,65,11,f,0,0.91639656094,02,03,60.0207154878,PLT_learning_02,B,2014_Mrz_11_1736,P15,
stim_fb/ques.jpg,stim_fb/negf.jpg,stim_fb/posf.jpg,stim_02/a.jpg,stim_02/b.jpg,2,1,j,1,6,66,14,f,0,0.749812932936,02,03,60.0207154878,PLT_learning_02,B,2014_Mrz_11_1736,P15,
stim_fb/ques.jpg,stim_fb/posf.jpg,stim_fb/negf.jpg,stim_02/f.jpg,stim_02/e.jpg,1,3,f,1,7,67,47,f,1,0.933068562385,02,03,60.0207154878,PLT_learning_02,B,2014_Mrz_11_1736,P15,
stim_fb/ques.jpg,stim_fb/negf.jpg,stim_fb/posf.jpg,stim_02/d.jpg,stim_02/c.jpg,1,2,f,1,8,68,20,f,1,0.699817680252,02,03,60.0207154878,PLT_learning_02,B,2014_Mrz_11_1736,P15,
stim_fb/ques.jpg,stim_fb/negf.jpg,stim_fb/posf.jpg,stim_02/d.jpg,stim_02/c.jpg,1,2,f,1,9,69,25,f,1,0.54983733567,02,03,60.0207154878,PLT_learning_02,B,2014_Mrz_11_1736,P15,
stim_fb/ques.jpg,stim_fb/negf.jpg,stim_fb/posf.jpg,stim_02/e.jpg,stim_02/f.jpg,2,3,j,1,10,70,53,j,1,1.08303022146,02,03,60.0207154878,PLT_learning_02,B,2014_Mrz_11_1736,P15,
stim_fb/ques.jpg,stim_fb/negf.jpg,stim_fb/posf.jpg,stim_02/c.jpg,stim_02/d.jpg,2,2,j,1,11,71,34,j,1,0.649799510533,02,03,60.0207154878,PLT_learning_02,B,2014_Mrz_11_1736,P15,
stim_fb/ques.jpg,stim_fb/negf.jpg,stim_fb/posf.jpg,stim_02/f.jpg,stim_02/e.jpg,1,3,f,1,12,72,41,f,1,0.666469403728,02,03,60.0207154878,PLT_learning_02,B,2014_Mrz_11_1736,P15,
stim_fb/ques.jpg,stim_fb/negf.jpg,stim_fb/posf.jpg,stim_02/d.jpg,stim_02/c.jpg,1,2,f,1,13,73,23,f,1,0.599861718854,02,03,60.0207154878,PLT_learning_02,B,2014_Mrz_11_1736,P15,
stim_fb/ques.jpg,stim_fb/negf.jpg,stim_fb/posf.jpg,stim_02/c.jpg,stim_02/d.jpg,2,2,j,1,14,74,36,j,1,0.799802603729,02,03,60.0207154878,PLT_learning_02,B,2014_Mrz_11_1736,P15,
stim_fb/ques.jpg,stim_fb/negf.jpg,stim_fb/posf.jpg,stim_02/a.jpg,stim_02/b.jpg,2,1,j,1,15,75,15,j,1,0.59984458822,02,03,60.0207154878,PLT_learning_02,B,2014_Mrz_11_1736,P15,
stim_fb/ques.jpg,stim_fb/negf.jpg,stim_fb/posf.jpg,stim_02/e.jpg,stim_02/f.jpg,2,3,j,1,16,76,54,j,1,1.08305653094,02,03,60.0207154878,PLT_learning_02,B,2014_Mrz_11_1736,P15,
stim_fb/ques.jpg,stim_fb/negf.jpg,stim_fb/posf.jpg,stim_02/b.jpg,stim_02/a.jpg,1,1,f,1,17,77,5,f,1,0.599842419822,02,03,60.0207154878,PLT_learning_02,B,2014_Mrz_11_1736,P15,
stim_fb/ques.jpg,stim_fb/negf.jpg,stim_fb/posf.jpg,stim_02/b.jpg,stim_02/a.jpg,1,1,f,1,18,78,3,f,1,0.683165549261,02,03,60.0207154878,PLT_learning_02,B,2014_Mrz_11_1736,P15,
stim_fb/ques.jpg,stim_fb/negf.jpg,stim_fb/posf.jpg,stim_02/a.jpg,stim_02/b.jpg,2,1,j,1,19,79,12,j,1,0.533183228759,02,03,60.0207154878,PLT_learning_02,B,2014_Mrz_11_1736,P15,
stim_fb/ques.jpg,stim_fb/negf.jpg,stim_fb/posf.jpg,stim_02/b.jpg,stim_02/a.jpg,1,1,f,1,20,80,1,f,1,0.633184401679,02,03,60.0207154878,PLT_learning_02,B,2014_Mrz_11_1736,P15,
stim_fb/ques.jpg,stim_fb/negf.jpg,stim_fb/posf.jpg,stim_02/f.jpg,stim_02/e.jpg,1,3,f,1,21,81,42,f,1,0.6165088093,02,03,60.0207154878,PLT_learning_02,B,2014_Mrz_11_1736,P15,
stim_fb/ques.jpg,stim_fb/negf.jpg,stim_fb/posf.jpg,stim_02/e.jpg,stim_02/f.jpg,2,3,j,1,22,82,50,j,1,0.883087908031,02,03,60.0207154878,PLT_learning_02,B,2014_Mrz_11_1736,P15,
stim_fb/ques.jpg,stim_fb/posf.jpg,stim_fb/negf.jpg,stim_02/d.jpg,stim_02/c.jpg,1,2,f,1,23,83,28,f,1,0.666493120754,02,03,60.0207154878,PLT_learning_02,B,2014_Mrz_11_1736,P15,
stim_fb/ques.jpg,stim_fb/negf.jpg,stim_fb/posf.jpg,stim_02/c.jpg,stim_02/d.jpg,2,2,j,1,24,84,32,j,1,0.516537037553,02,03,60.0207154878,PLT_learning_02,B,2014_Mrz_11_1736,P15,
stim_fb/ques.jpg,stim_fb/negf.jpg,stim_fb/posf.jpg,stim_02/f.jpg,stim_02/e.jpg,1,3,f,1,25,85,43,f,1,0.61649798536,02,03,60.0207154878,PLT_learning_02,B,2014_Mrz_11_1736,P15,
stim_fb/ques.jpg,stim_fb/posf.jpg,stim_fb/negf.jpg,stim_02/e.jpg,stim_02/f.jpg,2,3,j,1,26,86,56,j,1,0.83306625865,02,03,60.0207154878,PLT_learning_02,B,2014_Mrz_11_1736,P15,
stim_fb/ques.jpg,stim_fb/posf.jpg,stim_fb/negf.jpg,stim_02/a.jpg,stim_02/b.jpg,2,1,j,1,27,87,18,j,1,0.7164771074,02,03,60.0207154878,PLT_learning_02,B,2014_Mrz_11_1736,P15,
stim_fb/ques.jpg,stim_fb/negf.jpg,stim_fb/posf.jpg,stim_02/c.jpg,stim_02/d.jpg,2,2,j,1,28,88,31,j,1,0.566530548904,02,03,60.0207154878,PLT_learning_02,B,2014_Mrz_11_1736,P15,
stim_fb/ques.jpg,stim_fb/posf.jpg,stim_fb/negf.jpg,stim_02/c.jpg,stim_02/d.jpg,2,2,j,1,29,89,39,j,1,0.583102064264,02,03,60.0207154878,PLT_learning_02,B,2014_Mrz_11_1736,P15,
stim_fb/ques.jpg,stim_fb/posf.jpg,stim_fb/negf.jpg,stim_02/e.jpg,stim_02/f.jpg,2,3,j,1,30,90,59,j,1,0.616518664829,02,03,60.0207154878,PLT_learning_02,B,2014_Mrz_11_1736,P15,
stim_fb/ques.jpg,stim_fb/negf.jpg,stim_fb/posf.jpg,stim_02/c.jpg,stim_02/d.jpg,2,2,j,1,31,91,30,j,1,0.483214056985,02,03,60.0207154878,PLT_learning_02,B,2014_Mrz_11_1736,P15,
stim_fb/ques.jpg,stim_fb/negf.jpg,stim_fb/posf.jpg,stim_02/c.jpg,stim_02/d.jpg,2,2,j,1,32,92,33,j,1,0.549867230069,02,03,60.0207154878,PLT_learning_02,B,2014_Mrz_11_1736,P15,
stim_fb/ques.jpg,stim_fb/negf.jpg,stim_fb/posf.jpg,stim_02/f.jpg,stim_02/e.jpg,1,3,f,1,33,93,45,f,1,0.666508479979,02,03,60.0207154878,PLT_learning_02,B,2014_Mrz_11_1736,P15,
stim_fb/ques.jpg,stim_fb/negf.jpg,stim_fb/posf.jpg,stim_02/a.jpg,stim_02/b.jpg,2,1,j,1,34,94,16,j,1,0.516540772849,02,03,60.0207154878,PLT_learning_02,B,2014_Mrz_11_1736,P15,
stim_fb/ques.jpg,stim_fb/negf.jpg,stim_fb/posf.jpg,stim_02/e.jpg,stim_02/f.jpg,2,3,j,1,35,95,52,f,0,0.649850538528,02,03,60.0207154878,PLT_learning_02,B,2014_Mrz_11_1736,P15,
stim_fb/ques.jpg,stim_fb/negf.jpg,stim_fb/posf.jpg,stim_02/a.jpg,stim_02/b.jpg,2,1,j,1,36,96,17,j,1,0.549841549155,02,03,60.0207154878,PLT_learning_02,B,2014_Mrz_11_1736,P15,
stim_fb/ques.jpg,stim_fb/negf.jpg,stim_fb/posf.jpg,stim_02/b.jpg,stim_02/a.jpg,1,1,f,1,37,97,7,f,1,0.616515449825,02,03,60.0207154878,PLT_learning_02,B,2014_Mrz_11_1736,P15,
stim_fb/ques.jpg,stim_fb/posf.jpg,stim_fb/negf.jpg,stim_02/f.jpg,stim_02/e.jpg,1,3,f,1,38,98,48,f,1,0.583205097688,02,03,60.0207154878,PLT_learning_02,B,2014_Mrz_11_1736,P15,
stim_fb/ques.jpg,stim_fb/negf.jpg,stim_fb/posf.jpg,stim_02/e.jpg,stim_02/f.jpg,2,3,j,1,39,99,51,j,1,0.783090181691,02,03,60.0207154878,PLT_learning_02,B,2014_Mrz_11_1736,P15,
stim_fb/ques.jpg,stim_fb/posf.jpg,stim_fb/negf.jpg,stim_02/e.jpg,stim_02/f.jpg,2,3,j,1,40,100,57,j,1,0.766457319654,02,03,60.0207154878,PLT_learning_02,B,2014_Mrz_11_1736,P15,
stim_fb/ques.jpg,stim_fb/posf.jpg,stim_fb/negf.jpg,stim_02/c.jpg,stim_02/d.jpg,2,2,j,1,41,101,37,j,1,1.01637879272,02,03,60.0207154878,PLT_learning_02,B,2014_Mrz_11_1736,P15,
stim_fb/ques.jpg,stim_fb/negf.jpg,stim_fb/posf.jpg,stim_02/d.jpg,stim_02/c.jpg,1,2,f,1,42,102,26,f,1,0.883152941884,02,03,60.0207154878,PLT_learning_02,B,2014_Mrz_11_1736,P15,
stim_fb/ques.jpg,stim_fb/negf.jpg,stim_fb/posf.jpg,stim_02/b.jpg,stim_02/a.jpg,1,1,f,1,43,103,0,f,1,1.11629643876,02,03,60.0207154878,PLT_learning_02,B,2014_Mrz_11_1736,P15,
stim_fb/ques.jpg,stim_fb/posf.jpg,stim_fb/negf.jpg,stim_02/f.jpg,stim_02/e.jpg,1,3,f,1,44,104,49,f,1,1.04971183934,02,03,60.0207154878,PLT_learning_02,B,2014_Mrz_11_1736,P15,
stim_fb/ques.jpg,stim_fb/posf.jpg,stim_fb/negf.jpg,stim_02/f.jpg,stim_02/e.jpg,1,3,f,1,45,105,46,f,1,0.89974839983,02,03,60.0207154878,PLT_learning_02,B,2014_Mrz_11_1736,P15,
stim_fb/ques.jpg,stim_fb/posf.jpg,stim_fb/negf.jpg,stim_02/c.jpg,stim_02/d.jpg,2,2,j,1,46,106,38,j,1,0.9829932294,02,03,60.0207154878,PLT_learning_02,B,2014_Mrz_11_1736,P15,
stim_fb/ques.jpg,stim_fb/negf.jpg,stim_fb/posf.jpg,stim_02/b.jpg,stim_02/a.jpg,1,1,f,1,47,107,2,j,0,0.599820212554,02,03,60.0207154878,PLT_learning_02,B,2014_Mrz_11_1736,P15,
stim_fb/ques.jpg,stim_fb/negf.jpg,stim_fb/posf.jpg,stim_02/e.jpg,stim_02/f.jpg,2,3,j,1,48,108,55,j,1,0.799782745307,02,03,60.0207154878,PLT_learning_02,B,2014_Mrz_11_1736,P15,
stim_fb/ques.jpg,stim_fb/negf.jpg,stim_fb/posf.jpg,stim_02/a.jpg,stim_02/b.jpg,2,1,j,1,49,109,13,j,1,0.966396177486,02,03,60.0207154878,PLT_learning_02,B,2014_Mrz_11_1736,P15,
stim_fb/ques.jpg,stim_fb/negf.jpg,stim_fb/posf.jpg,stim_02/a.jpg,stim_02/b.jpg,2,1,j,1,50,110,10,j,1,0.683160974875,02,03,60.0207154878,PLT_learning_02,B,2014_Mrz_11_1736,P15,
stim_fb/ques.jpg,stim_fb/posf.jpg,stim_fb/negf.jpg,stim_02/b.jpg,stim_02/a.jpg,1,1,f,1,51,111,8,f,1,0.766482293808,02,03,60.0207154878,PLT_learning_02,B,2014_Mrz_11_1736,P15,
stim_fb/ques.jpg,stim_fb/posf.jpg,stim_fb/negf.jpg,stim_02/d.jpg,stim_02/c.jpg,1,2,f,1,52,112,29,f,1,1.01636185156,02,03,60.0207154878,PLT_learning_02,B,2014_Mrz_11_1736,P15,
stim_fb/ques.jpg,stim_fb/negf.jpg,stim_fb/posf.jpg,stim_02/f.jpg,stim_02/e.jpg,1,3,f,1,53,113,44,f,1,0.899762550047,02,03,60.0207154878,PLT_learning_02,B,2014_Mrz_11_1736,P15,
stim_fb/ques.jpg,stim_fb/negf.jpg,stim_fb/posf.jpg,stim_02/c.jpg,stim_02/d.jpg,2,2,j,1,54,114,35,j,1,0.816426407222,02,03,60.0207154878,PLT_learning_02,B,2014_Mrz_11_1736,P15,
stim_fb/ques.jpg,stim_fb/posf.jpg,stim_fb/negf.jpg,stim_02/e.jpg,stim_02/f.jpg,2,3,j,1,55,115,58,j,1,0.849824911749,02,03,60.0207154878,PLT_learning_02,B,2014_Mrz_11_1736,P15,
stim_fb/ques.jpg,stim_fb/posf.jpg,stim_fb/negf.jpg,stim_02/d.jpg,stim_02/c.jpg,1,2,f,1,56,116,27,f,1,1.08302183359,02,03,60.0207154878,PLT_learning_02,B,2014_Mrz_11_1736,P15,
stim_fb/ques.jpg,stim_fb/negf.jpg,stim_fb/posf.jpg,stim_02/d.jpg,stim_02/c.jpg,1,2,f,1,57,117,24,j,0,0.766467951114,02,03,60.0207154878,PLT_learning_02,B,2014_Mrz_11_1736,P15,
stim_fb/ques.jpg,stim_fb/negf.jpg,stim_fb/posf.jpg,stim_02/d.jpg,stim_02/c.jpg,1,2,f,1,58,118,22,f,1,1.18298845351,02,03,60.0207154878,PLT_learning_02,B,2014_Mrz_11_1736,P15,
stim_fb/ques.jpg,stim_fb/negf.jpg,stim_fb/posf.jpg,stim_02/f.jpg,stim_02/e.jpg,1,3,f,1,59,119,40,f,1,1.16636683646,02,03,60.0207154878,PLT_learning_02,B,2014_Mrz_11_1736,P15,
stim_fb/ques.jpg,stim_fb/posf.jpg,stim_fb/negf.jpg,stim_02/a.jpg,stim_02/b.jpg,2,1,j,2,0,120,19,j,1,1.29963497554,02,03,60.0207154878,PLT_learning_02,B,2014_Mrz_11_1736,P15,
stim_fb/ques.jpg,stim_fb/negf.jpg,stim_fb/posf.jpg,stim_02/a.jpg,stim_02/b.jpg,2,1,j,2,1,121,17,j,1,0.499868969899,02,03,60.0207154878,PLT_learning_02,B,2014_Mrz_11_1736,P15,
stim_fb/ques.jpg,stim_fb/negf.jpg,stim_fb/posf.jpg,stim_02/c.jpg,stim_02/d.jpg,2,2,j,2,2,122,34,j,1,1.03307816829,02,03,60.0207154878,PLT_learning_02,B,2014_Mrz_11_1736,P15,
stim_fb/ques.jpg,stim_fb/posf.jpg,stim_fb/negf.jpg,stim_02/f.jpg,stim_02/e.jpg,1,3,f,2,3,123,46,f,1,0.966394363973,02,03,60.0207154878,PLT_learning_02,B,2014_Mrz_11_1736,P15,
stim_fb/ques.jpg,stim_fb/negf.jpg,stim_fb/posf.jpg,stim_02/f.jpg,stim_02/e.jpg,1,3,f,2,4,124,45,f,1,1.04967017665,02,03,60.0207154878,PLT_learning_02,B,2014_Mrz_11_1736,P15,
stim_fb/ques.jpg,stim_fb/negf.jpg,stim_fb/posf.jpg,stim_02/f.jpg,stim_02/e.jpg,1,3,f,2,5,125,43,f,1,0.783140788639,02,03,60.0207154878,PLT_learning_02,B,2014_Mrz_11_1736,P15,
stim_fb/ques.jpg,stim_fb/negf.jpg,stim_fb/posf.jpg,stim_02/b.jpg,stim_02/a.jpg,1,1,f,2,6,126,2,f,1,0.933066150383,02,03,60.0207154878,PLT_learning_02,B,2014_Mrz_11_1736,P15,
stim_fb/ques.jpg,stim_fb/posf.jpg,stim_fb/negf.jpg,stim_02/f.jpg,stim_02/e.jpg,1,3,f,2,7,127,47,f,1,0.649843476953,02,03,60.0207154878,PLT_learning_02,B,2014_Mrz_11_1736,P15,
stim_fb/ques.jpg,stim_fb/negf.jpg,stim_fb/posf.jpg,stim_02/b.jpg,stim_02/a.jpg,1,1,f,2,8,128,4,f,1,0.649831281602,02,03,60.0207154878,PLT_learning_02,B,2014_Mrz_11_1736,P15,
stim_fb/ques.jpg,stim_fb/negf.jpg,stim_fb/posf.jpg,stim_02/c.jpg,stim_02/d.jpg,2,2,j,2,9,129,30,j,1,0.749823275677,02,03,60.0207154878,PLT_learning_02,B,2014_Mrz_11_1736,P15,
stim_fb/ques.jpg,stim_fb/negf.jpg,stim_fb/posf.jpg,stim_02/e.jpg,stim_02/f.jpg,2,3,j,2,10,130,55,j,1,0.766607591644,02,03,60.0207154878,PLT_learning_02,B,2014_Mrz_11_1736,P15,
stim_fb/ques.jpg,stim_fb/negf.jpg,stim_fb/posf.jpg,stim_02/a.jpg,stim_02/b.jpg,2,1,j,2,11,131,10,j,1,0.649812030691,02,03,60.0207154878,PLT_learning_02,B,2014_Mrz_11_1736,P15,
stim_fb/ques.jpg,stim_fb/negf.jpg,stim_fb/posf.jpg,stim_02/a.jpg,stim_02/b.jpg,2,1,j,2,12,132,16,j,1,0.533199995489,02,03,60.0207154878,PLT_learning_02,B,2014_Mrz_11_1736,P15,
stim_fb/ques.jpg,stim_fb/negf.jpg,stim_fb/posf.jpg,stim_02/d.jpg,stim_02/c.jpg,1,2,f,2,13,133,26,f,1,1.11634546076,02,03,60.0207154878,PLT_learning_02,B,2014_Mrz_11_1736,P15,
stim_fb/ques.jpg,stim_fb/negf.jpg,stim_fb/posf.jpg,stim_02/f.jpg,stim_02/e.jpg,1,3,f,2,14,134,42,f,1,1.04969623952,02,03,60.0207154878,PLT_learning_02,B,2014_Mrz_11_1736,P15,
stim_fb/ques.jpg,stim_fb/negf.jpg,stim_fb/posf.jpg,stim_02/d.jpg,stim_02/c.jpg,1,2,f,2,15,135,24,f,1,0.766445031071,02,03,60.0207154878,PLT_learning_02,B,2014_Mrz_11_1736,P15,
stim_fb/ques.jpg,stim_fb/negf.jpg,stim_fb/posf.jpg,stim_02/d.jpg,stim_02/c.jpg,1,2,f,2,16,136,21,f,1,0.766468032316,02,03,60.0207154878,PLT_learning_02,B,2014_Mrz_11_1736,P15,
stim_fb/ques.jpg,stim_fb/negf.jpg,stim_fb/posf.jpg,stim_02/c.jpg,stim_02/d.jpg,2,2,j,2,17,137,31,f,0,0.533202293207,02,03,60.0207154878,PLT_learning_02,B,2014_Mrz_11_1736,P15,
stim_fb/ques.jpg,stim_fb/posf.jpg,stim_fb/negf.jpg,stim_02/c.jpg,stim_02/d.jpg,2,2,j,2,18,138,39,j,1,0.633141948023,02,03,60.0207154878,PLT_learning_02,B,2014_Mrz_11_1736,P15,
stim_fb/ques.jpg,stim_fb/negf.jpg,stim_fb/posf.jpg,stim_02/e.jpg,stim_02/f.jpg,2,3,j,2,19,139,53,j,1,0.783115498696,02,03,60.0207154878,PLT_learning_02,B,2014_Mrz_11_1736,P15,
stim_fb/ques.jpg,stim_fb/negf.jpg,stim_fb/posf.jpg,stim_02/c.jpg,stim_02/d.jpg,2,2,j,2,20,140,36,j,1,0.649847931038,02,03,60.0207154878,PLT_learning_02,B,2014_Mrz_11_1736,P15,
stim_fb/ques.jpg,stim_fb/negf.jpg,stim_fb/posf.jpg,stim_02/a.jpg,stim_02/b.jpg,2,1,j,2,21,141,11,j,1,0.699805969105,02,03,60.0207154878,PLT_learning_02,B,2014_Mrz_11_1736,P15,
stim_fb/ques.jpg,stim_fb/negf.jpg,stim_fb/posf.jpg,stim_02/b.jpg,stim_02/a.jpg,1,1,f,2,22,142,0,f,1,1.06634586227,02,03,60.0207154878,PLT_learning_02,B,2014_Mrz_11_1736,P15,
stim_fb/ques.jpg,stim_fb/negf.jpg,stim_fb/posf.jpg,stim_02/d.jpg,stim_02/c.jpg,1,2,f,2,23,143,22,f,1,0.716478728435,02,03,60.0207154878,PLT_learning_02,B,2014_Mrz_11_1736,P15,
stim_fb/ques.jpg,stim_fb/posf.jpg,stim_fb/negf.jpg,stim_02/e.jpg,stim_02/f.jpg,2,3,j,2,24,144,59,j,1,0.683185546028,02,03,60.0207154878,PLT_learning_02,B,2014_Mrz_11_1736,P15,
stim_fb/ques.jpg,stim_fb/posf.jpg,stim_fb/negf.jpg,stim_02/f.jpg,stim_02/e.jpg,1,3,f,2,25,145,49,f,1,1.0663203618,02,03,60.0207154878,PLT_learning_02,B,2014_Mrz_11_1736,P15,
stim_fb/ques.jpg,stim_fb/negf.jpg,stim_fb/posf.jpg,stim_02/e.jpg,stim_02/f.jpg,2,3,j,2,26,146,50,f,0,0.733133656388,02,03,60.0207154878,PLT_learning_02,B,2014_Mrz_11_1736,P15,
stim_fb/ques.jpg,stim_fb/posf.jpg,stim_fb/negf.jpg,stim_02/e.jpg,stim_02/f.jpg,2,3,j,2,27,147,56,j,1,0.883084482506,02,03,60.0207154878,PLT_learning_02,B,2014_Mrz_11_1736,P15,
stim_fb/ques.jpg,stim_fb/negf.jpg,stim_fb/posf.jpg,stim_02/c.jpg,stim_02/d.jpg,2,2,j,2,28,148,33,j,1,1.04969784852,02,03,60.0207154878,PLT_learning_02,B,2014_Mrz_11_1736,P15,
stim_fb/ques.jpg,stim_fb/negf.jpg,stim_fb/posf.jpg,stim_02/f.jpg,stim_02/e.jpg,1,3,f,2,29,149,44,f,1,0.683150184019,02,03,60.0207154878,PLT_learning_02,B,2014_Mrz_11_1736,P15,
stim_fb/ques.jpg,stim_fb/negf.jpg,stim_fb/posf.jpg,stim_02/c.jpg,stim_02/d.jpg,2,2,j,2,30,150,35,j,1,0.88309808536,02,03,60.0207154878,PLT_learning_02,B,2014_Mrz_11_1736,P15,
stim_fb/ques.jpg,stim_fb/negf.jpg,stim_fb/posf.jpg,stim_02/a.jpg,stim_02/b.jpg,2,1,j,2,31,151,15,j,1,0.699770219133,02,03,60.0207154878,PLT_learning_02,B,2014_Mrz_11_1736,P15,
stim_fb/ques.jpg,stim_fb/negf.jpg,stim_fb/posf.jpg,stim_02/b.jpg,stim_02/a.jpg,1,1,f,2,32,152,1,f,1,0.666495731251,02,03,60.0207154878,PLT_learning_02,B,2014_Mrz_11_1736,P15,
stim_fb/ques.jpg,stim_fb/posf.jpg,stim_fb/negf.jpg,stim_02/d.jpg,stim_02/c.jpg,1,2,f,2,33,153,29,f,1,0.666522176065,02,03,60.0207154878,PLT_learning_02,B,2014_Mrz_11_1736,P15,
stim_fb/ques.jpg,stim_fb/negf.jpg,stim_fb/posf.jpg,stim_02/e.jpg,stim_02/f.jpg,2,3,j,2,34,154,51,j,1,0.783098148519,02,03,60.0207154878,PLT_learning_02,B,2014_Mrz_11_1736,P15,
stim_fb/ques.jpg,stim_fb/posf.jpg,stim_fb/negf.jpg,stim_02/c.jpg,stim_02/d.jpg,2,2,j,2,35,155,37,j,1,0.666509989736,02,03,60.0207154878,PLT_learning_02,B,2014_Mrz_11_1736,P15,
stim_fb/ques.jpg,stim_fb/negf.jpg,stim_fb/posf.jpg,stim_02/b.jpg,stim_02/a.jpg,1,1,f,2,36,156,5,f,1,0.616514099465,02,03,60.0207154878,PLT_learning_02,B,2014_Mrz_11_1736,P15,
stim_fb/ques.jpg,stim_fb/posf.jpg,stim_fb/negf.jpg,stim_02/f.jpg,stim_02/e.jpg,1,3,f,2,37,157,48,f,1,0.866486468198,02,03,60.0207154878,PLT_learning_02,B,2014_Mrz_11_1736,P15,
stim_fb/ques.jpg,stim_fb/negf.jpg,stim_fb/posf.jpg,stim_02/a.jpg,stim_02/b.jpg,2,1,j,2,38,158,12,j,1,0.666466859397,02,03,60.0207154878,PLT_learning_02,B,2014_Mrz_11_1736,P15,
stim_fb/ques.jpg,stim_fb/posf.jpg,stim_fb/negf.jpg,stim_02/e.jpg,stim_02/f.jpg,2,3,j,2,39,159,57,j,1,0.666498961289,02,03,60.0207154878,PLT_learning_02,B,2014_Mrz_11_1736,P15,
stim_fb/ques.jpg,stim_fb/negf.jpg,stim_fb/posf.jpg,stim_02/d.jpg,stim_02/c.jpg,1,2,f,2,40,160,23,f,1,0.733114673143,02,03,60.0207154878,PLT_learning_02,B,2014_Mrz_11_1736,P15,
stim_fb/ques.jpg,stim_fb/negf.jpg,stim_fb/posf.jpg,stim_02/f.jpg,stim_02/e.jpg,1,3,f,2,41,161,40,f,1,0.649798084985,02,03,60.0207154878,PLT_learning_02,B,2014_Mrz_11_1736,P15,
stim_fb/ques.jpg,stim_fb/negf.jpg,stim_fb/posf.jpg,stim_02/f.jpg,stim_02/e.jpg,1,3,f,2,42,162,41,f,1,0.616418347161,02,03,60.0207154878,PLT_learning_02,B,2014_Mrz_11_1736,P15,
stim_fb/ques.jpg,stim_fb/posf.jpg,stim_fb/negf.jpg,stim_02/b.jpg,stim_02/a.jpg,1,1,f,2,43,163,9,f,1,0.716475889369,02,03,60.0207154878,PLT_learning_02,B,2014_Mrz_11_1736,P15,
stim_fb/ques.jpg,stim_fb/negf.jpg,stim_fb/posf.jpg,stim_02/b.jpg,stim_02/a.jpg,1,1,f,2,44,164,3,f,1,0.516535945835,02,03,60.0207154878,PLT_learning_02,B,2014_Mrz_11_1736,P15,
stim_fb/ques.jpg,stim_fb/posf.jpg,stim_fb/negf.jpg,stim_02/e.jpg,stim_02/f.jpg,2,3,j,2,45,165,58,j,1,0.733137713485,02,03,60.0207154878,PLT_learning_02,B,2014_Mrz_11_1736,P15,
stim_fb/ques.jpg,stim_fb/posf.jpg,stim_fb/negf.jpg,stim_02/d.jpg,stim_02/c.jpg,1,2,f,2,46,166,28,f,1,0.933112420536,02,03,60.0207154878,PLT_learning_02,B,2014_Mrz_11_1736,P15,
stim_fb/ques.jpg,stim_fb/negf.jpg,stim_fb/posf.jpg,stim_02/e.jpg,stim_02/f.jpg,2,3,j,2,47,167,54,j,1,0.783107685251,02,03,60.0207154878,PLT_learning_02,B,2014_Mrz_11_1736,P15,
stim_fb/ques.jpg,stim_fb/posf.jpg,stim_fb/negf.jpg,stim_02/d.jpg,stim_02/c.jpg,1,2,f,2,48,168,27,f,1,0.699844801749,02,03,60.0207154878,PLT_learning_02,B,2014_Mrz_11_1736,P15,
stim_fb/ques.jpg,stim_fb/posf.jpg,stim_fb/negf.jpg,stim_02/b.jpg,stim_02/a.jpg,1,1,f,2,49,169,8,f,1,0.616515627267,02,03,60.0207154878,PLT_learning_02,B,2014_Mrz_11_1736,P15,
stim_fb/ques.jpg,stim_fb/negf.jpg,stim_fb/posf.jpg,stim_02/b.jpg,stim_02/a.jpg,1,1,f,2,50,170,6,f,1,0.633177707019,02,03,60.0207154878,PLT_learning_02,B,2014_Mrz_11_1736,P15,
stim_fb/ques.jpg,stim_fb/negf.jpg,stim_fb/posf.jpg,stim_02/e.jpg,stim_02/f.jpg,2,3,j,2,51,171,52,j,1,0.749791642951,02,03,60.0207154878,PLT_learning_02,B,2014_Mrz_11_1736,P15,
stim_fb/ques.jpg,stim_fb/negf.jpg,stim_fb/posf.jpg,stim_02/d.jpg,stim_02/c.jpg,1,2,f,2,52,172,20,f,1,0.599845111521,02,03,60.0207154878,PLT_learning_02,B,2014_Mrz_11_1736,P15,
stim_fb/ques.jpg,stim_fb/negf.jpg,stim_fb/posf.jpg,stim_02/a.jpg,stim_02/b.jpg,2,1,j,2,53,173,14,j,1,0.866377510029,02,03,60.0207154878,PLT_learning_02,B,2014_Mrz_11_1736,P15,
stim_fb/ques.jpg,stim_fb/negf.jpg,stim_fb/posf.jpg,stim_02/c.jpg,stim_02/d.jpg,2,2,j,2,54,174,32,j,1,0.816393144438,02,03,60.0207154878,PLT_learning_02,B,2014_Mrz_11_1736,P15,
stim_fb/ques.jpg,stim_fb/posf.jpg,stim_fb/negf.jpg,stim_02/a.jpg,stim_02/b.jpg,2,1,j,2,55,175,18,j,1,0.499916199442,02,03,60.0207154878,PLT_learning_02,B,2014_Mrz_11_1736,P15,
stim_fb/ques.jpg,stim_fb/negf.jpg,stim_fb/posf.jpg,stim_02/a.jpg,stim_02/b.jpg,2,1,j,2,56,176,13,j,1,0.54984864682,02,03,60.0207154878,PLT_learning_02,B,2014_Mrz_11_1736,P15,
stim_fb/ques.jpg,stim_fb/negf.jpg,stim_fb/posf.jpg,stim_02/d.jpg,stim_02/c.jpg,1,2,f,2,57,177,25,f,1,0.649839873988,02,03,60.0207154878,PLT_learning_02,B,2014_Mrz_11_1736,P15,
stim_fb/ques.jpg,stim_fb/posf.jpg,stim_fb/negf.jpg,stim_02/c.jpg,stim_02/d.jpg,2,2,j,2,58,178,38,j,1,0.533203935294,02,03,60.0207154878,PLT_learning_02,B,2014_Mrz_11_1736,P15,
stim_fb/ques.jpg,stim_fb/negf.jpg,stim_fb/posf.jpg,stim_02/b.jpg,stim_02/a.jpg,1,1,f,2,59,179,7,f,1,1.03303517329,02,03,60.0207154878,PLT_learning_02,B,2014_Mrz_11_1736,P15,
stim_fb/ques.jpg,stim_fb/negf.jpg,stim_fb/posf.jpg,stim_02/b.jpg,stim_02/a.jpg,1,1,f,3,0,180,0,f,1,0.883060437665,02,03,60.0207154878,PLT_learning_02,B,2014_Mrz_11_1736,P15,
stim_fb/ques.jpg,stim_fb/posf.jpg,stim_fb/negf.jpg,stim_02/f.jpg,stim_02/e.jpg,1,3,f,3,1,181,47,f,1,0.733132871434,02,03,60.0207154878,PLT_learning_02,B,2014_Mrz_11_1736,P15,
stim_fb/ques.jpg,stim_fb/posf.jpg,stim_fb/negf.jpg,stim_02/f.jpg,stim_02/e.jpg,1,3,f,3,2,182,49,j,0,0.699752129112,02,03,60.0207154878,PLT_learning_02,B,2014_Mrz_11_1736,P15,
stim_fb/ques.jpg,stim_fb/posf.jpg,stim_fb/negf.jpg,stim_02/d.jpg,stim_02/c.jpg,1,2,f,3,3,183,29,f,1,0.966422703503,02,03,60.0207154878,PLT_learning_02,B,2014_Mrz_11_1736,P15,
stim_fb/ques.jpg,stim_fb/negf.jpg,stim_fb/posf.jpg,stim_02/b.jpg,stim_02/a.jpg,1,1,f,3,4,184,1,f,1,0.916428139531,02,03,60.0207154878,PLT_learning_02,B,2014_Mrz_11_1736,P15,
stim_fb/ques.jpg,stim_fb/negf.jpg,stim_fb/posf.jpg,stim_02/a.jpg,stim_02/b.jpg,2,1,j,3,5,185,17,j,1,0.733157153867,02,03,60.0207154878,PLT_learning_02,B,2014_Mrz_11_1736,P15,
stim_fb/ques.jpg,stim_fb/posf.jpg,stim_fb/negf.jpg,stim_02/c.jpg,stim_02/d.jpg,2,2,j,3,6,186,37,j,1,1.03304784683,02,03,60.0207154878,PLT_learning_02,B,2014_Mrz_11_1736,P15,
stim_fb/ques.jpg,stim_fb/negf.jpg,stim_fb/posf.jpg,stim_02/a.jpg,stim_02/b.jpg,2,1,j,3,7,187,12,j,1,1.04970044398,02,03,60.0207154878,PLT_learning_02,B,2014_Mrz_11_1736,P15,
stim_fb/ques.jpg,stim_fb/negf.jpg,stim_fb/posf.jpg,stim_02/f.jpg,stim_02/e.jpg,1,3,f,3,8,188,41,j,0,0.7997363338,02,03,60.0207154878,PLT_learning_02,B,2014_Mrz_11_1736,P15,
stim_fb/ques.jpg,stim_fb/negf.jpg,stim_fb/posf.jpg,stim_02/a.jpg,stim_02/b.jpg,2,1,j,3,9,189,10,j,1,0.94968529528,02,03,60.0207154878,PLT_learning_02,B,2014_Mrz_11_1736,P15,
stim_fb/ques.jpg,stim_fb/posf.jpg,stim_fb/negf.jpg,stim_02/f.jpg,stim_02/e.jpg,1,3,f,3,10,190,48,j,0,0.583159525268,02,03,60.0207154878,PLT_learning_02,B,2014_Mrz_11_1736,P15,
stim_fb/ques.jpg,stim_fb/negf.jpg,stim_fb/posf.jpg,stim_02/e.jpg,stim_02/f.jpg,2,3,j,3,11,191,54,f,0,0.816446013016,02,03,60.0207154878,PLT_learning_02,B,2014_Mrz_11_1736,P15,
stim_fb/ques.jpg,stim_fb/negf.jpg,stim_fb/posf.jpg,stim_02/c.jpg,stim_02/d.jpg,2,2,j,3,12,192,31,j,1,0.799773758943,02,03,60.0207154878,PLT_learning_02,B,2014_Mrz_11_1736,P15,
stim_fb/ques.jpg,stim_fb/negf.jpg,stim_fb/posf.jpg,stim_02/c.jpg,stim_02/d.jpg,2,2,j,3,13,193,36,j,1,0.616518343028,02,03,60.0207154878,PLT_learning_02,B,2014_Mrz_11_1736,P15,
stim_fb/ques.jpg,stim_fb/negf.jpg,stim_fb/posf.jpg,stim_02/e.jpg,stim_02/f.jpg,2,3,j,3,14,194,55,f,0,0.916372257456,02,03,60.0207154878,PLT_learning_02,B,2014_Mrz_11_1736,P15,
stim_fb/ques.jpg,stim_fb/negf.jpg,stim_fb/posf.jpg,stim_02/c.jpg,stim_02/d.jpg,2,2,j,3,15,195,34,j,1,0.583200523302,02,03,60.0207154878,PLT_learning_02,B,2014_Mrz_11_1736,P15,
stim_fb/ques.jpg,stim_fb/negf.jpg,stim_fb/posf.jpg,stim_02/b.jpg,stim_02/a.jpg,1,1,f,3,16,196,4,j,0,0.566541664568,02,03,60.0207154878,PLT_learning_02,B,2014_Mrz_11_1736,P15,
stim_fb/ques.jpg,stim_fb/negf.jpg,stim_fb/posf.jpg,stim_02/a.jpg,stim_02/b.jpg,2,1,j,3,17,197,15,j,1,0.816391327917,02,03,60.0207154878,PLT_learning_02,B,2014_Mrz_11_1736,P15,
stim_fb/ques.jpg,stim_fb/negf.jpg,stim_fb/posf.jpg,stim_02/d.jpg,stim_02/c.jpg,1,2,f,3,18,198,25,f,1,0.7497717725,02,03,60.0207154878,PLT_learning_02,B,2014_Mrz_11_1736,P15,
stim_fb/ques.jpg,stim_fb/posf.jpg,stim_fb/negf.jpg,stim_02/d.jpg,stim_02/c.jpg,1,2,f,3,19,199,27,f,1,0.966247631794,02,03,60.0207154878,PLT_learning_02,B,2014_Mrz_11_1736,P15,
stim_fb/ques.jpg,stim_fb/posf.jpg,stim_fb/negf.jpg,stim_02/e.jpg,stim_02/f.jpg,2,3,j,3,20,200,58,j,1,0.99968009684,02,03,60.0207154878,PLT_learning_02,B,2014_Mrz_11_1736,P15,
stim_fb/ques.jpg,stim_fb/posf.jpg,stim_fb/negf.jpg,stim_02/a.jpg,stim_02/b.jpg,2,1,j,3,21,201,19,j,1,0.799744342734,02,03,60.0207154878,PLT_learning_02,B,2014_Mrz_11_1736,P15,
stim_fb/ques.jpg,stim_fb/negf.jpg,stim_fb/posf.jpg,stim_02/a.jpg,stim_02/b.jpg,2,1,j,3,22,202,16,j,1,0.516516815223,02,03,60.0207154878,PLT_learning_02,B,2014_Mrz_11_1736,P15,
stim_fb/ques.jpg,stim_fb/posf.jpg,stim_fb/negf.jpg,stim_02/c.jpg,stim_02/d.jpg,2,2,j,3,23,203,38,j,1,0.583177904009,02,03,60.0207154878,PLT_learning_02,B,2014_Mrz_11_1736,P15,
stim_fb/ques.jpg,stim_fb/posf.jpg,stim_fb/negf.jpg,stim_02/c.jpg,stim_02/d.jpg,2,2,j,3,24,204,39,j,1,0.583180376161,02,03,60.0207154878,PLT_learning_02,B,2014_Mrz_11_1736,P15,
stim_fb/ques.jpg,stim_fb/negf.jpg,stim_fb/posf.jpg,stim_02/b.jpg,stim_02/a.jpg,1,1,f,3,25,205,6,f,1,0.699805572118,02,03,60.0207154878,PLT_learning_02,B,2014_Mrz_11_1736,P15,
stim_fb/ques.jpg,stim_fb/negf.jpg,stim_fb/posf.jpg,stim_02/b.jpg,stim_02/a.jpg,1,1,f,3,26,206,2,f,1,0.699810573564,02,03,60.0207154878,PLT_learning_02,B,2014_Mrz_11_1736,P15,
stim_fb/ques.jpg,stim_fb/posf.jpg,stim_fb/negf.jpg,stim_02/a.jpg,stim_02/b.jpg,2,1,j,3,27,207,18,j,1,0.683152929852,02,03,60.0207154878,PLT_learning_02,B,2014_Mrz_11_1736,P15,
stim_fb/ques.jpg,stim_fb/negf.jpg,stim_fb/posf.jpg,stim_02/f.jpg,stim_02/e.jpg,1,3,f,3,28,208,44,f,1,0.749847001725,02,03,60.0207154878,PLT_learning_02,B,2014_Mrz_11_1736,P15,
stim_fb/ques.jpg,stim_fb/negf.jpg,stim_fb/posf.jpg,stim_02/d.jpg,stim_02/c.jpg,1,2,f,3,29,209,26,f,1,0.616470908975,02,03,60.0207154878,PLT_learning_02,B,2014_Mrz_11_1736,P15,
stim_fb/ques.jpg,stim_fb/negf.jpg,stim_fb/posf.jpg,stim_02/d.jpg,stim_02/c.jpg,1,2,f,3,30,210,20,f,1,0.883096521469,02,03,60.0207154878,PLT_learning_02,B,2014_Mrz_11_1736,P15,
stim_fb/ques.jpg,stim_fb/posf.jpg,stim_fb/negf.jpg,stim_02/e.jpg,stim_02/f.jpg,2,3,j,3,31,211,56,f,0,0.533207390894,02,03,60.0207154878,PLT_learning_02,B,2014_Mrz_11_1736,P15,
stim_fb/ques.jpg,stim_fb/negf.jpg,stim_fb/posf.jpg,stim_02/d.jpg,stim_02/c.jpg,1,2,f,3,32,212,23,j,0,1.49947201798,02,03,60.0207154878,PLT_learning_02,B,2014_Mrz_11_1736,P15,
stim_fb/ques.jpg,stim_fb/negf.jpg,stim_fb/posf.jpg,stim_02/e.jpg,stim_02/f.jpg,2,3,j,3,33,213,51,j,1,1.166348969,02,03,60.0207154878,PLT_learning_02,B,2014_Mrz_11_1736,P15,
stim_fb/ques.jpg,stim_fb/negf.jpg,stim_fb/posf.jpg,stim_02/e.jpg,stim_02/f.jpg,2,3,j,3,34,214,52,j,1,1.14967276008,02,03,60.0207154878,PLT_learning_02,B,2014_Mrz_11_1736,P15,
stim_fb/ques.jpg,stim_fb/posf.jpg,stim_fb/negf.jpg,stim_02/e.jpg,stim_02/f.jpg,2,3,j,3,35,215,57,f,0,0.883095116973,02,03,60.0207154878,PLT_learning_02,B,2014_Mrz_11_1736,P15,
stim_fb/ques.jpg,stim_fb/posf.jpg,stim_fb/negf.jpg,stim_02/f.jpg,stim_02/e.jpg,1,3,f,3,36,216,46,f,1,1.54952024451,02,03,60.0207154878,PLT_learning_02,B,2014_Mrz_11_1736,P15,
stim_fb/ques.jpg,stim_fb/posf.jpg,stim_fb/negf.jpg,stim_02/e.jpg,stim_02/f.jpg,2,3,j,3,37,217,59,j,1,1.1329658688,02,03,60.0207154878,PLT_learning_02,B,2014_Mrz_11_1736,P15,
stim_fb/ques.jpg,stim_fb/negf.jpg,stim_fb/posf.jpg,stim_02/e.jpg,stim_02/f.jpg,2,3,j,3,38,218,50,j,1,1.14967060372,02,03,60.0207154878,PLT_learning_02,B,2014_Mrz_11_1736,P15,
stim_fb/ques.jpg,stim_fb/negf.jpg,stim_fb/posf.jpg,stim_02/d.jpg,stim_02/c.jpg,1,2,f,3,39,219,21,f,1,0.799740778863,02,03,60.0207154878,PLT_learning_02,B,2014_Mrz_11_1736,P15,
stim_fb/ques.jpg,stim_fb/negf.jpg,stim_fb/posf.jpg,stim_02/c.jpg,stim_02/d.jpg,2,2,j,3,40,220,30,j,1,0.833062691774,02,03,60.0207154878,PLT_learning_02,B,2014_Mrz_11_1736,P15,
stim_fb/ques.jpg,stim_fb/posf.jpg,stim_fb/negf.jpg,stim_02/b.jpg,stim_02/a.jpg,1,1,f,3,41,221,9,f,1,0.999734457131,02,03,60.0207154878,PLT_learning_02,B,2014_Mrz_11_1736,P15,
stim_fb/ques.jpg,stim_fb/negf.jpg,stim_fb/posf.jpg,stim_02/c.jpg,stim_02/d.jpg,2,2,j,3,42,222,32,j,1,1.18297298602,02,03,60.0207154878,PLT_learning_02,B,2014_Mrz_11_1736,P15,
stim_fb/ques.jpg,stim_fb/negf.jpg,stim_fb/posf.jpg,stim_02/b.jpg,stim_02/a.jpg,1,1,f,3,43,223,7,f,1,0.783178532574,02,03,60.0207154878,PLT_learning_02,B,2014_Mrz_11_1736,P15,
stim_fb/ques.jpg,stim_fb/negf.jpg,stim_fb/posf.jpg,stim_02/a.jpg,stim_02/b.jpg,2,1,j,3,44,224,14,j,1,0.749799468427,02,03,60.0207154878,PLT_learning_02,B,2014_Mrz_11_1736,P15,
stim_fb/ques.jpg,stim_fb/negf.jpg,stim_fb/posf.jpg,stim_02/f.jpg,stim_02/e.jpg,1,3,f,3,45,225,42,j,0,1.66616741616,02,03,60.0207154878,PLT_learning_02,B,2014_Mrz_11_1736,P15,
stim_fb/ques.jpg,stim_fb/negf.jpg,stim_fb/posf.jpg,stim_02/d.jpg,stim_02/c.jpg,1,2,f,3,46,226,22,f,1,0.733159289181,02,03,60.0207154878,PLT_learning_02,B,2014_Mrz_11_1736,P15,
stim_fb/ques.jpg,stim_fb/negf.jpg,stim_fb/posf.jpg,stim_02/f.jpg,stim_02/e.jpg,1,3,f,3,47,227,43,f,1,0.68317148303,02,03,60.0207154878,PLT_learning_02,B,2014_Mrz_11_1736,P15,
stim_fb/ques.jpg,stim_fb/posf.jpg,stim_fb/negf.jpg,stim_02/b.jpg,stim_02/a.jpg,1,1,f,3,48,228,8,f,1,0.549872493168,02,03,60.0207154878,PLT_learning_02,B,2014_Mrz_11_1736,P15,
stim_fb/ques.jpg,stim_fb/posf.jpg,stim_fb/negf.jpg,stim_02/d.jpg,stim_02/c.jpg,1,2,f,3,49,229,28,f,1,0.71647737206,02,03,60.0207154878,PLT_learning_02,B,2014_Mrz_11_1736,P15,
stim_fb/ques.jpg,stim_fb/negf.jpg,stim_fb/posf.jpg,stim_02/b.jpg,stim_02/a.jpg,1,1,f,3,50,230,5,f,1,0.583195966963,02,03,60.0207154878,PLT_learning_02,B,2014_Mrz_11_1736,P15,
stim_fb/ques.jpg,stim_fb/negf.jpg,stim_fb/posf.jpg,stim_02/c.jpg,stim_02/d.jpg,2,2,j,3,51,231,35,j,1,0.71649351323,02,03,60.0207154878,PLT_learning_02,B,2014_Mrz_11_1736,P15,
stim_fb/ques.jpg,stim_fb/negf.jpg,stim_fb/posf.jpg,stim_02/e.jpg,stim_02/f.jpg,2,3,j,3,52,232,53,j,1,0.783132924063,02,03,60.0207154878,PLT_learning_02,B,2014_Mrz_11_1736,P15,
stim_fb/ques.jpg,stim_fb/negf.jpg,stim_fb/posf.jpg,stim_02/a.jpg,stim_02/b.jpg,2,1,j,3,53,233,13,j,1,0.966463280491,02,03,60.0207154878,PLT_learning_02,B,2014_Mrz_11_1736,P15,
stim_fb/ques.jpg,stim_fb/negf.jpg,stim_fb/posf.jpg,stim_02/f.jpg,stim_02/e.jpg,1,3,f,3,54,234,45,j,0,1.01636910561,02,03,60.0207154878,PLT_learning_02,B,2014_Mrz_11_1736,P15,
stim_fb/ques.jpg,stim_fb/negf.jpg,stim_fb/posf.jpg,stim_02/f.jpg,stim_02/e.jpg,1,3,f,3,55,235,40,f,1,0.799736929283,02,03,60.0207154878,PLT_learning_02,B,2014_Mrz_11_1736,P15,
stim_fb/ques.jpg,stim_fb/negf.jpg,stim_fb/posf.jpg,stim_02/b.jpg,stim_02/a.jpg,1,1,f,3,56,236,3,f,1,0.69983125303,02,03,60.0207154878,PLT_learning_02,B,2014_Mrz_11_1736,P15,
stim_fb/ques.jpg,stim_fb/negf.jpg,stim_fb/posf.jpg,stim_02/a.jpg,stim_02/b.jpg,2,1,j,3,57,237,11,j,1,0.683141501411,02,03,60.0207154878,PLT_learning_02,B,2014_Mrz_11_1736,P15,
stim_fb/ques.jpg,stim_fb/negf.jpg,stim_fb/posf.jpg,stim_02/c.jpg,stim_02/d.jpg,2,2,j,3,58,238,33,j,1,0.74979195573,02,03,60.0207154878,PLT_learning_02,B,2014_Mrz_11_1736,P15,
stim_fb/ques.jpg,stim_fb/negf.jpg,stim_fb/posf.jpg,stim_02/d.jpg,stim_02/c.jpg,1,2,f,3,59,239,24,f,1,0.933077169808,02,03,60.0207154878,PLT_learning_02,B,2014_Mrz_11_1736,P15,
stim_fb/ques.jpg,stim_fb/negf.jpg,stim_fb/posf.jpg,stim_02/f.jpg,stim_02/e.jpg,1,3,f,4,0,240,44,None,0,,02,03,60.0207154878,PLT_learning_02,B,2014_Mrz_11_1736,P15,
stim_fb/ques.jpg,stim_fb/posf.jpg,stim_fb/negf.jpg,stim_02/b.jpg,stim_02/a.jpg,1,1,f,4,1,241,9,f,1,1.44952859629,02,03,60.0207154878,PLT_learning_02,B,2014_Mrz_11_1736,P15,
stim_fb/ques.jpg,stim_fb/negf.jpg,stim_fb/posf.jpg,stim_02/f.jpg,stim_02/e.jpg,1,3,f,4,2,242,45,f,1,1.03300466837,02,03,60.0207154878,PLT_learning_02,B,2014_Mrz_11_1736,P15,
stim_fb/ques.jpg,stim_fb/negf.jpg,stim_fb/posf.jpg,stim_02/d.jpg,stim_02/c.jpg,1,2,f,4,3,243,24,f,1,0.599822074188,02,03,60.0207154878,PLT_learning_02,B,2014_Mrz_11_1736,P15,
stim_fb/ques.jpg,stim_fb/negf.jpg,stim_fb/posf.jpg,stim_02/d.jpg,stim_02/c.jpg,1,2,f,4,4,244,26,f,1,0.566516485904,02,03,60.0207154878,PLT_learning_02,B,2014_Mrz_11_1736,P15,
stim_fb/ques.jpg,stim_fb/negf.jpg,stim_fb/posf.jpg,stim_02/b.jpg,stim_02/a.jpg,1,1,f,4,5,245,2,f,1,0.599819893761,02,03,60.0207154878,PLT_learning_02,B,2014_Mrz_11_1736,P15,
stim_fb/ques.jpg,stim_fb/posf.jpg,stim_fb/negf.jpg,stim_02/f.jpg,stim_02/e.jpg,1,3,f,4,6,246,48,f,1,0.699825770385,02,03,60.0207154878,PLT_learning_02,B,2014_Mrz_11_1736,P15,
stim_fb/ques.jpg,stim_fb/negf.jpg,stim_fb/posf.jpg,stim_02/b.jpg,stim_02/a.jpg,1,1,f,4,7,247,5,f,1,0.766437698823,02,03,60.0207154878,PLT_learning_02,B,2014_Mrz_11_1736,P15,
stim_fb/ques.jpg,stim_fb/negf.jpg,stim_fb/posf.jpg,stim_02/a.jpg,stim_02/b.jpg,2,1,j,4,8,248,10,j,1,0.583245855121,02,03,60.0207154878,PLT_learning_02,B,2014_Mrz_11_1736,P15,
stim_fb/ques.jpg,stim_fb/negf.jpg,stim_fb/posf.jpg,stim_02/b.jpg,stim_02/a.jpg,1,1,f,4,9,249,7,f,1,0.666501487576,02,03,60.0207154878,PLT_learning_02,B,2014_Mrz_11_1736,P15,
stim_fb/ques.jpg,stim_fb/posf.jpg,stim_fb/negf.jpg,stim_02/c.jpg,stim_02/d.jpg,2,2,j,4,10,250,39,j,1,0.616480454732,02,03,60.0207154878,PLT_learning_02,B,2014_Mrz_11_1736,P15,
stim_fb/ques.jpg,stim_fb/negf.jpg,stim_fb/posf.jpg,stim_02/d.jpg,stim_02/c.jpg,1,2,f,4,11,251,25,f,1,0.716468439829,02,03,60.0207154878,PLT_learning_02,B,2014_Mrz_11_1736,P15,
stim_fb/ques.jpg,stim_fb/negf.jpg,stim_fb/posf.jpg,stim_02/d.jpg,stim_02/c.jpg,1,2,f,4,12,252,21,f,1,0.816431619192,02,03,60.0207154878,PLT_learning_02,B,2014_Mrz_11_1736,P15,
stim_fb/ques.jpg,stim_fb/negf.jpg,stim_fb/posf.jpg,stim_02/b.jpg,stim_02/a.jpg,1,1,f,4,13,253,3,f,1,0.616431944001,02,03,60.0207154878,PLT_learning_02,B,2014_Mrz_11_1736,P15,
stim_fb/ques.jpg,stim_fb/negf.jpg,stim_fb/posf.jpg,stim_02/c.jpg,stim_02/d.jpg,2,2,j,4,14,254,31,j,1,0.583156340343,02,03,60.0207154878,PLT_learning_02,B,2014_Mrz_11_1736,P15,
stim_fb/ques.jpg,stim_fb/posf.jpg,stim_fb/negf.jpg,stim_02/e.jpg,stim_02/f.jpg,2,3,j,4,15,255,57,j,1,0.916357776416,02,03,60.0207154878,PLT_learning_02,B,2014_Mrz_11_1736,P15,
stim_fb/ques.jpg,stim_fb/posf.jpg,stim_fb/negf.jpg,stim_02/e.jpg,stim_02/f.jpg,2,3,j,4,16,256,58,j,1,0.916395703807,02,03,60.0207154878,PLT_learning_02,B,2014_Mrz_11_1736,P15,
stim_fb/ques.jpg,stim_fb/negf.jpg,stim_fb/posf.jpg,stim_02/b.jpg,stim_02/a.jpg,1,1,f,4,17,257,4,f,1,0.96641704041,02,03,60.0207154878,PLT_learning_02,B,2014_Mrz_11_1736,P15,
stim_fb/ques.jpg,stim_fb/negf.jpg,stim_fb/posf.jpg,stim_02/a.jpg,stim_02/b.jpg,2,1,j,4,18,258,12,j,1,0.683162349296,02,03,60.0207154878,PLT_learning_02,B,2014_Mrz_11_1736,P15,
stim_fb/ques.jpg,stim_fb/negf.jpg,stim_fb/posf.jpg,stim_02/c.jpg,stim_02/d.jpg,2,2,j,4,19,259,36,j,1,0.683147083302,02,03,60.0207154878,PLT_learning_02,B,2014_Mrz_11_1736,P15,
stim_fb/ques.jpg,stim_fb/posf.jpg,stim_fb/negf.jpg,stim_02/d.jpg,stim_02/c.jpg,1,2,f,4,20,260,27,f,1,0.849760698939,02,03,60.0207154878,PLT_learning_02,B,2014_Mrz_11_1736,P15,
stim_fb/ques.jpg,stim_fb/posf.jpg,stim_fb/negf.jpg,stim_02/c.jpg,stim_02/d.jpg,2,2,j,4,21,261,38,j,1,0.683118262576,02,03,60.0207154878,PLT_learning_02,B,2014_Mrz_11_1736,P15,
stim_fb/ques.jpg,stim_fb/negf.jpg,stim_fb/posf.jpg,stim_02/b.jpg,stim_02/a.jpg,1,1,f,4,22,262,0,f,1,0.733163274099,02,03,60.0207154878,PLT_learning_02,B,2014_Mrz_11_1736,P15,
stim_fb/ques.jpg,stim_fb/posf.jpg,stim_fb/negf.jpg,stim_02/e.jpg,stim_02/f.jpg,2,3,j,4,23,263,59,f,0,0.866463827851,02,03,60.0207154878,PLT_learning_02,B,2014_Mrz_11_1736,P15,
stim_fb/ques.jpg,stim_fb/posf.jpg,stim_fb/negf.jpg,stim_02/a.jpg,stim_02/b.jpg,2,1,j,4,24,264,18,j,1,0.716473029252,02,03,60.0207154878,PLT_learning_02,B,2014_Mrz_11_1736,P15,
stim_fb/ques.jpg,stim_fb/negf.jpg,stim_fb/posf.jpg,stim_02/f.jpg,stim_02/e.jpg,1,3,f,4,25,265,43,j,0,0.866425942564,02,03,60.0207154878,PLT_learning_02,B,2014_Mrz_11_1736,P15,
stim_fb/ques.jpg,stim_fb/negf.jpg,stim_fb/posf.jpg,stim_02/b.jpg,stim_02/a.jpg,1,1,f,4,26,266,1,f,1,0.699824420026,02,03,60.0207154878,PLT_learning_02,B,2014_Mrz_11_1736,P15,
stim_fb/ques.jpg,stim_fb/negf.jpg,stim_fb/posf.jpg,stim_02/f.jpg,stim_02/e.jpg,1,3,f,4,27,267,42,j,0,0.699755542606,02,03,60.0207154878,PLT_learning_02,B,2014_Mrz_11_1736,P15,
stim_fb/ques.jpg,stim_fb/negf.jpg,stim_fb/posf.jpg,stim_02/d.jpg,stim_02/c.jpg,1,2,f,4,28,268,22,f,1,0.666482480274,02,03,60.0207154878,PLT_learning_02,B,2014_Mrz_11_1736,P15,
stim_fb/ques.jpg,stim_fb/negf.jpg,stim_fb/posf.jpg,stim_02/c.jpg,stim_02/d.jpg,2,2,j,4,29,269,33,j,1,0.749762972599,02,03,60.0207154878,PLT_learning_02,B,2014_Mrz_11_1736,P15,
stim_fb/ques.jpg,stim_fb/negf.jpg,stim_fb/posf.jpg,stim_02/f.jpg,stim_02/e.jpg,1,3,f,4,30,270,40,f,1,0.766458372274,02,03,60.0207154878,PLT_learning_02,B,2014_Mrz_11_1736,P15,
stim_fb/ques.jpg,stim_fb/negf.jpg,stim_fb/posf.jpg,stim_02/d.jpg,stim_02/c.jpg,1,2,f,4,31,271,23,f,1,1.14967060071,02,03,60.0207154878,PLT_learning_02,B,2014_Mrz_11_1736,P15,
stim_fb/ques.jpg,stim_fb/negf.jpg,stim_fb/posf.jpg,stim_02/c.jpg,stim_02/d.jpg,2,2,j,4,32,272,32,j,1,0.849762716962,02,03,60.0207154878,PLT_learning_02,B,2014_Mrz_11_1736,P15,
stim_fb/ques.jpg,stim_fb/posf.jpg,stim_fb/negf.jpg,stim_02/e.jpg,stim_02/f.jpg,2,3,j,4,33,273,56,j,1,0.699796477484,02,03,60.0207154878,PLT_learning_02,B,2014_Mrz_11_1736,P15,
stim_fb/ques.jpg,stim_fb/negf.jpg,stim_fb/posf.jpg,stim_02/a.jpg,stim_02/b.jpg,2,1,j,4,34,274,17,j,1,0.633202380424,02,03,60.0207154878,PLT_learning_02,B,2014_Mrz_11_1736,P15,
stim_fb/ques.jpg,stim_fb/negf.jpg,stim_fb/posf.jpg,stim_02/a.jpg,stim_02/b.jpg,2,1,j,4,35,275,13,j,1,0.649826397446,02,03,60.0207154878,PLT_learning_02,B,2014_Mrz_11_1736,P15,
stim_fb/ques.jpg,stim_fb/posf.jpg,stim_fb/negf.jpg,stim_02/f.jpg,stim_02/e.jpg,1,3,f,4,36,276,49,f,1,0.766453614433,02,03,60.0207154878,PLT_learning_02,B,2014_Mrz_11_1736,P15,
stim_fb/ques.jpg,stim_fb/negf.jpg,stim_fb/posf.jpg,stim_02/b.jpg,stim_02/a.jpg,1,1,f,4,37,277,6,f,1,0.94975042537,02,03,60.0207154878,PLT_learning_02,B,2014_Mrz_11_1736,P15,
stim_fb/ques.jpg,stim_fb/posf.jpg,stim_fb/negf.jpg,stim_02/f.jpg,stim_02/e.jpg,1,3,f,4,38,278,47,f,1,0.899726339927,02,03,60.0207154878,PLT_learning_02,B,2014_Mrz_11_1736,P15,
stim_fb/ques.jpg,stim_fb/negf.jpg,stim_fb/posf.jpg,stim_02/a.jpg,stim_02/b.jpg,2,1,j,4,39,279,11,j,1,0.566473665334,02,03,60.0207154878,PLT_learning_02,B,2014_Mrz_11_1736,P15,
stim_fb/ques.jpg,stim_fb/negf.jpg,stim_fb/posf.jpg,stim_02/f.jpg,stim_02/e.jpg,1,3,f,4,40,280,41,f,1,0.683161585397,02,03,60.0207154878,PLT_learning_02,B,2014_Mrz_11_1736,P15,
stim_fb/ques.jpg,stim_fb/negf.jpg,stim_fb/posf.jpg,stim_02/e.jpg,stim_02/f.jpg,2,3,j,4,41,281,51,j,1,0.616475405164,02,03,60.0207154878,PLT_learning_02,B,2014_Mrz_11_1736,P15,
stim_fb/ques.jpg,stim_fb/negf.jpg,stim_fb/posf.jpg,stim_02/c.jpg,stim_02/d.jpg,2,2,j,4,42,282,35,j,1,0.633174873967,02,03,60.0207154878,PLT_learning_02,B,2014_Mrz_11_1736,P15,
stim_fb/ques.jpg,stim_fb/posf.jpg,stim_fb/negf.jpg,stim_02/a.jpg,stim_02/b.jpg,2,1,j,4,43,283,19,j,1,0.616514541565,02,03,60.0207154878,PLT_learning_02,B,2014_Mrz_11_1736,P15,
stim_fb/ques.jpg,stim_fb/negf.jpg,stim_fb/posf.jpg,stim_02/e.jpg,stim_02/f.jpg,2,3,j,4,44,284,55,j,1,0.633181517502,02,03,60.0207154878,PLT_learning_02,B,2014_Mrz_11_1736,P15,
stim_fb/ques.jpg,stim_fb/negf.jpg,stim_fb/posf.jpg,stim_02/e.jpg,stim_02/f.jpg,2,3,j,4,45,285,54,j,1,0.51651324534,02,03,60.0207154878,PLT_learning_02,B,2014_Mrz_11_1736,P15,
stim_fb/ques.jpg,stim_fb/posf.jpg,stim_fb/negf.jpg,stim_02/c.jpg,stim_02/d.jpg,2,2,j,4,46,286,37,j,1,0.466490895215,02,03,60.0207154878,PLT_learning_02,B,2014_Mrz_11_1736,P15,
stim_fb/ques.jpg,stim_fb/negf.jpg,stim_fb/posf.jpg,stim_02/c.jpg,stim_02/d.jpg,2,2,j,4,47,287,30,j,1,0.749803760107,02,03,60.0207154878,PLT_learning_02,B,2014_Mrz_11_1736,P15,
stim_fb/ques.jpg,stim_fb/negf.jpg,stim_fb/posf.jpg,stim_02/c.jpg,stim_02/d.jpg,2,2,j,4,48,288,34,j,1,0.516583130266,02,03,60.0207154878,PLT_learning_02,B,2014_Mrz_11_1736,P15,
stim_fb/ques.jpg,stim_fb/posf.jpg,stim_fb/negf.jpg,stim_02/f.jpg,stim_02/e.jpg,1,3,f,4,49,289,46,f,1,0.933076977328,02,03,60.0207154878,PLT_learning_02,B,2014_Mrz_11_1736,P15,
stim_fb/ques.jpg,stim_fb/negf.jpg,stim_fb/posf.jpg,stim_02/a.jpg,stim_02/b.jpg,2,1,j,4,50,290,16,j,1,0.816451456561,02,03,60.0207154878,PLT_learning_02,B,2014_Mrz_11_1736,P15,
stim_fb/ques.jpg,stim_fb/posf.jpg,stim_fb/negf.jpg,stim_02/b.jpg,stim_02/a.jpg,1,1,f,4,51,291,8,f,1,0.966444694232,02,03,60.0207154878,PLT_learning_02,B,2014_Mrz_11_1736,P15,
stim_fb/ques.jpg,stim_fb/posf.jpg,stim_fb/negf.jpg,stim_02/d.jpg,stim_02/c.jpg,1,2,f,4,52,292,29,f,1,0.599851484381,02,03,60.0207154878,PLT_learning_02,B,2014_Mrz_11_1736,P15,
stim_fb/ques.jpg,stim_fb/negf.jpg,stim_fb/posf.jpg,stim_02/d.jpg,stim_02/c.jpg,1,2,f,4,53,293,20,f,1,0.616498833473,02,03,60.0207154878,PLT_learning_02,B,2014_Mrz_11_1736,P15,
stim_fb/ques.jpg,stim_fb/negf.jpg,stim_fb/posf.jpg,stim_02/e.jpg,stim_02/f.jpg,2,3,j,4,54,294,52,j,1,0.749812466776,02,03,60.0207154878,PLT_learning_02,B,2014_Mrz_11_1736,P15,
stim_fb/ques.jpg,stim_fb/negf.jpg,stim_fb/posf.jpg,stim_02/e.jpg,stim_02/f.jpg,2,3,j,4,55,295,50,j,1,1.38292243922,02,03,60.0207154878,PLT_learning_02,B,2014_Mrz_11_1736,P15,
stim_fb/ques.jpg,stim_fb/negf.jpg,stim_fb/posf.jpg,stim_02/a.jpg,stim_02/b.jpg,2,1,j,4,56,296,15,j,1,0.749815735911,02,03,60.0207154878,PLT_learning_02,B,2014_Mrz_11_1736,P15,
stim_fb/ques.jpg,stim_fb/posf.jpg,stim_fb/negf.jpg,stim_02/d.jpg,stim_02/c.jpg,1,2,f,4,57,297,28,f,1,0.733139671356,02,03,60.0207154878,PLT_learning_02,B,2014_Mrz_11_1736,P15,
stim_fb/ques.jpg,stim_fb/negf.jpg,stim_fb/posf.jpg,stim_02/e.jpg,stim_02/f.jpg,2,3,j,4,58,298,53,j,1,1.0497535712,02,03,60.0207154878,PLT_learning_02,B,2014_Mrz_11_1736,P15,
stim_fb/ques.jpg,stim_fb/negf.jpg,stim_fb/posf.jpg,stim_02/a.jpg,stim_02/b.jpg,2,1,j,4,59,299,14,j,1,0.583193819619,02,03,60.0207154878,PLT_learning_02,B,2014_Mrz_11_1736,P15,
stim_fb/ques.jpg,stim_fb/negf.jpg,stim_fb/posf.jpg,stim_02/b.jpg,stim_02/a.jpg,1,1,f,5,0,300,0,f,1,0.7498106683,02,03,60.0207154878,PLT_learning_02,B,2014_Mrz_11_1736,P15,
stim_fb/ques.jpg,stim_fb/negf.jpg,stim_fb/posf.jpg,stim_02/b.jpg,stim_02/a.jpg,1,1,f,5,1,301,5,f,1,0.683159642562,02,03,60.0207154878,PLT_learning_02,B,2014_Mrz_11_1736,P15,
stim_fb/ques.jpg,stim_fb/posf.jpg,stim_fb/negf.jpg,stim_02/f.jpg,stim_02/e.jpg,1,3,f,5,2,302,48,f,1,0.699819208054,02,03,60.0207154878,PLT_learning_02,B,2014_Mrz_11_1736,P15,
stim_fb/ques.jpg,stim_fb/negf.jpg,stim_fb/posf.jpg,stim_02/d.jpg,stim_02/c.jpg,1,2,f,5,3,303,20,f,1,0.899751154686,02,03,60.0207154878,PLT_learning_02,B,2014_Mrz_11_1736,P15,
stim_fb/ques.jpg,stim_fb/posf.jpg,stim_fb/negf.jpg,stim_02/b.jpg,stim_02/a.jpg,1,1,f,5,4,304,8,f,1,0.650136063126,02,03,60.0207154878,PLT_learning_02,B,2014_Mrz_11_1736,P15,
stim_fb/ques.jpg,stim_fb/posf.jpg,stim_fb/negf.jpg,stim_02/c.jpg,stim_02/d.jpg,2,2,j,5,5,305,38,j,1,0.81644194088,02,03,60.0207154878,PLT_learning_02,B,2014_Mrz_11_1736,P15,
stim_fb/ques.jpg,stim_fb/negf.jpg,stim_fb/posf.jpg,stim_02/a.jpg,stim_02/b.jpg,2,1,j,5,6,306,13,j,1,0.583119862556,02,03,60.0207154878,PLT_learning_02,B,2014_Mrz_11_1736,P15,
stim_fb/ques.jpg,stim_fb/negf.jpg,stim_fb/posf.jpg,stim_02/c.jpg,stim_02/d.jpg,2,2,j,5,7,307,33,j,1,0.666503713117,02,03,60.0207154878,PLT_learning_02,B,2014_Mrz_11_1736,P15,
stim_fb/ques.jpg,stim_fb/negf.jpg,stim_fb/posf.jpg,stim_02/d.jpg,stim_02/c.jpg,1,2,f,5,8,308,24,f,1,0.69982008624,02,03,60.0207154878,PLT_learning_02,B,2014_Mrz_11_1736,P15,
stim_fb/ques.jpg,stim_fb/negf.jpg,stim_fb/posf.jpg,stim_02/b.jpg,stim_02/a.jpg,1,1,f,5,9,309,3,f,1,0.783092386177,02,03,60.0207154878,PLT_learning_02,B,2014_Mrz_11_1736,P15,
stim_fb/ques.jpg,stim_fb/posf.jpg,stim_fb/negf.jpg,stim_02/e.jpg,stim_02/f.jpg,2,3,j,5,10,310,59,j,1,1.16632243997,02,03,60.0207154878,PLT_learning_02,B,2014_Mrz_11_1736,P15,
stim_fb/ques.jpg,stim_fb/negf.jpg,stim_fb/posf.jpg,stim_02/a.jpg,stim_02/b.jpg,2,1,j,5,11,311,11,j,1,0.66653613681,02,03,60.0207154878,PLT_learning_02,B,2014_Mrz_11_1736,P15,
stim_fb/ques.jpg,stim_fb/negf.jpg,stim_fb/posf.jpg,stim_02/f.jpg,stim_02/e.jpg,1,3,f,5,12,312,41,j,0,0.633179288954,02,03,60.0207154878,PLT_learning_02,B,2014_Mrz_11_1736,P15,
stim_fb/ques.jpg,stim_fb/posf.jpg,stim_fb/negf.jpg,stim_02/e.jpg,stim_02/f.jpg,2,3,j,5,13,313,56,f,0,1.083007936,02,03,60.0207154878,PLT_learning_02,B,2014_Mrz_11_1736,P15,
stim_fb/ques.jpg,stim_fb/negf.jpg,stim_fb/posf.jpg,stim_02/c.jpg,stim_02/d.jpg,2,2,j,5,14,314,31,j,1,0.733134459386,02,03,60.0207154878,PLT_learning_02,B,2014_Mrz_11_1736,P15,
stim_fb/ques.jpg,stim_fb/negf.jpg,stim_fb/posf.jpg,stim_02/c.jpg,stim_02/d.jpg,2,2,j,5,15,315,32,j,1,0.549886141134,02,03,60.0207154878,PLT_learning_02,B,2014_Mrz_11_1736,P15,
stim_fb/ques.jpg,stim_fb/negf.jpg,stim_fb/posf.jpg,stim_02/c.jpg,stim_02/d.jpg,2,2,j,5,16,316,35,j,1,0.54994830284,02,03,60.0207154878,PLT_learning_02,B,2014_Mrz_11_1736,P15,
stim_fb/ques.jpg,stim_fb/negf.jpg,stim_fb/posf.jpg,stim_02/d.jpg,stim_02/c.jpg,1,2,f,5,17,317,26,f,1,0.733148402087,02,03,60.0207154878,PLT_learning_02,B,2014_Mrz_11_1736,P15,
stim_fb/ques.jpg,stim_fb/negf.jpg,stim_fb/posf.jpg,stim_02/d.jpg,stim_02/c.jpg,1,2,f,5,18,318,23,f,1,0.649842580722,02,03,60.0207154878,PLT_learning_02,B,2014_Mrz_11_1736,P15,
stim_fb/ques.jpg,stim_fb/negf.jpg,stim_fb/posf.jpg,stim_02/a.jpg,stim_02/b.jpg,2,1,j,5,19,319,12,j,1,0.749792403845,02,03,60.0207154878,PLT_learning_02,B,2014_Mrz_11_1736,P15,
stim_fb/ques.jpg,stim_fb/negf.jpg,stim_fb/posf.jpg,stim_02/b.jpg,stim_02/a.jpg,1,1,f,5,20,320,6,f,1,0.749800466912,02,03,60.0207154878,PLT_learning_02,B,2014_Mrz_11_1736,P15,
stim_fb/ques.jpg,stim_fb/negf.jpg,stim_fb/posf.jpg,stim_02/d.jpg,stim_02/c.jpg,1,2,f,5,21,321,25,f,1,0.583185795649,02,03,60.0207154878,PLT_learning_02,B,2014_Mrz_11_1736,P15,
stim_fb/ques.jpg,stim_fb/posf.jpg,stim_fb/negf.jpg,stim_02/a.jpg,stim_02/b.jpg,2,1,j,5,22,322,19,j,1,0.533171144687,02,03,60.0207154878,PLT_learning_02,B,2014_Mrz_11_1736,P15,
stim_fb/ques.jpg,stim_fb/negf.jpg,stim_fb/posf.jpg,stim_02/c.jpg,stim_02/d.jpg,2,2,j,5,23,323,30,j,1,0.583178048368,02,03,60.0207154878,PLT_learning_02,B,2014_Mrz_11_1736,P15,
stim_fb/ques.jpg,stim_fb/posf.jpg,stim_fb/negf.jpg,stim_02/c.jpg,stim_02/d.jpg,2,2,j,5,24,324,37,j,1,0.449908513814,02,03,60.0207154878,PLT_learning_02,B,2014_Mrz_11_1736,P15,
stim_fb/ques.jpg,stim_fb/posf.jpg,stim_fb/negf.jpg,stim_02/e.jpg,stim_02/f.jpg,2,3,j,5,25,325,58,j,1,1.08302622452,02,03,60.0207154878,PLT_learning_02,B,2014_Mrz_11_1736,P15,
stim_fb/ques.jpg,stim_fb/negf.jpg,stim_fb/posf.jpg,stim_02/e.jpg,stim_02/f.jpg,2,3,j,5,26,326,50,f,0,0.949716795676,02,03,60.0207154878,PLT_learning_02,B,2014_Mrz_11_1736,P15,
stim_fb/ques.jpg,stim_fb/negf.jpg,stim_fb/posf.jpg,stim_02/d.jpg,stim_02/c.jpg,1,2,f,5,27,327,22,j,0,0.516549016365,02,03,60.0207154878,PLT_learning_02,B,2014_Mrz_11_1736,P15,
stim_fb/ques.jpg,stim_fb/negf.jpg,stim_fb/posf.jpg,stim_02/b.jpg,stim_02/a.jpg,1,1,f,5,28,328,7,f,1,0.783119450532,02,03,60.0207154878,PLT_learning_02,B,2014_Mrz_11_1736,P15,
stim_fb/ques.jpg,stim_fb/posf.jpg,stim_fb/negf.jpg,stim_02/b.jpg,stim_02/a.jpg,1,1,f,5,29,329,9,f,1,0.899763942512,02,03,60.0207154878,PLT_learning_02,B,2014_Mrz_11_1736,P15,
stim_fb/ques.jpg,stim_fb/negf.jpg,stim_fb/posf.jpg,stim_02/b.jpg,stim_02/a.jpg,1,1,f,5,30,330,1,f,1,0.666512750608,02,03,60.0207154878,PLT_learning_02,B,2014_Mrz_11_1736,P15,
stim_fb/ques.jpg,stim_fb/negf.jpg,stim_fb/posf.jpg,stim_02/f.jpg,stim_02/e.jpg,1,3,f,5,31,331,40,f,1,0.999725563997,02,03,60.0207154878,PLT_learning_02,B,2014_Mrz_11_1736,P15,
stim_fb/ques.jpg,stim_fb/negf.jpg,stim_fb/posf.jpg,stim_02/c.jpg,stim_02/d.jpg,2,2,j,5,32,332,36,j,1,1.38291505284,02,03,60.0207154878,PLT_learning_02,B,2014_Mrz_11_1736,P15,
stim_fb/ques.jpg,stim_fb/posf.jpg,stim_fb/negf.jpg,stim_02/f.jpg,stim_02/e.jpg,1,3,f,5,33,333,49,f,1,0.799823803491,02,03,60.0207154878,PLT_learning_02,B,2014_Mrz_11_1736,P15,
stim_fb/ques.jpg,stim_fb/negf.jpg,stim_fb/posf.jpg,stim_02/a.jpg,stim_02/b.jpg,2,1,j,5,34,334,17,j,1,0.66649124709,02,03,60.0207154878,PLT_learning_02,B,2014_Mrz_11_1736,P15,
stim_fb/ques.jpg,stim_fb/negf.jpg,stim_fb/posf.jpg,stim_02/f.jpg,stim_02/e.jpg,1,3,f,5,35,335,45,f,1,0.649792060993,02,03,60.0207154878,PLT_learning_02,B,2014_Mrz_11_1736,P15,
stim_fb/ques.jpg,stim_fb/posf.jpg,stim_fb/negf.jpg,stim_02/d.jpg,stim_02/c.jpg,1,2,f,5,36,336,28,f,1,0.616515726515,02,03,60.0207154878,PLT_learning_02,B,2014_Mrz_11_1736,P15,
stim_fb/ques.jpg,stim_fb/negf.jpg,stim_fb/posf.jpg,stim_02/a.jpg,stim_02/b.jpg,2,1,j,5,37,337,14,j,1,1.43291430247,02,03,60.0207154878,PLT_learning_02,B,2014_Mrz_11_1736,P15,
stim_fb/ques.jpg,stim_fb/posf.jpg,stim_fb/negf.jpg,stim_02/d.jpg,stim_02/c.jpg,1,2,f,5,38,338,29,f,1,0.999715212234,02,03,60.0207154878,PLT_learning_02,B,2014_Mrz_11_1736,P15,
stim_fb/ques.jpg,stim_fb/negf.jpg,stim_fb/posf.jpg,stim_02/d.jpg,stim_02/c.jpg,1,2,f,5,39,339,21,f,1,1.03306372635,02,03,60.0207154878,PLT_learning_02,B,2014_Mrz_11_1736,P15,
stim_fb/ques.jpg,stim_fb/posf.jpg,stim_fb/negf.jpg,stim_02/f.jpg,stim_02/e.jpg,1,3,f,5,40,340,47,f,1,0.799784561828,02,03,60.0207154878,PLT_learning_02,B,2014_Mrz_11_1736,P15,
stim_fb/ques.jpg,stim_fb/negf.jpg,stim_fb/posf.jpg,stim_02/a.jpg,stim_02/b.jpg,2,1,j,5,41,341,10,j,1,0.566523015154,02,03,60.0207154878,PLT_learning_02,B,2014_Mrz_11_1736,P15,
stim_fb/ques.jpg,stim_fb/posf.jpg,stim_fb/negf.jpg,stim_02/c.jpg,stim_02/d.jpg,2,2,j,5,42,342,39,j,1,0.5664804021,02,03,60.0207154878,PLT_learning_02,B,2014_Mrz_11_1736,P15,
stim_fb/ques.jpg,stim_fb/negf.jpg,stim_fb/posf.jpg,stim_02/a.jpg,stim_02/b.jpg,2,1,j,5,43,343,15,j,1,0.683117745288,02,03,60.0207154878,PLT_learning_02,B,2014_Mrz_11_1736,P15,
stim_fb/ques.jpg,stim_fb/posf.jpg,stim_fb/negf.jpg,stim_02/d.jpg,stim_02/c.jpg,1,2,f,5,44,344,27,f,1,0.633188861779,02,03,60.0207154878,PLT_learning_02,B,2014_Mrz_11_1736,P15,
stim_fb/ques.jpg,stim_fb/negf.jpg,stim_fb/posf.jpg,stim_02/a.jpg,stim_02/b.jpg,2,1,j,5,45,345,16,j,1,0.583186688871,02,03,60.0207154878,PLT_learning_02,B,2014_Mrz_11_1736,P15,
stim_fb/ques.jpg,stim_fb/negf.jpg,stim_fb/posf.jpg,stim_02/f.jpg,stim_02/e.jpg,1,3,f,5,46,346,43,f,1,0.916397526344,02,03,60.0207154878,PLT_learning_02,B,2014_Mrz_11_1736,P15,
stim_fb/ques.jpg,stim_fb/negf.jpg,stim_fb/posf.jpg,stim_02/c.jpg,stim_02/d.jpg,2,2,j,5,47,347,34,j,1,0.783134346604,02,03,60.0207154878,PLT_learning_02,B,2014_Mrz_11_1736,P15,
stim_fb/ques.jpg,stim_fb/negf.jpg,stim_fb/posf.jpg,stim_02/e.jpg,stim_02/f.jpg,2,3,j,5,48,348,54,j,1,0.833149779513,02,03,60.0207154878,PLT_learning_02,B,2014_Mrz_11_1736,P15,
stim_fb/ques.jpg,stim_fb/negf.jpg,stim_fb/posf.jpg,stim_02/b.jpg,stim_02/a.jpg,1,1,f,5,49,349,4,f,1,0.599848660353,02,03,60.0207154878,PLT_learning_02,B,2014_Mrz_11_1736,P15,
stim_fb/ques.jpg,stim_fb/posf.jpg,stim_fb/negf.jpg,stim_02/a.jpg,stim_02/b.jpg,2,1,j,5,50,350,18,j,1,0.749809982595,02,03,60.0207154878,PLT_learning_02,B,2014_Mrz_11_1736,P15,
stim_fb/ques.jpg,stim_fb/negf.jpg,stim_fb/posf.jpg,stim_02/e.jpg,stim_02/f.jpg,2,3,j,5,51,351,55,j,1,0.699780850593,02,03,60.0207154878,PLT_learning_02,B,2014_Mrz_11_1736,P15,
stim_fb/ques.jpg,stim_fb/negf.jpg,stim_fb/posf.jpg,stim_02/f.jpg,stim_02/e.jpg,1,3,f,5,52,352,44,f,1,0.733086595264,02,03,60.0207154878,PLT_learning_02,B,2014_Mrz_11_1736,P15,
stim_fb/ques.jpg,stim_fb/posf.jpg,stim_fb/negf.jpg,stim_02/f.jpg,stim_02/e.jpg,1,3,f,5,53,353,46,f,1,0.699796345154,02,03,60.0207154878,PLT_learning_02,B,2014_Mrz_11_1736,P15,
stim_fb/ques.jpg,stim_fb/negf.jpg,stim_fb/posf.jpg,stim_02/e.jpg,stim_02/f.jpg,2,3,j,5,54,354,53,j,1,0.73312939779,02,03,60.0207154878,PLT_learning_02,B,2014_Mrz_11_1736,P15,
stim_fb/ques.jpg,stim_fb/negf.jpg,stim_fb/posf.jpg,stim_02/f.jpg,stim_02/e.jpg,1,3,f,5,55,355,42,f,1,0.583159558351,02,03,60.0207154878,PLT_learning_02,B,2014_Mrz_11_1736,P15,
stim_fb/ques.jpg,stim_fb/negf.jpg,stim_fb/posf.jpg,stim_02/e.jpg,stim_02/f.jpg,2,3,j,5,56,356,51,j,1,0.533156098239,02,03,60.0207154878,PLT_learning_02,B,2014_Mrz_11_1736,P15,
stim_fb/ques.jpg,stim_fb/posf.jpg,stim_fb/negf.jpg,stim_02/e.jpg,stim_02/f.jpg,2,3,j,5,57,357,57,j,1,0.633038301072,02,03,60.0207154878,PLT_learning_02,B,2014_Mrz_11_1736,P15,
stim_fb/ques.jpg,stim_fb/negf.jpg,stim_fb/posf.jpg,stim_02/b.jpg,stim_02/a.jpg,1,1,f,5,58,358,2,f,1,0.649840773223,02,03,60.0207154878,PLT_learning_02,B,2014_Mrz_11_1736,P15,
stim_fb/ques.jpg,stim_fb/negf.jpg,stim_fb/posf.jpg,stim_02/e.jpg,stim_02/f.jpg,2,3,j,5,59,359,52,j,1,0.533174621338,02,03,60.0207154878,PLT_learning_02,B,2014_Mrz_11_1736,P15,
