Fb3,Fb2,Fb1,Symbol2,Symbol1,PosCond,Pair,Correct,trials.thisRepN,trials.thisTrialN,trials.thisN,trials.thisIndex,Response.keys,Response.corr,Response.rt,Version,Session Number,frameRate,expName,StimCondition,date,Participant,
stim_fb/ques.jpg,stim_fb/negf.jpg,stim_fb/posf.jpg,stim_03/d.jpg,stim_03/c.jpg,1,2,f,0,0,0,21,j,0,1.36628628958,03,02,60.0189568224,PLT_learning_3,B,2014_Mrz_05_1556,P16,
stim_fb/ques.jpg,stim_fb/negf.jpg,stim_fb/posf.jpg,stim_03/b.jpg,stim_03/a.jpg,1,1,f,0,1,1,0,j,0,0.933065808528,03,02,60.0189568224,PLT_learning_3,B,2014_Mrz_05_1556,P16,
stim_fb/ques.jpg,stim_fb/negf.jpg,stim_fb/posf.jpg,stim_03/e.jpg,stim_03/f.jpg,2,3,j,0,2,2,54,f,0,0.766539394441,03,02,60.0189568224,PLT_learning_3,B,2014_Mrz_05_1556,P16,
stim_fb/ques.jpg,stim_fb/negf.jpg,stim_fb/posf.jpg,stim_03/b.jpg,stim_03/a.jpg,1,1,f,0,3,3,4,j,0,0.933059853685,03,02,60.0189568224,PLT_learning_3,B,2014_Mrz_05_1556,P16,
stim_fb/ques.jpg,stim_fb/negf.jpg,stim_fb/posf.jpg,stim_03/b.jpg,stim_03/a.jpg,1,1,f,0,4,4,5,f,1,1.08304153503,03,02,60.0189568224,PLT_learning_3,B,2014_Mrz_05_1556,P16,
stim_fb/ques.jpg,stim_fb/negf.jpg,stim_fb/posf.jpg,stim_03/a.jpg,stim_03/b.jpg,2,1,j,0,5,5,12,f,0,1.16634241547,03,02,60.0189568224,PLT_learning_3,B,2014_Mrz_05_1556,P16,
stim_fb/ques.jpg,stim_fb/negf.jpg,stim_fb/posf.jpg,stim_03/f.jpg,stim_03/e.jpg,1,3,f,0,6,6,42,f,1,1.03304257562,03,02,60.0189568224,PLT_learning_3,B,2014_Mrz_05_1556,P16,
stim_fb/ques.jpg,stim_fb/negf.jpg,stim_fb/posf.jpg,stim_03/d.jpg,stim_03/c.jpg,1,2,f,0,7,7,22,f,1,1.33295238983,03,02,60.0189568224,PLT_learning_3,B,2014_Mrz_05_1556,P16,
stim_fb/ques.jpg,stim_fb/negf.jpg,stim_fb/posf.jpg,stim_03/e.jpg,stim_03/f.jpg,2,3,j,0,8,8,51,j,1,0.983053510876,03,02,60.0189568224,PLT_learning_3,B,2014_Mrz_05_1556,P16,
stim_fb/ques.jpg,stim_fb/negf.jpg,stim_fb/posf.jpg,stim_03/c.jpg,stim_03/d.jpg,2,2,j,0,9,9,32,j,1,1.0163128578,03,02,60.0189568224,PLT_learning_3,B,2014_Mrz_05_1556,P16,
stim_fb/ques.jpg,stim_fb/negf.jpg,stim_fb/posf.jpg,stim_03/f.jpg,stim_03/e.jpg,1,3,f,0,10,10,44,f,1,1.03301955925,03,02,60.0189568224,PLT_learning_3,B,2014_Mrz_05_1556,P16,
stim_fb/ques.jpg,stim_fb/posf.jpg,stim_fb/negf.jpg,stim_03/c.jpg,stim_03/d.jpg,2,2,j,0,11,11,38,j,1,0.733147687611,03,02,60.0189568224,PLT_learning_3,B,2014_Mrz_05_1556,P16,
stim_fb/ques.jpg,stim_fb/negf.jpg,stim_fb/posf.jpg,stim_03/f.jpg,stim_03/e.jpg,1,3,f,0,12,12,40,f,1,0.966390243682,03,02,60.0189568224,PLT_learning_3,B,2014_Mrz_05_1556,P16,
stim_fb/ques.jpg,stim_fb/posf.jpg,stim_fb/negf.jpg,stim_03/f.jpg,stim_03/e.jpg,1,3,f,0,13,13,46,f,1,1.13302047654,03,02,60.0189568224,PLT_learning_3,B,2014_Mrz_05_1556,P16,
stim_fb/ques.jpg,stim_fb/negf.jpg,stim_fb/posf.jpg,stim_03/c.jpg,stim_03/d.jpg,2,2,j,0,14,14,33,j,1,1.59949510756,03,02,60.0189568224,PLT_learning_3,B,2014_Mrz_05_1556,P16,
stim_fb/ques.jpg,stim_fb/posf.jpg,stim_fb/negf.jpg,stim_03/b.jpg,stim_03/a.jpg,1,1,f,0,15,15,8,f,1,1.08302590206,03,02,60.0189568224,PLT_learning_3,B,2014_Mrz_05_1556,P16,
stim_fb/ques.jpg,stim_fb/negf.jpg,stim_fb/posf.jpg,stim_03/f.jpg,stim_03/e.jpg,1,3,f,0,16,16,41,f,1,0.983084045984,03,02,60.0189568224,PLT_learning_3,B,2014_Mrz_05_1556,P16,
stim_fb/ques.jpg,stim_fb/negf.jpg,stim_fb/posf.jpg,stim_03/b.jpg,stim_03/a.jpg,1,1,f,0,17,17,6,j,0,1.08299408576,03,02,60.0189568224,PLT_learning_3,B,2014_Mrz_05_1556,P16,
stim_fb/ques.jpg,stim_fb/negf.jpg,stim_fb/posf.jpg,stim_03/a.jpg,stim_03/b.jpg,2,1,j,0,18,18,14,None,0,,03,02,60.0189568224,PLT_learning_3,B,2014_Mrz_05_1556,P16,
stim_fb/ques.jpg,stim_fb/posf.jpg,stim_fb/negf.jpg,stim_03/f.jpg,stim_03/e.jpg,1,3,f,0,19,19,48,f,1,0.733189714363,03,02,60.0189568224,PLT_learning_3,B,2014_Mrz_05_1556,P16,
stim_fb/ques.jpg,stim_fb/negf.jpg,stim_fb/posf.jpg,stim_03/d.jpg,stim_03/c.jpg,1,2,f,0,20,20,25,f,1,0.683151347734,03,02,60.0189568224,PLT_learning_3,B,2014_Mrz_05_1556,P16,
stim_fb/ques.jpg,stim_fb/negf.jpg,stim_fb/posf.jpg,stim_03/b.jpg,stim_03/a.jpg,1,1,f,0,21,21,7,f,1,0.733142433515,03,02,60.0189568224,PLT_learning_3,B,2014_Mrz_05_1556,P16,
stim_fb/ques.jpg,stim_fb/negf.jpg,stim_fb/posf.jpg,stim_03/d.jpg,stim_03/c.jpg,1,2,f,0,22,22,24,f,1,1.36627493929,03,02,60.0189568224,PLT_learning_3,B,2014_Mrz_05_1556,P16,
stim_fb/ques.jpg,stim_fb/negf.jpg,stim_fb/posf.jpg,stim_03/a.jpg,stim_03/b.jpg,2,1,j,0,23,23,17,j,1,1.1163531402,03,02,60.0189568224,PLT_learning_3,B,2014_Mrz_05_1556,P16,
stim_fb/ques.jpg,stim_fb/negf.jpg,stim_fb/posf.jpg,stim_03/b.jpg,stim_03/a.jpg,1,1,f,0,24,24,3,f,1,0.816426423861,03,02,60.0189568224,PLT_learning_3,B,2014_Mrz_05_1556,P16,
stim_fb/ques.jpg,stim_fb/posf.jpg,stim_fb/negf.jpg,stim_03/b.jpg,stim_03/a.jpg,1,1,f,0,25,25,9,f,1,0.766468267156,03,02,60.0189568224,PLT_learning_3,B,2014_Mrz_05_1556,P16,
stim_fb/ques.jpg,stim_fb/negf.jpg,stim_fb/posf.jpg,stim_03/c.jpg,stim_03/d.jpg,2,2,j,0,26,26,34,j,1,0.866431524575,03,02,60.0189568224,PLT_learning_3,B,2014_Mrz_05_1556,P16,
stim_fb/ques.jpg,stim_fb/negf.jpg,stim_fb/posf.jpg,stim_03/c.jpg,stim_03/d.jpg,2,2,j,0,27,27,31,j,1,0.849740447064,03,02,60.0189568224,PLT_learning_3,B,2014_Mrz_05_1556,P16,
stim_fb/ques.jpg,stim_fb/posf.jpg,stim_fb/negf.jpg,stim_03/e.jpg,stim_03/f.jpg,2,3,j,0,28,28,59,j,1,1.11633232833,03,02,60.0189568224,PLT_learning_3,B,2014_Mrz_05_1556,P16,
stim_fb/ques.jpg,stim_fb/negf.jpg,stim_fb/posf.jpg,stim_03/d.jpg,stim_03/c.jpg,1,2,f,0,29,29,26,f,1,1.04967415283,03,02,60.0189568224,PLT_learning_3,B,2014_Mrz_05_1556,P16,
stim_fb/ques.jpg,stim_fb/negf.jpg,stim_fb/posf.jpg,stim_03/a.jpg,stim_03/b.jpg,2,1,j,0,30,30,11,j,1,1.06636087849,03,02,60.0189568224,PLT_learning_3,B,2014_Mrz_05_1556,P16,
stim_fb/ques.jpg,stim_fb/negf.jpg,stim_fb/posf.jpg,stim_03/c.jpg,stim_03/d.jpg,2,2,j,0,31,31,30,j,1,0.849751580815,03,02,60.0189568224,PLT_learning_3,B,2014_Mrz_05_1556,P16,
stim_fb/ques.jpg,stim_fb/posf.jpg,stim_fb/negf.jpg,stim_03/f.jpg,stim_03/e.jpg,1,3,f,0,32,32,47,f,1,0.966385479808,03,02,60.0189568224,PLT_learning_3,B,2014_Mrz_05_1556,P16,
stim_fb/ques.jpg,stim_fb/posf.jpg,stim_fb/negf.jpg,stim_03/d.jpg,stim_03/c.jpg,1,2,f,0,33,33,29,f,1,0.899778594146,03,02,60.0189568224,PLT_learning_3,B,2014_Mrz_05_1556,P16,
stim_fb/ques.jpg,stim_fb/negf.jpg,stim_fb/posf.jpg,stim_03/e.jpg,stim_03/f.jpg,2,3,j,0,34,34,52,j,1,1.14966941301,03,02,60.0189568224,PLT_learning_3,B,2014_Mrz_05_1556,P16,
stim_fb/ques.jpg,stim_fb/negf.jpg,stim_fb/posf.jpg,stim_03/f.jpg,stim_03/e.jpg,1,3,f,0,35,35,45,f,1,0.666494757182,03,02,60.0189568224,PLT_learning_3,B,2014_Mrz_05_1556,P16,
stim_fb/ques.jpg,stim_fb/posf.jpg,stim_fb/negf.jpg,stim_03/e.jpg,stim_03/f.jpg,2,3,j,0,36,36,58,j,1,0.949776278374,03,02,60.0189568224,PLT_learning_3,B,2014_Mrz_05_1556,P16,
stim_fb/ques.jpg,stim_fb/posf.jpg,stim_fb/negf.jpg,stim_03/f.jpg,stim_03/e.jpg,1,3,f,0,37,37,49,j,0,1.29960075187,03,02,60.0189568224,PLT_learning_3,B,2014_Mrz_05_1556,P16,
stim_fb/ques.jpg,stim_fb/negf.jpg,stim_fb/posf.jpg,stim_03/d.jpg,stim_03/c.jpg,1,2,f,0,38,38,20,j,0,1.13299079556,03,02,60.0189568224,PLT_learning_3,B,2014_Mrz_05_1556,P16,
stim_fb/ques.jpg,stim_fb/posf.jpg,stim_fb/negf.jpg,stim_03/a.jpg,stim_03/b.jpg,2,1,j,0,39,39,18,j,1,1.03302994113,03,02,60.0189568224,PLT_learning_3,B,2014_Mrz_05_1556,P16,
stim_fb/ques.jpg,stim_fb/negf.jpg,stim_fb/posf.jpg,stim_03/d.jpg,stim_03/c.jpg,1,2,f,0,40,40,23,f,1,1.06637595808,03,02,60.0189568224,PLT_learning_3,B,2014_Mrz_05_1556,P16,
stim_fb/ques.jpg,stim_fb/posf.jpg,stim_fb/negf.jpg,stim_03/e.jpg,stim_03/f.jpg,2,3,j,0,41,41,57,j,1,1.41623993504,03,02,60.0189568224,PLT_learning_3,B,2014_Mrz_05_1556,P16,
stim_fb/ques.jpg,stim_fb/negf.jpg,stim_fb/posf.jpg,stim_03/b.jpg,stim_03/a.jpg,1,1,f,0,42,42,1,f,1,1.06637017767,03,02,60.0189568224,PLT_learning_3,B,2014_Mrz_05_1556,P16,
stim_fb/ques.jpg,stim_fb/negf.jpg,stim_fb/posf.jpg,stim_03/a.jpg,stim_03/b.jpg,2,1,j,0,43,43,13,j,1,0.899734362899,03,02,60.0189568224,PLT_learning_3,B,2014_Mrz_05_1556,P16,
stim_fb/ques.jpg,stim_fb/posf.jpg,stim_fb/negf.jpg,stim_03/c.jpg,stim_03/d.jpg,2,2,j,0,44,44,37,j,1,0.883074680642,03,02,60.0189568224,PLT_learning_3,B,2014_Mrz_05_1556,P16,
stim_fb/ques.jpg,stim_fb/negf.jpg,stim_fb/posf.jpg,stim_03/c.jpg,stim_03/d.jpg,2,2,j,0,45,45,35,j,1,0.983095483493,03,02,60.0189568224,PLT_learning_3,B,2014_Mrz_05_1556,P16,
stim_fb/ques.jpg,stim_fb/negf.jpg,stim_fb/posf.jpg,stim_03/c.jpg,stim_03/d.jpg,2,2,j,0,46,46,36,j,1,0.699828446403,03,02,60.0189568224,PLT_learning_3,B,2014_Mrz_05_1556,P16,
stim_fb/ques.jpg,stim_fb/negf.jpg,stim_fb/posf.jpg,stim_03/e.jpg,stim_03/f.jpg,2,3,j,0,47,47,50,j,1,0.849731409538,03,02,60.0189568224,PLT_learning_3,B,2014_Mrz_05_1556,P16,
stim_fb/ques.jpg,stim_fb/posf.jpg,stim_fb/negf.jpg,stim_03/c.jpg,stim_03/d.jpg,2,2,j,0,48,48,39,j,1,0.89973747265,03,02,60.0189568224,PLT_learning_3,B,2014_Mrz_05_1556,P16,
stim_fb/ques.jpg,stim_fb/negf.jpg,stim_fb/posf.jpg,stim_03/b.jpg,stim_03/a.jpg,1,1,f,0,49,49,2,f,1,0.849727866708,03,02,60.0189568224,PLT_learning_3,B,2014_Mrz_05_1556,P16,
stim_fb/ques.jpg,stim_fb/posf.jpg,stim_fb/negf.jpg,stim_03/d.jpg,stim_03/c.jpg,1,2,f,0,50,50,28,f,1,1.26635726649,03,02,60.0189568224,PLT_learning_3,B,2014_Mrz_05_1556,P16,
stim_fb/ques.jpg,stim_fb/negf.jpg,stim_fb/posf.jpg,stim_03/e.jpg,stim_03/f.jpg,2,3,j,0,51,51,53,j,1,0.666525770483,03,02,60.0189568224,PLT_learning_3,B,2014_Mrz_05_1556,P16,
stim_fb/ques.jpg,stim_fb/posf.jpg,stim_fb/negf.jpg,stim_03/a.jpg,stim_03/b.jpg,2,1,j,0,52,52,19,j,1,0.899760022857,03,02,60.0189568224,PLT_learning_3,B,2014_Mrz_05_1556,P16,
stim_fb/ques.jpg,stim_fb/negf.jpg,stim_fb/posf.jpg,stim_03/e.jpg,stim_03/f.jpg,2,3,j,0,53,53,55,j,1,0.916405807475,03,02,60.0189568224,PLT_learning_3,B,2014_Mrz_05_1556,P16,
stim_fb/ques.jpg,stim_fb/posf.jpg,stim_fb/negf.jpg,stim_03/d.jpg,stim_03/c.jpg,1,2,f,0,54,54,27,f,1,0.899734522297,03,02,60.0189568224,PLT_learning_3,B,2014_Mrz_05_1556,P16,
stim_fb/ques.jpg,stim_fb/negf.jpg,stim_fb/posf.jpg,stim_03/a.jpg,stim_03/b.jpg,2,1,j,0,55,55,16,j,1,0.883095453418,03,02,60.0189568224,PLT_learning_3,B,2014_Mrz_05_1556,P16,
stim_fb/ques.jpg,stim_fb/negf.jpg,stim_fb/posf.jpg,stim_03/f.jpg,stim_03/e.jpg,1,3,f,0,56,56,43,f,1,0.666502212765,03,02,60.0189568224,PLT_learning_3,B,2014_Mrz_05_1556,P16,
stim_fb/ques.jpg,stim_fb/negf.jpg,stim_fb/posf.jpg,stim_03/a.jpg,stim_03/b.jpg,2,1,j,0,57,57,15,j,1,0.833110677363,03,02,60.0189568224,PLT_learning_3,B,2014_Mrz_05_1556,P16,
stim_fb/ques.jpg,stim_fb/posf.jpg,stim_fb/negf.jpg,stim_03/e.jpg,stim_03/f.jpg,2,3,j,0,58,58,56,j,1,0.783093032383,03,02,60.0189568224,PLT_learning_3,B,2014_Mrz_05_1556,P16,
stim_fb/ques.jpg,stim_fb/negf.jpg,stim_fb/posf.jpg,stim_03/a.jpg,stim_03/b.jpg,2,1,j,0,59,59,10,j,1,0.916335579432,03,02,60.0189568224,PLT_learning_3,B,2014_Mrz_05_1556,P16,
stim_fb/ques.jpg,stim_fb/posf.jpg,stim_fb/negf.jpg,stim_03/c.jpg,stim_03/d.jpg,2,2,j,1,0,60,39,j,1,0.866437389193,03,02,60.0189568224,PLT_learning_3,B,2014_Mrz_05_1556,P16,
stim_fb/ques.jpg,stim_fb/negf.jpg,stim_fb/posf.jpg,stim_03/a.jpg,stim_03/b.jpg,2,1,j,1,1,61,15,j,1,0.833107044308,03,02,60.0189568224,PLT_learning_3,B,2014_Mrz_05_1556,P16,
stim_fb/ques.jpg,stim_fb/negf.jpg,stim_fb/posf.jpg,stim_03/b.jpg,stim_03/a.jpg,1,1,f,1,2,62,4,f,1,0.883058319862,03,02,60.0189568224,PLT_learning_3,B,2014_Mrz_05_1556,P16,
stim_fb/ques.jpg,stim_fb/negf.jpg,stim_fb/posf.jpg,stim_03/b.jpg,stim_03/a.jpg,1,1,f,1,3,63,7,f,1,0.899721770513,03,02,60.0189568224,PLT_learning_3,B,2014_Mrz_05_1556,P16,
stim_fb/ques.jpg,stim_fb/posf.jpg,stim_fb/negf.jpg,stim_03/c.jpg,stim_03/d.jpg,2,2,j,1,4,64,37,j,1,0.883079937745,03,02,60.0189568224,PLT_learning_3,B,2014_Mrz_05_1556,P16,
stim_fb/ques.jpg,stim_fb/negf.jpg,stim_fb/posf.jpg,stim_03/c.jpg,stim_03/d.jpg,2,2,j,1,5,65,33,f,0,0.749772798701,03,02,60.0189568224,PLT_learning_3,B,2014_Mrz_05_1556,P16,
stim_fb/ques.jpg,stim_fb/negf.jpg,stim_fb/posf.jpg,stim_03/a.jpg,stim_03/b.jpg,2,1,j,1,6,66,10,j,1,0.816425386275,03,02,60.0189568224,PLT_learning_3,B,2014_Mrz_05_1556,P16,
stim_fb/ques.jpg,stim_fb/negf.jpg,stim_fb/posf.jpg,stim_03/c.jpg,stim_03/d.jpg,2,2,j,1,7,67,30,j,1,1.09967373178,03,02,60.0189568224,PLT_learning_3,B,2014_Mrz_05_1556,P16,
stim_fb/ques.jpg,stim_fb/negf.jpg,stim_fb/posf.jpg,stim_03/f.jpg,stim_03/e.jpg,1,3,f,1,8,68,44,f,1,0.81645153044,03,02,60.0189568224,PLT_learning_3,B,2014_Mrz_05_1556,P16,
stim_fb/ques.jpg,stim_fb/negf.jpg,stim_fb/posf.jpg,stim_03/d.jpg,stim_03/c.jpg,1,2,f,1,9,69,20,f,1,1.19965528981,03,02,60.0189568224,PLT_learning_3,B,2014_Mrz_05_1556,P16,
stim_fb/ques.jpg,stim_fb/negf.jpg,stim_fb/posf.jpg,stim_03/a.jpg,stim_03/b.jpg,2,1,j,1,10,70,13,j,1,0.766467385959,03,02,60.0189568224,PLT_learning_3,B,2014_Mrz_05_1556,P16,
stim_fb/ques.jpg,stim_fb/negf.jpg,stim_fb/posf.jpg,stim_03/a.jpg,stim_03/b.jpg,2,1,j,1,11,71,12,j,1,0.966368439335,03,02,60.0189568224,PLT_learning_3,B,2014_Mrz_05_1556,P16,
stim_fb/ques.jpg,stim_fb/negf.jpg,stim_fb/posf.jpg,stim_03/c.jpg,stim_03/d.jpg,2,2,j,1,12,72,31,j,1,0.9997223269,03,02,60.0189568224,PLT_learning_3,B,2014_Mrz_05_1556,P16,
stim_fb/ques.jpg,stim_fb/negf.jpg,stim_fb/posf.jpg,stim_03/e.jpg,stim_03/f.jpg,2,3,j,1,13,73,53,j,1,0.849778004677,03,02,60.0189568224,PLT_learning_3,B,2014_Mrz_05_1556,P16,
stim_fb/ques.jpg,stim_fb/negf.jpg,stim_fb/posf.jpg,stim_03/d.jpg,stim_03/c.jpg,1,2,f,1,14,74,24,f,1,1.1663499282,03,02,60.0189568224,PLT_learning_3,B,2014_Mrz_05_1556,P16,
stim_fb/ques.jpg,stim_fb/negf.jpg,stim_fb/posf.jpg,stim_03/b.jpg,stim_03/a.jpg,1,1,f,1,15,75,0,f,1,0.883087227915,03,02,60.0189568224,PLT_learning_3,B,2014_Mrz_05_1556,P16,
stim_fb/ques.jpg,stim_fb/negf.jpg,stim_fb/posf.jpg,stim_03/f.jpg,stim_03/e.jpg,1,3,f,1,16,76,42,f,1,0.766490489545,03,02,60.0189568224,PLT_learning_3,B,2014_Mrz_05_1556,P16,
stim_fb/ques.jpg,stim_fb/negf.jpg,stim_fb/posf.jpg,stim_03/e.jpg,stim_03/f.jpg,2,3,j,1,17,77,51,j,1,0.916393359448,03,02,60.0189568224,PLT_learning_3,B,2014_Mrz_05_1556,P16,
stim_fb/ques.jpg,stim_fb/posf.jpg,stim_fb/negf.jpg,stim_03/d.jpg,stim_03/c.jpg,1,2,f,1,18,78,29,f,1,0.883094824851,03,02,60.0189568224,PLT_learning_3,B,2014_Mrz_05_1556,P16,
stim_fb/ques.jpg,stim_fb/negf.jpg,stim_fb/posf.jpg,stim_03/b.jpg,stim_03/a.jpg,1,1,f,1,19,79,5,f,1,1.08297305434,03,02,60.0189568224,PLT_learning_3,B,2014_Mrz_05_1556,P16,
stim_fb/ques.jpg,stim_fb/posf.jpg,stim_fb/negf.jpg,stim_03/b.jpg,stim_03/a.jpg,1,1,f,1,20,80,8,f,1,1.48287014684,03,02,60.0189568224,PLT_learning_3,B,2014_Mrz_05_1556,P16,
stim_fb/ques.jpg,stim_fb/negf.jpg,stim_fb/posf.jpg,stim_03/c.jpg,stim_03/d.jpg,2,2,j,1,21,81,36,f,0,1.14968837528,03,02,60.0189568224,PLT_learning_3,B,2014_Mrz_05_1556,P16,
stim_fb/ques.jpg,stim_fb/negf.jpg,stim_fb/posf.jpg,stim_03/e.jpg,stim_03/f.jpg,2,3,j,1,22,82,52,j,1,1.16633256291,03,02,60.0189568224,PLT_learning_3,B,2014_Mrz_05_1556,P16,
stim_fb/ques.jpg,stim_fb/negf.jpg,stim_fb/posf.jpg,stim_03/d.jpg,stim_03/c.jpg,1,2,f,1,23,83,21,f,1,1.59958295652,03,02,60.0189568224,PLT_learning_3,B,2014_Mrz_05_1556,P16,
stim_fb/ques.jpg,stim_fb/negf.jpg,stim_fb/posf.jpg,stim_03/a.jpg,stim_03/b.jpg,2,1,j,1,24,84,16,j,1,0.933062485245,03,02,60.0189568224,PLT_learning_3,B,2014_Mrz_05_1556,P16,
stim_fb/ques.jpg,stim_fb/negf.jpg,stim_fb/posf.jpg,stim_03/c.jpg,stim_03/d.jpg,2,2,j,1,25,85,32,j,1,0.766484318163,03,02,60.0189568224,PLT_learning_3,B,2014_Mrz_05_1556,P16,
stim_fb/ques.jpg,stim_fb/negf.jpg,stim_fb/posf.jpg,stim_03/b.jpg,stim_03/a.jpg,1,1,f,1,26,86,1,f,1,0.866453984557,03,02,60.0189568224,PLT_learning_3,B,2014_Mrz_05_1556,P16,
stim_fb/ques.jpg,stim_fb/posf.jpg,stim_fb/negf.jpg,stim_03/b.jpg,stim_03/a.jpg,1,1,f,1,27,87,9,f,1,1.06635977173,03,02,60.0189568224,PLT_learning_3,B,2014_Mrz_05_1556,P16,
stim_fb/ques.jpg,stim_fb/posf.jpg,stim_fb/negf.jpg,stim_03/a.jpg,stim_03/b.jpg,2,1,j,1,28,88,19,f,0,1.29962890805,03,02,60.0189568224,PLT_learning_3,B,2014_Mrz_05_1556,P16,
stim_fb/ques.jpg,stim_fb/posf.jpg,stim_fb/negf.jpg,stim_03/d.jpg,stim_03/c.jpg,1,2,f,1,29,89,27,f,1,1.13302082841,03,02,60.0189568224,PLT_learning_3,B,2014_Mrz_05_1556,P16,
stim_fb/ques.jpg,stim_fb/negf.jpg,stim_fb/posf.jpg,stim_03/b.jpg,stim_03/a.jpg,1,1,f,1,30,90,3,j,0,0.966390345937,03,02,60.0189568224,PLT_learning_3,B,2014_Mrz_05_1556,P16,
stim_fb/ques.jpg,stim_fb/negf.jpg,stim_fb/posf.jpg,stim_03/d.jpg,stim_03/c.jpg,1,2,f,1,31,91,25,f,1,0.916377049797,03,02,60.0189568224,PLT_learning_3,B,2014_Mrz_05_1556,P16,
stim_fb/ques.jpg,stim_fb/negf.jpg,stim_fb/posf.jpg,stim_03/e.jpg,stim_03/f.jpg,2,3,j,1,32,92,55,j,1,0.783165323569,03,02,60.0189568224,PLT_learning_3,B,2014_Mrz_05_1556,P16,
stim_fb/ques.jpg,stim_fb/negf.jpg,stim_fb/posf.jpg,stim_03/a.jpg,stim_03/b.jpg,2,1,j,1,33,93,11,j,1,0.94971800212,03,02,60.0189568224,PLT_learning_3,B,2014_Mrz_05_1556,P16,
stim_fb/ques.jpg,stim_fb/negf.jpg,stim_fb/posf.jpg,stim_03/e.jpg,stim_03/f.jpg,2,3,j,1,34,94,50,j,1,0.766458820611,03,02,60.0189568224,PLT_learning_3,B,2014_Mrz_05_1556,P16,
stim_fb/ques.jpg,stim_fb/negf.jpg,stim_fb/posf.jpg,stim_03/c.jpg,stim_03/d.jpg,2,2,j,1,35,95,35,j,1,0.83308340238,03,02,60.0189568224,PLT_learning_3,B,2014_Mrz_05_1556,P16,
stim_fb/ques.jpg,stim_fb/negf.jpg,stim_fb/posf.jpg,stim_03/a.jpg,stim_03/b.jpg,2,1,j,1,36,96,14,j,1,1.1496763874,03,02,60.0189568224,PLT_learning_3,B,2014_Mrz_05_1556,P16,
stim_fb/ques.jpg,stim_fb/posf.jpg,stim_fb/negf.jpg,stim_03/d.jpg,stim_03/c.jpg,1,2,f,1,37,97,28,f,1,1.04965803866,03,02,60.0189568224,PLT_learning_3,B,2014_Mrz_05_1556,P16,
stim_fb/ques.jpg,stim_fb/posf.jpg,stim_fb/negf.jpg,stim_03/e.jpg,stim_03/f.jpg,2,3,j,1,38,98,59,j,1,0.966408300689,03,02,60.0189568224,PLT_learning_3,B,2014_Mrz_05_1556,P16,
stim_fb/ques.jpg,stim_fb/posf.jpg,stim_fb/negf.jpg,stim_03/e.jpg,stim_03/f.jpg,2,3,j,1,39,99,58,j,1,0.816423990797,03,02,60.0189568224,PLT_learning_3,B,2014_Mrz_05_1556,P16,
stim_fb/ques.jpg,stim_fb/posf.jpg,stim_fb/negf.jpg,stim_03/e.jpg,stim_03/f.jpg,2,3,j,1,40,100,56,f,0,1.04968928655,03,02,60.0189568224,PLT_learning_3,B,2014_Mrz_05_1556,P16,
stim_fb/ques.jpg,stim_fb/negf.jpg,stim_fb/posf.jpg,stim_03/f.jpg,stim_03/e.jpg,1,3,f,1,41,101,45,f,1,0.983087736182,03,02,60.0189568224,PLT_learning_3,B,2014_Mrz_05_1556,P16,
stim_fb/ques.jpg,stim_fb/negf.jpg,stim_fb/posf.jpg,stim_03/b.jpg,stim_03/a.jpg,1,1,f,1,42,102,2,f,1,1.34967192427,03,02,60.0189568224,PLT_learning_3,B,2014_Mrz_05_1556,P16,
stim_fb/ques.jpg,stim_fb/negf.jpg,stim_fb/posf.jpg,stim_03/b.jpg,stim_03/a.jpg,1,1,f,1,43,103,6,f,1,0.649834795227,03,02,60.0189568224,PLT_learning_3,B,2014_Mrz_05_1556,P16,
stim_fb/ques.jpg,stim_fb/posf.jpg,stim_fb/negf.jpg,stim_03/a.jpg,stim_03/b.jpg,2,1,j,1,44,104,18,j,1,0.8830958474,03,02,60.0189568224,PLT_learning_3,B,2014_Mrz_05_1556,P16,
stim_fb/ques.jpg,stim_fb/negf.jpg,stim_fb/posf.jpg,stim_03/f.jpg,stim_03/e.jpg,1,3,f,1,45,105,41,f,1,0.866435028308,03,02,60.0189568224,PLT_learning_3,B,2014_Mrz_05_1556,P16,
stim_fb/ques.jpg,stim_fb/posf.jpg,stim_fb/negf.jpg,stim_03/f.jpg,stim_03/e.jpg,1,3,f,1,46,106,48,f,1,0.749812708175,03,02,60.0189568224,PLT_learning_3,B,2014_Mrz_05_1556,P16,
stim_fb/ques.jpg,stim_fb/posf.jpg,stim_fb/negf.jpg,stim_03/f.jpg,stim_03/e.jpg,1,3,f,1,47,107,49,f,1,1.31628833467,03,02,60.0189568224,PLT_learning_3,B,2014_Mrz_05_1556,P16,
stim_fb/ques.jpg,stim_fb/negf.jpg,stim_fb/posf.jpg,stim_03/d.jpg,stim_03/c.jpg,1,2,f,1,48,108,26,f,1,1.28295827249,03,02,60.0189568224,PLT_learning_3,B,2014_Mrz_05_1556,P16,
stim_fb/ques.jpg,stim_fb/negf.jpg,stim_fb/posf.jpg,stim_03/a.jpg,stim_03/b.jpg,2,1,j,1,49,109,17,j,1,0.933074112225,03,02,60.0189568224,PLT_learning_3,B,2014_Mrz_05_1556,P16,
stim_fb/ques.jpg,stim_fb/posf.jpg,stim_fb/negf.jpg,stim_03/e.jpg,stim_03/f.jpg,2,3,j,1,50,110,57,j,1,0.883125895294,03,02,60.0189568224,PLT_learning_3,B,2014_Mrz_05_1556,P16,
stim_fb/ques.jpg,stim_fb/posf.jpg,stim_fb/negf.jpg,stim_03/f.jpg,stim_03/e.jpg,1,3,f,1,51,111,46,j,0,0.833063778467,03,02,60.0189568224,PLT_learning_3,B,2014_Mrz_05_1556,P16,
stim_fb/ques.jpg,stim_fb/posf.jpg,stim_fb/negf.jpg,stim_03/f.jpg,stim_03/e.jpg,1,3,f,1,52,112,47,j,0,0.899780371576,03,02,60.0189568224,PLT_learning_3,B,2014_Mrz_05_1556,P16,
stim_fb/ques.jpg,stim_fb/negf.jpg,stim_fb/posf.jpg,stim_03/d.jpg,stim_03/c.jpg,1,2,f,1,53,113,22,f,1,0.883068037082,03,02,60.0189568224,PLT_learning_3,B,2014_Mrz_05_1556,P16,
stim_fb/ques.jpg,stim_fb/negf.jpg,stim_fb/posf.jpg,stim_03/c.jpg,stim_03/d.jpg,2,2,j,1,54,114,34,j,1,0.883085712137,03,02,60.0189568224,PLT_learning_3,B,2014_Mrz_05_1556,P16,
stim_fb/ques.jpg,stim_fb/negf.jpg,stim_fb/posf.jpg,stim_03/f.jpg,stim_03/e.jpg,1,3,f,1,55,115,40,f,1,1.59960558492,03,02,60.0189568224,PLT_learning_3,B,2014_Mrz_05_1556,P16,
stim_fb/ques.jpg,stim_fb/negf.jpg,stim_fb/posf.jpg,stim_03/d.jpg,stim_03/c.jpg,1,2,f,1,56,116,23,f,1,0.783127862197,03,02,60.0189568224,PLT_learning_3,B,2014_Mrz_05_1556,P16,
stim_fb/ques.jpg,stim_fb/posf.jpg,stim_fb/negf.jpg,stim_03/c.jpg,stim_03/d.jpg,2,2,j,1,57,117,38,j,1,0.78313483658,03,02,60.0189568224,PLT_learning_3,B,2014_Mrz_05_1556,P16,
stim_fb/ques.jpg,stim_fb/negf.jpg,stim_fb/posf.jpg,stim_03/f.jpg,stim_03/e.jpg,1,3,f,1,58,118,43,j,0,1.41626348674,03,02,60.0189568224,PLT_learning_3,B,2014_Mrz_05_1556,P16,
stim_fb/ques.jpg,stim_fb/negf.jpg,stim_fb/posf.jpg,stim_03/e.jpg,stim_03/f.jpg,2,3,j,1,59,119,54,j,1,0.883121290818,03,02,60.0189568224,PLT_learning_3,B,2014_Mrz_05_1556,P16,
stim_fb/ques.jpg,stim_fb/posf.jpg,stim_fb/negf.jpg,stim_03/e.jpg,stim_03/f.jpg,2,3,j,2,0,120,58,j,1,0.799788028661,03,02,60.0189568224,PLT_learning_3,B,2014_Mrz_05_1556,P16,
stim_fb/ques.jpg,stim_fb/posf.jpg,stim_fb/negf.jpg,stim_03/e.jpg,stim_03/f.jpg,2,3,j,2,1,121,59,f,0,0.783092331637,03,02,60.0189568224,PLT_learning_3,B,2014_Mrz_05_1556,P16,
stim_fb/ques.jpg,stim_fb/negf.jpg,stim_fb/posf.jpg,stim_03/b.jpg,stim_03/a.jpg,1,1,f,2,2,122,0,f,1,0.816465584469,03,02,60.0189568224,PLT_learning_3,B,2014_Mrz_05_1556,P16,
stim_fb/ques.jpg,stim_fb/negf.jpg,stim_fb/posf.jpg,stim_03/b.jpg,stim_03/a.jpg,1,1,f,2,3,123,1,f,1,0.716449737972,03,02,60.0189568224,PLT_learning_3,B,2014_Mrz_05_1556,P16,
stim_fb/ques.jpg,stim_fb/negf.jpg,stim_fb/posf.jpg,stim_03/f.jpg,stim_03/e.jpg,1,3,f,2,4,124,43,f,1,1.29964055308,03,02,60.0189568224,PLT_learning_3,B,2014_Mrz_05_1556,P16,
stim_fb/ques.jpg,stim_fb/negf.jpg,stim_fb/posf.jpg,stim_03/b.jpg,stim_03/a.jpg,1,1,f,2,5,125,6,f,1,0.666463819069,03,02,60.0189568224,PLT_learning_3,B,2014_Mrz_05_1556,P16,
stim_fb/ques.jpg,stim_fb/negf.jpg,stim_fb/posf.jpg,stim_03/c.jpg,stim_03/d.jpg,2,2,j,2,6,126,33,j,1,0.816455124398,03,02,60.0189568224,PLT_learning_3,B,2014_Mrz_05_1556,P16,
stim_fb/ques.jpg,stim_fb/posf.jpg,stim_fb/negf.jpg,stim_03/e.jpg,stim_03/f.jpg,2,3,j,2,7,127,56,f,0,0.916410845031,03,02,60.0189568224,PLT_learning_3,B,2014_Mrz_05_1556,P16,
stim_fb/ques.jpg,stim_fb/posf.jpg,stim_fb/negf.jpg,stim_03/d.jpg,stim_03/c.jpg,1,2,f,2,8,128,28,f,1,1.11631099917,03,02,60.0189568224,PLT_learning_3,B,2014_Mrz_05_1556,P16,
stim_fb/ques.jpg,stim_fb/negf.jpg,stim_fb/posf.jpg,stim_03/e.jpg,stim_03/f.jpg,2,3,j,2,9,129,53,j,1,0.899753307118,03,02,60.0189568224,PLT_learning_3,B,2014_Mrz_05_1556,P16,
stim_fb/ques.jpg,stim_fb/negf.jpg,stim_fb/posf.jpg,stim_03/b.jpg,stim_03/a.jpg,1,1,f,2,10,130,4,f,1,0.799953744709,03,02,60.0189568224,PLT_learning_3,B,2014_Mrz_05_1556,P16,
stim_fb/ques.jpg,stim_fb/posf.jpg,stim_fb/negf.jpg,stim_03/f.jpg,stim_03/e.jpg,1,3,f,2,11,131,47,f,1,0.699813649521,03,02,60.0189568224,PLT_learning_3,B,2014_Mrz_05_1556,P16,
stim_fb/ques.jpg,stim_fb/negf.jpg,stim_fb/posf.jpg,stim_03/d.jpg,stim_03/c.jpg,1,2,f,2,12,132,20,f,1,0.933090677514,03,02,60.0189568224,PLT_learning_3,B,2014_Mrz_05_1556,P16,
stim_fb/ques.jpg,stim_fb/negf.jpg,stim_fb/posf.jpg,stim_03/f.jpg,stim_03/e.jpg,1,3,f,2,13,133,41,j,0,1.16634259291,03,02,60.0189568224,PLT_learning_3,B,2014_Mrz_05_1556,P16,
stim_fb/ques.jpg,stim_fb/posf.jpg,stim_fb/negf.jpg,stim_03/d.jpg,stim_03/c.jpg,1,2,f,2,14,134,27,f,1,0.799783469297,03,02,60.0189568224,PLT_learning_3,B,2014_Mrz_05_1556,P16,
stim_fb/ques.jpg,stim_fb/negf.jpg,stim_fb/posf.jpg,stim_03/a.jpg,stim_03/b.jpg,2,1,j,2,15,135,14,j,1,0.916407852573,03,02,60.0189568224,PLT_learning_3,B,2014_Mrz_05_1556,P16,
stim_fb/ques.jpg,stim_fb/posf.jpg,stim_fb/negf.jpg,stim_03/a.jpg,stim_03/b.jpg,2,1,j,2,16,136,19,j,1,0.933082785844,03,02,60.0189568224,PLT_learning_3,B,2014_Mrz_05_1556,P16,
stim_fb/ques.jpg,stim_fb/negf.jpg,stim_fb/posf.jpg,stim_03/e.jpg,stim_03/f.jpg,2,3,j,2,17,137,52,j,1,1.18306059353,03,02,60.0189568224,PLT_learning_3,B,2014_Mrz_05_1556,P16,
stim_fb/ques.jpg,stim_fb/posf.jpg,stim_fb/negf.jpg,stim_03/f.jpg,stim_03/e.jpg,1,3,f,2,18,138,46,f,1,1.11635557327,03,02,60.0189568224,PLT_learning_3,B,2014_Mrz_05_1556,P16,
stim_fb/ques.jpg,stim_fb/negf.jpg,stim_fb/posf.jpg,stim_03/c.jpg,stim_03/d.jpg,2,2,j,2,19,139,35,j,1,0.983073107721,03,02,60.0189568224,PLT_learning_3,B,2014_Mrz_05_1556,P16,
stim_fb/ques.jpg,stim_fb/posf.jpg,stim_fb/negf.jpg,stim_03/c.jpg,stim_03/d.jpg,2,2,j,2,20,140,37,j,1,1.39957378666,03,02,60.0189568224,PLT_learning_3,B,2014_Mrz_05_1556,P16,
stim_fb/ques.jpg,stim_fb/posf.jpg,stim_fb/negf.jpg,stim_03/d.jpg,stim_03/c.jpg,1,2,f,2,21,141,29,f,1,0.633181146006,03,02,60.0189568224,PLT_learning_3,B,2014_Mrz_05_1556,P16,
stim_fb/ques.jpg,stim_fb/negf.jpg,stim_fb/posf.jpg,stim_03/b.jpg,stim_03/a.jpg,1,1,f,2,22,142,7,f,1,0.8830565695,03,02,60.0189568224,PLT_learning_3,B,2014_Mrz_05_1556,P16,
stim_fb/ques.jpg,stim_fb/negf.jpg,stim_fb/posf.jpg,stim_03/a.jpg,stim_03/b.jpg,2,1,j,2,23,143,10,j,1,0.86644291697,03,02,60.0189568224,PLT_learning_3,B,2014_Mrz_05_1556,P16,
stim_fb/ques.jpg,stim_fb/posf.jpg,stim_fb/negf.jpg,stim_03/c.jpg,stim_03/d.jpg,2,2,j,2,24,144,38,f,0,0.799779463312,03,02,60.0189568224,PLT_learning_3,B,2014_Mrz_05_1556,P16,
stim_fb/ques.jpg,stim_fb/negf.jpg,stim_fb/posf.jpg,stim_03/d.jpg,stim_03/c.jpg,1,2,f,2,25,145,24,f,1,1.64945571236,03,02,60.0189568224,PLT_learning_3,B,2014_Mrz_05_1556,P16,
stim_fb/ques.jpg,stim_fb/negf.jpg,stim_fb/posf.jpg,stim_03/a.jpg,stim_03/b.jpg,2,1,j,2,26,146,16,j,1,1.24963193059,03,02,60.0189568224,PLT_learning_3,B,2014_Mrz_05_1556,P16,
stim_fb/ques.jpg,stim_fb/negf.jpg,stim_fb/posf.jpg,stim_03/e.jpg,stim_03/f.jpg,2,3,j,2,27,147,50,j,1,1.24964543424,03,02,60.0189568224,PLT_learning_3,B,2014_Mrz_05_1556,P16,
stim_fb/ques.jpg,stim_fb/negf.jpg,stim_fb/posf.jpg,stim_03/b.jpg,stim_03/a.jpg,1,1,f,2,28,148,2,f,1,1.61615746949,03,02,60.0189568224,PLT_learning_3,B,2014_Mrz_05_1556,P16,
stim_fb/ques.jpg,stim_fb/negf.jpg,stim_fb/posf.jpg,stim_03/d.jpg,stim_03/c.jpg,1,2,f,2,29,149,25,f,1,1.36626848219,03,02,60.0189568224,PLT_learning_3,B,2014_Mrz_05_1556,P16,
stim_fb/ques.jpg,stim_fb/posf.jpg,stim_fb/negf.jpg,stim_03/b.jpg,stim_03/a.jpg,1,1,f,2,30,150,9,f,1,0.866416384839,03,02,60.0189568224,PLT_learning_3,B,2014_Mrz_05_1556,P16,
stim_fb/ques.jpg,stim_fb/posf.jpg,stim_fb/negf.jpg,stim_03/a.jpg,stim_03/b.jpg,2,1,j,2,31,151,18,f,0,1.64953910422,03,02,60.0189568224,PLT_learning_3,B,2014_Mrz_05_1556,P16,
stim_fb/ques.jpg,stim_fb/negf.jpg,stim_fb/posf.jpg,stim_03/b.jpg,stim_03/a.jpg,1,1,f,2,32,152,3,None,0,,03,02,60.0189568224,PLT_learning_3,B,2014_Mrz_05_1556,P16,
stim_fb/ques.jpg,stim_fb/negf.jpg,stim_fb/posf.jpg,stim_03/b.jpg,stim_03/a.jpg,1,1,f,2,33,153,5,f,1,0.64982252765,03,02,60.0189568224,PLT_learning_3,B,2014_Mrz_05_1556,P16,
stim_fb/ques.jpg,stim_fb/negf.jpg,stim_fb/posf.jpg,stim_03/d.jpg,stim_03/c.jpg,1,2,f,2,34,154,22,f,1,1.06629930301,03,02,60.0189568224,PLT_learning_3,B,2014_Mrz_05_1556,P16,
stim_fb/ques.jpg,stim_fb/posf.jpg,stim_fb/negf.jpg,stim_03/e.jpg,stim_03/f.jpg,2,3,j,2,35,155,57,j,1,0.966399157901,03,02,60.0189568224,PLT_learning_3,B,2014_Mrz_05_1556,P16,
stim_fb/ques.jpg,stim_fb/negf.jpg,stim_fb/posf.jpg,stim_03/e.jpg,stim_03/f.jpg,2,3,j,2,36,156,54,f,0,0.716488895572,03,02,60.0189568224,PLT_learning_3,B,2014_Mrz_05_1556,P16,
stim_fb/ques.jpg,stim_fb/negf.jpg,stim_fb/posf.jpg,stim_03/e.jpg,stim_03/f.jpg,2,3,j,2,37,157,55,j,1,0.933121883294,03,02,60.0189568224,PLT_learning_3,B,2014_Mrz_05_1556,P16,
stim_fb/ques.jpg,stim_fb/negf.jpg,stim_fb/posf.jpg,stim_03/f.jpg,stim_03/e.jpg,1,3,f,2,38,158,40,f,1,1.63287128969,03,02,60.0189568224,PLT_learning_3,B,2014_Mrz_05_1556,P16,
stim_fb/ques.jpg,stim_fb/negf.jpg,stim_fb/posf.jpg,stim_03/e.jpg,stim_03/f.jpg,2,3,j,2,39,159,51,j,1,0.583204842069,03,02,60.0189568224,PLT_learning_3,B,2014_Mrz_05_1556,P16,
stim_fb/ques.jpg,stim_fb/negf.jpg,stim_fb/posf.jpg,stim_03/d.jpg,stim_03/c.jpg,1,2,f,2,40,160,21,f,1,0.7498245938,03,02,60.0189568224,PLT_learning_3,B,2014_Mrz_05_1556,P16,
stim_fb/ques.jpg,stim_fb/negf.jpg,stim_fb/posf.jpg,stim_03/a.jpg,stim_03/b.jpg,2,1,j,2,41,161,15,j,1,1.34955880031,03,02,60.0189568224,PLT_learning_3,B,2014_Mrz_05_1556,P16,
stim_fb/ques.jpg,stim_fb/negf.jpg,stim_fb/posf.jpg,stim_03/c.jpg,stim_03/d.jpg,2,2,j,2,42,162,34,j,1,0.949732835091,03,02,60.0189568224,PLT_learning_3,B,2014_Mrz_05_1556,P16,
stim_fb/ques.jpg,stim_fb/negf.jpg,stim_fb/posf.jpg,stim_03/a.jpg,stim_03/b.jpg,2,1,j,2,43,163,17,j,1,0.833141729761,03,02,60.0189568224,PLT_learning_3,B,2014_Mrz_05_1556,P16,
stim_fb/ques.jpg,stim_fb/posf.jpg,stim_fb/negf.jpg,stim_03/b.jpg,stim_03/a.jpg,1,1,f,2,44,164,8,f,1,0.966337826032,03,02,60.0189568224,PLT_learning_3,B,2014_Mrz_05_1556,P16,
stim_fb/ques.jpg,stim_fb/negf.jpg,stim_fb/posf.jpg,stim_03/a.jpg,stim_03/b.jpg,2,1,j,2,45,165,13,f,0,0.549827246412,03,02,60.0189568224,PLT_learning_3,B,2014_Mrz_05_1556,P16,
stim_fb/ques.jpg,stim_fb/negf.jpg,stim_fb/posf.jpg,stim_03/a.jpg,stim_03/b.jpg,2,1,j,2,46,166,11,j,1,0.64982280434,03,02,60.0189568224,PLT_learning_3,B,2014_Mrz_05_1556,P16,
stim_fb/ques.jpg,stim_fb/negf.jpg,stim_fb/posf.jpg,stim_03/f.jpg,stim_03/e.jpg,1,3,f,2,47,167,44,f,1,0.699820130676,03,02,60.0189568224,PLT_learning_3,B,2014_Mrz_05_1556,P16,
stim_fb/ques.jpg,stim_fb/posf.jpg,stim_fb/negf.jpg,stim_03/f.jpg,stim_03/e.jpg,1,3,f,2,48,168,48,f,1,0.749789150458,03,02,60.0189568224,PLT_learning_3,B,2014_Mrz_05_1556,P16,
stim_fb/ques.jpg,stim_fb/negf.jpg,stim_fb/posf.jpg,stim_03/d.jpg,stim_03/c.jpg,1,2,f,2,49,169,26,f,1,1.13296047097,03,02,60.0189568224,PLT_learning_3,B,2014_Mrz_05_1556,P16,
stim_fb/ques.jpg,stim_fb/negf.jpg,stim_fb/posf.jpg,stim_03/f.jpg,stim_03/e.jpg,1,3,f,2,50,170,45,j,0,1.04970986384,03,02,60.0189568224,PLT_learning_3,B,2014_Mrz_05_1556,P16,
stim_fb/ques.jpg,stim_fb/negf.jpg,stim_fb/posf.jpg,stim_03/a.jpg,stim_03/b.jpg,2,1,j,2,51,171,12,j,1,1.1829823084,03,02,60.0189568224,PLT_learning_3,B,2014_Mrz_05_1556,P16,
stim_fb/ques.jpg,stim_fb/negf.jpg,stim_fb/posf.jpg,stim_03/d.jpg,stim_03/c.jpg,1,2,f,2,52,172,23,f,1,0.916439960602,03,02,60.0189568224,PLT_learning_3,B,2014_Mrz_05_1556,P16,
stim_fb/ques.jpg,stim_fb/negf.jpg,stim_fb/posf.jpg,stim_03/c.jpg,stim_03/d.jpg,2,2,j,2,53,173,31,j,1,0.79979936993,03,02,60.0189568224,PLT_learning_3,B,2014_Mrz_05_1556,P16,
stim_fb/ques.jpg,stim_fb/negf.jpg,stim_fb/posf.jpg,stim_03/c.jpg,stim_03/d.jpg,2,2,j,2,54,174,36,j,1,0.716455515372,03,02,60.0189568224,PLT_learning_3,B,2014_Mrz_05_1556,P16,
stim_fb/ques.jpg,stim_fb/negf.jpg,stim_fb/posf.jpg,stim_03/c.jpg,stim_03/d.jpg,2,2,j,2,55,175,32,j,1,0.566528191518,03,02,60.0189568224,PLT_learning_3,B,2014_Mrz_05_1556,P16,
stim_fb/ques.jpg,stim_fb/posf.jpg,stim_fb/negf.jpg,stim_03/c.jpg,stim_03/d.jpg,2,2,j,2,56,176,39,j,1,0.516567412275,03,02,60.0189568224,PLT_learning_3,B,2014_Mrz_05_1556,P16,
stim_fb/ques.jpg,stim_fb/negf.jpg,stim_fb/posf.jpg,stim_03/f.jpg,stim_03/e.jpg,1,3,f,2,57,177,42,None,0,,03,02,60.0189568224,PLT_learning_3,B,2014_Mrz_05_1556,P16,
stim_fb/ques.jpg,stim_fb/posf.jpg,stim_fb/negf.jpg,stim_03/f.jpg,stim_03/e.jpg,1,3,f,2,58,178,49,f,1,0.733134499741,03,02,60.0189568224,PLT_learning_3,B,2014_Mrz_05_1556,P16,
stim_fb/ques.jpg,stim_fb/negf.jpg,stim_fb/posf.jpg,stim_03/c.jpg,stim_03/d.jpg,2,2,j,2,59,179,30,j,1,0.799781015181,03,02,60.0189568224,PLT_learning_3,B,2014_Mrz_05_1556,P16,
stim_fb/ques.jpg,stim_fb/posf.jpg,stim_fb/negf.jpg,stim_03/c.jpg,stim_03/d.jpg,2,2,j,3,0,180,38,j,1,0.766457205585,03,02,60.0189568224,PLT_learning_3,B,2014_Mrz_05_1556,P16,
stim_fb/ques.jpg,stim_fb/negf.jpg,stim_fb/posf.jpg,stim_03/d.jpg,stim_03/c.jpg,1,2,f,3,1,181,20,j,0,1.23294581845,03,02,60.0189568224,PLT_learning_3,B,2014_Mrz_05_1556,P16,
stim_fb/ques.jpg,stim_fb/negf.jpg,stim_fb/posf.jpg,stim_03/c.jpg,stim_03/d.jpg,2,2,j,3,2,182,34,j,1,0.549989139931,03,02,60.0189568224,PLT_learning_3,B,2014_Mrz_05_1556,P16,
stim_fb/ques.jpg,stim_fb/negf.jpg,stim_fb/posf.jpg,stim_03/b.jpg,stim_03/a.jpg,1,1,f,3,3,183,5,f,1,0.849789342938,03,02,60.0189568224,PLT_learning_3,B,2014_Mrz_05_1556,P16,
stim_fb/ques.jpg,stim_fb/posf.jpg,stim_fb/negf.jpg,stim_03/f.jpg,stim_03/e.jpg,1,3,f,3,4,184,47,f,1,0.816446850776,03,02,60.0189568224,PLT_learning_3,B,2014_Mrz_05_1556,P16,
stim_fb/ques.jpg,stim_fb/negf.jpg,stim_fb/posf.jpg,stim_03/f.jpg,stim_03/e.jpg,1,3,f,3,5,185,44,f,1,0.499884794851,03,02,60.0189568224,PLT_learning_3,B,2014_Mrz_05_1556,P16,
stim_fb/ques.jpg,stim_fb/negf.jpg,stim_fb/posf.jpg,stim_03/f.jpg,stim_03/e.jpg,1,3,f,3,6,186,41,f,1,0.733131179465,03,02,60.0189568224,PLT_learning_3,B,2014_Mrz_05_1556,P16,
stim_fb/ques.jpg,stim_fb/negf.jpg,stim_fb/posf.jpg,stim_03/b.jpg,stim_03/a.jpg,1,1,f,3,7,187,0,f,1,0.866417539718,03,02,60.0189568224,PLT_learning_3,B,2014_Mrz_05_1556,P16,
stim_fb/ques.jpg,stim_fb/posf.jpg,stim_fb/negf.jpg,stim_03/e.jpg,stim_03/f.jpg,2,3,j,3,8,188,57,j,1,0.93306008827,03,02,60.0189568224,PLT_learning_3,B,2014_Mrz_05_1556,P16,
stim_fb/ques.jpg,stim_fb/negf.jpg,stim_fb/posf.jpg,stim_03/d.jpg,stim_03/c.jpg,1,2,f,3,9,189,26,f,1,1.26628025353,03,02,60.0189568224,PLT_learning_3,B,2014_Mrz_05_1556,P16,
stim_fb/ques.jpg,stim_fb/negf.jpg,stim_fb/posf.jpg,stim_03/a.jpg,stim_03/b.jpg,2,1,j,3,10,190,11,j,1,0.883100157142,03,02,60.0189568224,PLT_learning_3,B,2014_Mrz_05_1556,P16,
stim_fb/ques.jpg,stim_fb/negf.jpg,stim_fb/posf.jpg,stim_03/f.jpg,stim_03/e.jpg,1,3,f,3,11,191,42,f,1,0.949723469748,03,02,60.0189568224,PLT_learning_3,B,2014_Mrz_05_1556,P16,
stim_fb/ques.jpg,stim_fb/posf.jpg,stim_fb/negf.jpg,stim_03/f.jpg,stim_03/e.jpg,1,3,f,3,12,192,48,f,1,0.566512838249,03,02,60.0189568224,PLT_learning_3,B,2014_Mrz_05_1556,P16,
stim_fb/ques.jpg,stim_fb/negf.jpg,stim_fb/posf.jpg,stim_03/b.jpg,stim_03/a.jpg,1,1,f,3,13,193,1,f,1,1.19965992436,03,02,60.0189568224,PLT_learning_3,B,2014_Mrz_05_1556,P16,
stim_fb/ques.jpg,stim_fb/posf.jpg,stim_fb/negf.jpg,stim_03/e.jpg,stim_03/f.jpg,2,3,j,3,14,194,58,j,1,1.13299988421,03,02,60.0189568224,PLT_learning_3,B,2014_Mrz_05_1556,P16,
stim_fb/ques.jpg,stim_fb/negf.jpg,stim_fb/posf.jpg,stim_03/f.jpg,stim_03/e.jpg,1,3,f,3,15,195,40,None,0,,03,02,60.0189568224,PLT_learning_3,B,2014_Mrz_05_1556,P16,
stim_fb/ques.jpg,stim_fb/negf.jpg,stim_fb/posf.jpg,stim_03/f.jpg,stim_03/e.jpg,1,3,f,3,16,196,43,f,1,0.549846271832,03,02,60.0189568224,PLT_learning_3,B,2014_Mrz_05_1556,P16,
stim_fb/ques.jpg,stim_fb/negf.jpg,stim_fb/posf.jpg,stim_03/c.jpg,stim_03/d.jpg,2,2,j,3,17,197,35,j,1,0.683106475891,03,02,60.0189568224,PLT_learning_3,B,2014_Mrz_05_1556,P16,
stim_fb/ques.jpg,stim_fb/posf.jpg,stim_fb/negf.jpg,stim_03/a.jpg,stim_03/b.jpg,2,1,j,3,18,198,19,j,1,0.899728011068,03,02,60.0189568224,PLT_learning_3,B,2014_Mrz_05_1556,P16,
stim_fb/ques.jpg,stim_fb/negf.jpg,stim_fb/posf.jpg,stim_03/a.jpg,stim_03/b.jpg,2,1,j,3,19,199,16,f,0,0.549862792009,03,02,60.0189568224,PLT_learning_3,B,2014_Mrz_05_1556,P16,
stim_fb/ques.jpg,stim_fb/negf.jpg,stim_fb/posf.jpg,stim_03/d.jpg,stim_03/c.jpg,1,2,f,3,20,200,23,f,1,0.983052506372,03,02,60.0189568224,PLT_learning_3,B,2014_Mrz_05_1556,P16,
stim_fb/ques.jpg,stim_fb/negf.jpg,stim_fb/posf.jpg,stim_03/a.jpg,stim_03/b.jpg,2,1,j,3,21,201,13,j,1,0.866427909564,03,02,60.0189568224,PLT_learning_3,B,2014_Mrz_05_1556,P16,
stim_fb/ques.jpg,stim_fb/negf.jpg,stim_fb/posf.jpg,stim_03/e.jpg,stim_03/f.jpg,2,3,j,3,22,202,55,j,1,0.916453876287,03,02,60.0189568224,PLT_learning_3,B,2014_Mrz_05_1556,P16,
stim_fb/ques.jpg,stim_fb/negf.jpg,stim_fb/posf.jpg,stim_03/d.jpg,stim_03/c.jpg,1,2,f,3,23,203,25,f,1,0.76645947023,03,02,60.0189568224,PLT_learning_3,B,2014_Mrz_05_1556,P16,
stim_fb/ques.jpg,stim_fb/posf.jpg,stim_fb/negf.jpg,stim_03/d.jpg,stim_03/c.jpg,1,2,f,3,24,204,29,f,1,0.833127705807,03,02,60.0189568224,PLT_learning_3,B,2014_Mrz_05_1556,P16,
stim_fb/ques.jpg,stim_fb/negf.jpg,stim_fb/posf.jpg,stim_03/e.jpg,stim_03/f.jpg,2,3,j,3,25,205,51,j,1,0.699805433042,03,02,60.0189568224,PLT_learning_3,B,2014_Mrz_05_1556,P16,
stim_fb/ques.jpg,stim_fb/negf.jpg,stim_fb/posf.jpg,stim_03/c.jpg,stim_03/d.jpg,2,2,j,3,26,206,30,j,1,0.683147651522,03,02,60.0189568224,PLT_learning_3,B,2014_Mrz_05_1556,P16,
stim_fb/ques.jpg,stim_fb/negf.jpg,stim_fb/posf.jpg,stim_03/c.jpg,stim_03/d.jpg,2,2,j,3,27,207,36,j,1,0.849803123285,03,02,60.0189568224,PLT_learning_3,B,2014_Mrz_05_1556,P16,
stim_fb/ques.jpg,stim_fb/posf.jpg,stim_fb/negf.jpg,stim_03/d.jpg,stim_03/c.jpg,1,2,f,3,28,208,27,f,1,0.916405214999,03,02,60.0189568224,PLT_learning_3,B,2014_Mrz_05_1556,P16,
stim_fb/ques.jpg,stim_fb/negf.jpg,stim_fb/posf.jpg,stim_03/e.jpg,stim_03/f.jpg,2,3,j,3,29,209,50,j,1,0.883070794956,03,02,60.0189568224,PLT_learning_3,B,2014_Mrz_05_1556,P16,
stim_fb/ques.jpg,stim_fb/posf.jpg,stim_fb/negf.jpg,stim_03/f.jpg,stim_03/e.jpg,1,3,f,3,30,210,49,f,1,0.999763980722,03,02,60.0189568224,PLT_learning_3,B,2014_Mrz_05_1556,P16,
stim_fb/ques.jpg,stim_fb/negf.jpg,stim_fb/posf.jpg,stim_03/b.jpg,stim_03/a.jpg,1,1,f,3,31,211,3,f,1,1.08298966775,03,02,60.0189568224,PLT_learning_3,B,2014_Mrz_05_1556,P16,
stim_fb/ques.jpg,stim_fb/posf.jpg,stim_fb/negf.jpg,stim_03/d.jpg,stim_03/c.jpg,1,2,f,3,32,212,28,f,1,0.849845522966,03,02,60.0189568224,PLT_learning_3,B,2014_Mrz_05_1556,P16,
stim_fb/ques.jpg,stim_fb/negf.jpg,stim_fb/posf.jpg,stim_03/a.jpg,stim_03/b.jpg,2,1,j,3,33,213,14,f,0,1.54953028624,03,02,60.0189568224,PLT_learning_3,B,2014_Mrz_05_1556,P16,
stim_fb/ques.jpg,stim_fb/negf.jpg,stim_fb/posf.jpg,stim_03/a.jpg,stim_03/b.jpg,2,1,j,3,34,214,17,j,1,0.983069225043,03,02,60.0189568224,PLT_learning_3,B,2014_Mrz_05_1556,P16,
stim_fb/ques.jpg,stim_fb/negf.jpg,stim_fb/posf.jpg,stim_03/c.jpg,stim_03/d.jpg,2,2,j,3,35,215,32,j,1,0.716518820159,03,02,60.0189568224,PLT_learning_3,B,2014_Mrz_05_1556,P16,
stim_fb/ques.jpg,stim_fb/posf.jpg,stim_fb/negf.jpg,stim_03/e.jpg,stim_03/f.jpg,2,3,j,3,36,216,59,j,1,0.683171846828,03,02,60.0189568224,PLT_learning_3,B,2014_Mrz_05_1556,P16,
stim_fb/ques.jpg,stim_fb/posf.jpg,stim_fb/negf.jpg,stim_03/b.jpg,stim_03/a.jpg,1,1,f,3,37,217,8,f,1,1.11639052037,03,02,60.0189568224,PLT_learning_3,B,2014_Mrz_05_1556,P16,
stim_fb/ques.jpg,stim_fb/negf.jpg,stim_fb/posf.jpg,stim_03/b.jpg,stim_03/a.jpg,1,1,f,3,38,218,4,f,1,1.29961747957,03,02,60.0189568224,PLT_learning_3,B,2014_Mrz_05_1556,P16,
stim_fb/ques.jpg,stim_fb/negf.jpg,stim_fb/posf.jpg,stim_03/f.jpg,stim_03/e.jpg,1,3,f,3,39,219,45,j,0,1.03297112653,03,02,60.0189568224,PLT_learning_3,B,2014_Mrz_05_1556,P16,
stim_fb/ques.jpg,stim_fb/negf.jpg,stim_fb/posf.jpg,stim_03/a.jpg,stim_03/b.jpg,2,1,j,3,40,220,15,j,1,1.09960870971,03,02,60.0189568224,PLT_learning_3,B,2014_Mrz_05_1556,P16,
stim_fb/ques.jpg,stim_fb/posf.jpg,stim_fb/negf.jpg,stim_03/f.jpg,stim_03/e.jpg,1,3,f,3,41,221,46,f,1,1.01641742543,03,02,60.0189568224,PLT_learning_3,B,2014_Mrz_05_1556,P16,
stim_fb/ques.jpg,stim_fb/posf.jpg,stim_fb/negf.jpg,stim_03/c.jpg,stim_03/d.jpg,2,2,j,3,42,222,39,j,1,0.64980467816,03,02,60.0189568224,PLT_learning_3,B,2014_Mrz_05_1556,P16,
stim_fb/ques.jpg,stim_fb/negf.jpg,stim_fb/posf.jpg,stim_03/c.jpg,stim_03/d.jpg,2,2,j,3,43,223,31,j,1,0.966377687386,03,02,60.0189568224,PLT_learning_3,B,2014_Mrz_05_1556,P16,
stim_fb/ques.jpg,stim_fb/negf.jpg,stim_fb/posf.jpg,stim_03/a.jpg,stim_03/b.jpg,2,1,j,3,44,224,10,j,1,1.03298445576,03,02,60.0189568224,PLT_learning_3,B,2014_Mrz_05_1556,P16,
stim_fb/ques.jpg,stim_fb/negf.jpg,stim_fb/posf.jpg,stim_03/d.jpg,stim_03/c.jpg,1,2,f,3,45,225,22,f,1,0.999701644349,03,02,60.0189568224,PLT_learning_3,B,2014_Mrz_05_1556,P16,
stim_fb/ques.jpg,stim_fb/negf.jpg,stim_fb/posf.jpg,stim_03/b.jpg,stim_03/a.jpg,1,1,f,3,46,226,6,f,1,0.916400769919,03,02,60.0189568224,PLT_learning_3,B,2014_Mrz_05_1556,P16,
stim_fb/ques.jpg,stim_fb/posf.jpg,stim_fb/negf.jpg,stim_03/c.jpg,stim_03/d.jpg,2,2,j,3,47,227,37,j,1,0.816443395162,03,02,60.0189568224,PLT_learning_3,B,2014_Mrz_05_1556,P16,
stim_fb/ques.jpg,stim_fb/negf.jpg,stim_fb/posf.jpg,stim_03/d.jpg,stim_03/c.jpg,1,2,f,3,48,228,21,f,1,1.14966561454,03,02,60.0189568224,PLT_learning_3,B,2014_Mrz_05_1556,P16,
stim_fb/ques.jpg,stim_fb/negf.jpg,stim_fb/posf.jpg,stim_03/e.jpg,stim_03/f.jpg,2,3,j,3,49,229,54,f,0,1.36623587492,03,02,60.0189568224,PLT_learning_3,B,2014_Mrz_05_1556,P16,
stim_fb/ques.jpg,stim_fb/posf.jpg,stim_fb/negf.jpg,stim_03/e.jpg,stim_03/f.jpg,2,3,j,3,50,230,56,j,1,1.09967817385,03,02,60.0189568224,PLT_learning_3,B,2014_Mrz_05_1556,P16,
stim_fb/ques.jpg,stim_fb/negf.jpg,stim_fb/posf.jpg,stim_03/d.jpg,stim_03/c.jpg,1,2,f,3,51,231,24,f,1,0.633163771701,03,02,60.0189568224,PLT_learning_3,B,2014_Mrz_05_1556,P16,
stim_fb/ques.jpg,stim_fb/posf.jpg,stim_fb/negf.jpg,stim_03/b.jpg,stim_03/a.jpg,1,1,f,3,52,232,9,f,1,0.799790407591,03,02,60.0189568224,PLT_learning_3,B,2014_Mrz_05_1556,P16,
stim_fb/ques.jpg,stim_fb/posf.jpg,stim_fb/negf.jpg,stim_03/a.jpg,stim_03/b.jpg,2,1,j,3,53,233,18,f,0,1.04971175555,03,02,60.0189568224,PLT_learning_3,B,2014_Mrz_05_1556,P16,
stim_fb/ques.jpg,stim_fb/negf.jpg,stim_fb/posf.jpg,stim_03/e.jpg,stim_03/f.jpg,2,3,j,3,54,234,52,f,0,1.01640180751,03,02,60.0189568224,PLT_learning_3,B,2014_Mrz_05_1556,P16,
stim_fb/ques.jpg,stim_fb/negf.jpg,stim_fb/posf.jpg,stim_03/b.jpg,stim_03/a.jpg,1,1,f,3,55,235,7,f,1,1.13302131563,03,02,60.0189568224,PLT_learning_3,B,2014_Mrz_05_1556,P16,
stim_fb/ques.jpg,stim_fb/negf.jpg,stim_fb/posf.jpg,stim_03/b.jpg,stim_03/a.jpg,1,1,f,3,56,236,2,f,1,1.14965069135,03,02,60.0189568224,PLT_learning_3,B,2014_Mrz_05_1556,P16,
stim_fb/ques.jpg,stim_fb/negf.jpg,stim_fb/posf.jpg,stim_03/c.jpg,stim_03/d.jpg,2,2,j,3,57,237,33,j,1,0.799780597139,03,02,60.0189568224,PLT_learning_3,B,2014_Mrz_05_1556,P16,
stim_fb/ques.jpg,stim_fb/negf.jpg,stim_fb/posf.jpg,stim_03/e.jpg,stim_03/f.jpg,2,3,j,3,58,238,53,j,1,1.08305071992,03,02,60.0189568224,PLT_learning_3,B,2014_Mrz_05_1556,P16,
stim_fb/ques.jpg,stim_fb/negf.jpg,stim_fb/posf.jpg,stim_03/a.jpg,stim_03/b.jpg,2,1,j,3,59,239,12,j,1,0.966342490658,03,02,60.0189568224,PLT_learning_3,B,2014_Mrz_05_1556,P16,
stim_fb/ques.jpg,stim_fb/negf.jpg,stim_fb/posf.jpg,stim_03/f.jpg,stim_03/e.jpg,1,3,f,4,0,240,45,f,1,0.783111182623,03,02,60.0189568224,PLT_learning_3,B,2014_Mrz_05_1556,P16,
stim_fb/ques.jpg,stim_fb/posf.jpg,stim_fb/negf.jpg,stim_03/d.jpg,stim_03/c.jpg,1,2,f,4,1,241,27,j,0,0.633134538838,03,02,60.0189568224,PLT_learning_3,B,2014_Mrz_05_1556,P16,
stim_fb/ques.jpg,stim_fb/negf.jpg,stim_fb/posf.jpg,stim_03/c.jpg,stim_03/d.jpg,2,2,j,4,2,242,30,j,1,0.916419672033,03,02,60.0189568224,PLT_learning_3,B,2014_Mrz_05_1556,P16,
stim_fb/ques.jpg,stim_fb/negf.jpg,stim_fb/posf.jpg,stim_03/b.jpg,stim_03/a.jpg,1,1,f,4,3,243,5,f,1,0.899745388381,03,02,60.0189568224,PLT_learning_3,B,2014_Mrz_05_1556,P16,
stim_fb/ques.jpg,stim_fb/negf.jpg,stim_fb/posf.jpg,stim_03/e.jpg,stim_03/f.jpg,2,3,j,4,4,244,52,f,0,1.06638139563,03,02,60.0189568224,PLT_learning_3,B,2014_Mrz_05_1556,P16,
stim_fb/ques.jpg,stim_fb/negf.jpg,stim_fb/posf.jpg,stim_03/f.jpg,stim_03/e.jpg,1,3,f,4,5,245,40,f,1,1.08300464508,03,02,60.0189568224,PLT_learning_3,B,2014_Mrz_05_1556,P16,
stim_fb/ques.jpg,stim_fb/negf.jpg,stim_fb/posf.jpg,stim_03/b.jpg,stim_03/a.jpg,1,1,f,4,6,246,4,f,1,0.749792410583,03,02,60.0189568224,PLT_learning_3,B,2014_Mrz_05_1556,P16,
stim_fb/ques.jpg,stim_fb/posf.jpg,stim_fb/negf.jpg,stim_03/a.jpg,stim_03/b.jpg,2,1,j,4,7,247,19,j,1,0.79979072037,03,02,60.0189568224,PLT_learning_3,B,2014_Mrz_05_1556,P16,
stim_fb/ques.jpg,stim_fb/negf.jpg,stim_fb/posf.jpg,stim_03/e.jpg,stim_03/f.jpg,2,3,j,4,8,248,54,j,1,0.783124623124,03,02,60.0189568224,PLT_learning_3,B,2014_Mrz_05_1556,P16,
stim_fb/ques.jpg,stim_fb/negf.jpg,stim_fb/posf.jpg,stim_03/f.jpg,stim_03/e.jpg,1,3,f,4,9,249,43,f,1,0.833121362997,03,02,60.0189568224,PLT_learning_3,B,2014_Mrz_05_1556,P16,
stim_fb/ques.jpg,stim_fb/negf.jpg,stim_fb/posf.jpg,stim_03/c.jpg,stim_03/d.jpg,2,2,j,4,10,250,34,j,1,0.716479710679,03,02,60.0189568224,PLT_learning_3,B,2014_Mrz_05_1556,P16,
stim_fb/ques.jpg,stim_fb/negf.jpg,stim_fb/posf.jpg,stim_03/b.jpg,stim_03/a.jpg,1,1,f,4,11,251,0,f,1,0.899785998602,03,02,60.0189568224,PLT_learning_3,B,2014_Mrz_05_1556,P16,
stim_fb/ques.jpg,stim_fb/posf.jpg,stim_fb/negf.jpg,stim_03/e.jpg,stim_03/f.jpg,2,3,j,4,12,252,59,j,1,0.516540447064,03,02,60.0189568224,PLT_learning_3,B,2014_Mrz_05_1556,P16,
stim_fb/ques.jpg,stim_fb/posf.jpg,stim_fb/negf.jpg,stim_03/a.jpg,stim_03/b.jpg,2,1,j,4,13,253,18,j,1,1.23298685574,03,02,60.0189568224,PLT_learning_3,B,2014_Mrz_05_1556,P16,
stim_fb/ques.jpg,stim_fb/negf.jpg,stim_fb/posf.jpg,stim_03/c.jpg,stim_03/d.jpg,2,2,j,4,14,254,32,j,1,1.01630698416,03,02,60.0189568224,PLT_learning_3,B,2014_Mrz_05_1556,P16,
stim_fb/ques.jpg,stim_fb/negf.jpg,stim_fb/posf.jpg,stim_03/c.jpg,stim_03/d.jpg,2,2,j,4,15,255,35,j,1,0.733141272622,03,02,60.0189568224,PLT_learning_3,B,2014_Mrz_05_1556,P16,
stim_fb/ques.jpg,stim_fb/posf.jpg,stim_fb/negf.jpg,stim_03/e.jpg,stim_03/f.jpg,2,3,j,4,16,256,57,f,0,0.93309392561,03,02,60.0189568224,PLT_learning_3,B,2014_Mrz_05_1556,P16,
stim_fb/ques.jpg,stim_fb/negf.jpg,stim_fb/posf.jpg,stim_03/a.jpg,stim_03/b.jpg,2,1,j,4,17,257,14,j,1,1.01638337456,03,02,60.0189568224,PLT_learning_3,B,2014_Mrz_05_1556,P16,
stim_fb/ques.jpg,stim_fb/posf.jpg,stim_fb/negf.jpg,stim_03/b.jpg,stim_03/a.jpg,1,1,f,4,18,258,8,f,1,0.699821123149,03,02,60.0189568224,PLT_learning_3,B,2014_Mrz_05_1556,P16,
stim_fb/ques.jpg,stim_fb/negf.jpg,stim_fb/posf.jpg,stim_03/e.jpg,stim_03/f.jpg,2,3,j,4,19,259,51,f,0,0.849769042338,03,02,60.0189568224,PLT_learning_3,B,2014_Mrz_05_1556,P16,
stim_fb/ques.jpg,stim_fb/negf.jpg,stim_fb/posf.jpg,stim_03/c.jpg,stim_03/d.jpg,2,2,j,4,20,260,31,j,1,0.583193275239,03,02,60.0189568224,PLT_learning_3,B,2014_Mrz_05_1556,P16,
stim_fb/ques.jpg,stim_fb/negf.jpg,stim_fb/posf.jpg,stim_03/a.jpg,stim_03/b.jpg,2,1,j,4,21,261,16,j,1,0.899756272509,03,02,60.0189568224,PLT_learning_3,B,2014_Mrz_05_1556,P16,
stim_fb/ques.jpg,stim_fb/negf.jpg,stim_fb/posf.jpg,stim_03/a.jpg,stim_03/b.jpg,2,1,j,4,22,262,15,j,1,0.766460414583,03,02,60.0189568224,PLT_learning_3,B,2014_Mrz_05_1556,P16,
stim_fb/ques.jpg,stim_fb/posf.jpg,stim_fb/negf.jpg,stim_03/c.jpg,stim_03/d.jpg,2,2,j,4,23,263,39,j,1,0.816399858647,03,02,60.0189568224,PLT_learning_3,B,2014_Mrz_05_1556,P16,
stim_fb/ques.jpg,stim_fb/negf.jpg,stim_fb/posf.jpg,stim_03/b.jpg,stim_03/a.jpg,1,1,f,4,24,264,1,f,1,0.749782747498,03,02,60.0189568224,PLT_learning_3,B,2014_Mrz_05_1556,P16,
stim_fb/ques.jpg,stim_fb/posf.jpg,stim_fb/negf.jpg,stim_03/d.jpg,stim_03/c.jpg,1,2,f,4,25,265,29,f,1,1.31631373599,03,02,60.0189568224,PLT_learning_3,B,2014_Mrz_05_1556,P16,
stim_fb/ques.jpg,stim_fb/negf.jpg,stim_fb/posf.jpg,stim_03/f.jpg,stim_03/e.jpg,1,3,f,4,26,266,44,j,0,1.33293930722,03,02,60.0189568224,PLT_learning_3,B,2014_Mrz_05_1556,P16,
stim_fb/ques.jpg,stim_fb/negf.jpg,stim_fb/posf.jpg,stim_03/d.jpg,stim_03/c.jpg,1,2,f,4,27,267,21,f,1,0.866438583168,03,02,60.0189568224,PLT_learning_3,B,2014_Mrz_05_1556,P16,
stim_fb/ques.jpg,stim_fb/negf.jpg,stim_fb/posf.jpg,stim_03/c.jpg,stim_03/d.jpg,2,2,j,4,28,268,33,j,1,0.716417154758,03,02,60.0189568224,PLT_learning_3,B,2014_Mrz_05_1556,P16,
stim_fb/ques.jpg,stim_fb/negf.jpg,stim_fb/posf.jpg,stim_03/e.jpg,stim_03/f.jpg,2,3,j,4,29,269,55,j,1,0.983043805686,03,02,60.0189568224,PLT_learning_3,B,2014_Mrz_05_1556,P16,
stim_fb/ques.jpg,stim_fb/negf.jpg,stim_fb/posf.jpg,stim_03/a.jpg,stim_03/b.jpg,2,1,j,4,30,270,13,f,0,1.46623405839,03,02,60.0189568224,PLT_learning_3,B,2014_Mrz_05_1556,P16,
stim_fb/ques.jpg,stim_fb/negf.jpg,stim_fb/posf.jpg,stim_03/a.jpg,stim_03/b.jpg,2,1,j,4,31,271,12,j,1,0.866442519981,03,02,60.0189568224,PLT_learning_3,B,2014_Mrz_05_1556,P16,
stim_fb/ques.jpg,stim_fb/negf.jpg,stim_fb/posf.jpg,stim_03/b.jpg,stim_03/a.jpg,1,1,f,4,32,272,3,f,1,1.03303692754,03,02,60.0189568224,PLT_learning_3,B,2014_Mrz_05_1556,P16,
stim_fb/ques.jpg,stim_fb/negf.jpg,stim_fb/posf.jpg,stim_03/a.jpg,stim_03/b.jpg,2,1,j,4,33,273,10,j,1,0.783111850287,03,02,60.0189568224,PLT_learning_3,B,2014_Mrz_05_1556,P16,
stim_fb/ques.jpg,stim_fb/posf.jpg,stim_fb/negf.jpg,stim_03/f.jpg,stim_03/e.jpg,1,3,f,4,34,274,46,f,1,0.883116081834,03,02,60.0189568224,PLT_learning_3,B,2014_Mrz_05_1556,P16,
stim_fb/ques.jpg,stim_fb/negf.jpg,stim_fb/posf.jpg,stim_03/e.jpg,stim_03/f.jpg,2,3,j,4,35,275,50,j,1,0.649702967647,03,02,60.0189568224,PLT_learning_3,B,2014_Mrz_05_1556,P16,
stim_fb/ques.jpg,stim_fb/negf.jpg,stim_fb/posf.jpg,stim_03/a.jpg,stim_03/b.jpg,2,1,j,4,36,276,11,j,1,0.833079661055,03,02,60.0189568224,PLT_learning_3,B,2014_Mrz_05_1556,P16,
stim_fb/ques.jpg,stim_fb/posf.jpg,stim_fb/negf.jpg,stim_03/c.jpg,stim_03/d.jpg,2,2,j,4,37,277,37,j,1,0.649832662912,03,02,60.0189568224,PLT_learning_3,B,2014_Mrz_05_1556,P16,
stim_fb/ques.jpg,stim_fb/negf.jpg,stim_fb/posf.jpg,stim_03/d.jpg,stim_03/c.jpg,1,2,f,4,38,278,24,f,1,0.849766904008,03,02,60.0189568224,PLT_learning_3,B,2014_Mrz_05_1556,P16,
stim_fb/ques.jpg,stim_fb/negf.jpg,stim_fb/posf.jpg,stim_03/d.jpg,stim_03/c.jpg,1,2,f,4,39,279,26,f,1,0.566505533041,03,02,60.0189568224,PLT_learning_3,B,2014_Mrz_05_1556,P16,
stim_fb/ques.jpg,stim_fb/posf.jpg,stim_fb/negf.jpg,stim_03/e.jpg,stim_03/f.jpg,2,3,j,4,40,280,56,j,1,1.18298055203,03,02,60.0189568224,PLT_learning_3,B,2014_Mrz_05_1556,P16,
stim_fb/ques.jpg,stim_fb/posf.jpg,stim_fb/negf.jpg,stim_03/e.jpg,stim_03/f.jpg,2,3,j,4,41,281,58,j,1,0.899733153886,03,02,60.0189568224,PLT_learning_3,B,2014_Mrz_05_1556,P16,
stim_fb/ques.jpg,stim_fb/posf.jpg,stim_fb/negf.jpg,stim_03/b.jpg,stim_03/a.jpg,1,1,f,4,42,282,9,f,1,1.06634717934,03,02,60.0189568224,PLT_learning_3,B,2014_Mrz_05_1556,P16,
stim_fb/ques.jpg,stim_fb/negf.jpg,stim_fb/posf.jpg,stim_03/d.jpg,stim_03/c.jpg,1,2,f,4,43,283,23,f,1,1.01638947677,03,02,60.0189568224,PLT_learning_3,B,2014_Mrz_05_1556,P16,
stim_fb/ques.jpg,stim_fb/negf.jpg,stim_fb/posf.jpg,stim_03/b.jpg,stim_03/a.jpg,1,1,f,4,44,284,7,f,1,1.03303718318,03,02,60.0189568224,PLT_learning_3,B,2014_Mrz_05_1556,P16,
stim_fb/ques.jpg,stim_fb/posf.jpg,stim_fb/negf.jpg,stim_03/f.jpg,stim_03/e.jpg,1,3,f,4,45,285,49,f,1,0.633178646777,03,02,60.0189568224,PLT_learning_3,B,2014_Mrz_05_1556,P16,
stim_fb/ques.jpg,stim_fb/negf.jpg,stim_fb/posf.jpg,stim_03/a.jpg,stim_03/b.jpg,2,1,j,4,46,286,17,j,1,0.833124045684,03,02,60.0189568224,PLT_learning_3,B,2014_Mrz_05_1556,P16,
stim_fb/ques.jpg,stim_fb/negf.jpg,stim_fb/posf.jpg,stim_03/b.jpg,stim_03/a.jpg,1,1,f,4,47,287,2,j,0,1.31628071669,03,02,60.0189568224,PLT_learning_3,B,2014_Mrz_05_1556,P16,
stim_fb/ques.jpg,stim_fb/posf.jpg,stim_fb/negf.jpg,stim_03/f.jpg,stim_03/e.jpg,1,3,f,4,48,288,48,j,0,1.06636131157,03,02,60.0189568224,PLT_learning_3,B,2014_Mrz_05_1556,P16,
stim_fb/ques.jpg,stim_fb/posf.jpg,stim_fb/negf.jpg,stim_03/f.jpg,stim_03/e.jpg,1,3,f,4,49,289,47,f,1,0.849747063556,03,02,60.0189568224,PLT_learning_3,B,2014_Mrz_05_1556,P16,
stim_fb/ques.jpg,stim_fb/negf.jpg,stim_fb/posf.jpg,stim_03/d.jpg,stim_03/c.jpg,1,2,f,4,50,290,20,f,1,0.799778946023,03,02,60.0189568224,PLT_learning_3,B,2014_Mrz_05_1556,P16,
stim_fb/ques.jpg,stim_fb/negf.jpg,stim_fb/posf.jpg,stim_03/c.jpg,stim_03/d.jpg,2,2,j,4,51,291,36,j,1,0.816498321065,03,02,60.0189568224,PLT_learning_3,B,2014_Mrz_05_1556,P16,
stim_fb/ques.jpg,stim_fb/negf.jpg,stim_fb/posf.jpg,stim_03/d.jpg,stim_03/c.jpg,1,2,f,4,52,292,22,f,1,0.683163104037,03,02,60.0189568224,PLT_learning_3,B,2014_Mrz_05_1556,P16,
stim_fb/ques.jpg,stim_fb/negf.jpg,stim_fb/posf.jpg,stim_03/e.jpg,stim_03/f.jpg,2,3,j,4,53,293,53,f,0,1.19963770799,03,02,60.0189568224,PLT_learning_3,B,2014_Mrz_05_1556,P16,
stim_fb/ques.jpg,stim_fb/negf.jpg,stim_fb/posf.jpg,stim_03/d.jpg,stim_03/c.jpg,1,2,f,4,54,294,25,f,1,0.649835751611,03,02,60.0189568224,PLT_learning_3,B,2014_Mrz_05_1556,P16,
stim_fb/ques.jpg,stim_fb/posf.jpg,stim_fb/negf.jpg,stim_03/d.jpg,stim_03/c.jpg,1,2,f,4,55,295,28,f,1,0.61650218269,03,02,60.0189568224,PLT_learning_3,B,2014_Mrz_05_1556,P16,
stim_fb/ques.jpg,stim_fb/posf.jpg,stim_fb/negf.jpg,stim_03/c.jpg,stim_03/d.jpg,2,2,j,4,56,296,38,j,1,0.766463647642,03,02,60.0189568224,PLT_learning_3,B,2014_Mrz_05_1556,P16,
stim_fb/ques.jpg,stim_fb/negf.jpg,stim_fb/posf.jpg,stim_03/f.jpg,stim_03/e.jpg,1,3,f,4,57,297,42,f,1,1.26623758919,03,02,60.0189568224,PLT_learning_3,B,2014_Mrz_05_1556,P16,
stim_fb/ques.jpg,stim_fb/negf.jpg,stim_fb/posf.jpg,stim_03/b.jpg,stim_03/a.jpg,1,1,f,4,58,298,6,f,1,1.09967200547,03,02,60.0189568224,PLT_learning_3,B,2014_Mrz_05_1556,P16,
stim_fb/ques.jpg,stim_fb/negf.jpg,stim_fb/posf.jpg,stim_03/f.jpg,stim_03/e.jpg,1,3,f,4,59,299,41,f,1,0.616563857415,03,02,60.0189568224,PLT_learning_3,B,2014_Mrz_05_1556,P16,
stim_fb/ques.jpg,stim_fb/negf.jpg,stim_fb/posf.jpg,stim_03/a.jpg,stim_03/b.jpg,2,1,j,5,0,300,10,j,1,0.849763081481,03,02,60.0189568224,PLT_learning_3,B,2014_Mrz_05_1556,P16,
stim_fb/ques.jpg,stim_fb/negf.jpg,stim_fb/posf.jpg,stim_03/d.jpg,stim_03/c.jpg,1,2,f,5,1,301,25,f,1,0.799779694889,03,02,60.0189568224,PLT_learning_3,B,2014_Mrz_05_1556,P16,
stim_fb/ques.jpg,stim_fb/posf.jpg,stim_fb/negf.jpg,stim_03/c.jpg,stim_03/d.jpg,2,2,j,5,2,302,38,j,1,0.816441100443,03,02,60.0189568224,PLT_learning_3,B,2014_Mrz_05_1556,P16,
stim_fb/ques.jpg,stim_fb/negf.jpg,stim_fb/posf.jpg,stim_03/d.jpg,stim_03/c.jpg,1,2,f,5,3,303,26,f,1,0.566521614123,03,02,60.0189568224,PLT_learning_3,B,2014_Mrz_05_1556,P16,
stim_fb/ques.jpg,stim_fb/posf.jpg,stim_fb/negf.jpg,stim_03/d.jpg,stim_03/c.jpg,1,2,f,5,4,304,29,f,1,0.516887121149,03,02,60.0189568224,PLT_learning_3,B,2014_Mrz_05_1556,P16,
stim_fb/ques.jpg,stim_fb/negf.jpg,stim_fb/posf.jpg,stim_03/b.jpg,stim_03/a.jpg,1,1,f,5,5,305,6,f,1,0.84972584567,03,02,60.0189568224,PLT_learning_3,B,2014_Mrz_05_1556,P16,
stim_fb/ques.jpg,stim_fb/posf.jpg,stim_fb/negf.jpg,stim_03/a.jpg,stim_03/b.jpg,2,1,j,5,6,306,18,j,1,1.13301145104,03,02,60.0189568224,PLT_learning_3,B,2014_Mrz_05_1556,P16,
stim_fb/ques.jpg,stim_fb/negf.jpg,stim_fb/posf.jpg,stim_03/c.jpg,stim_03/d.jpg,2,2,j,5,7,307,32,j,1,0.733115194623,03,02,60.0189568224,PLT_learning_3,B,2014_Mrz_05_1556,P16,
stim_fb/ques.jpg,stim_fb/negf.jpg,stim_fb/posf.jpg,stim_03/b.jpg,stim_03/a.jpg,1,1,f,5,8,308,7,f,1,1.36623188397,03,02,60.0189568224,PLT_learning_3,B,2014_Mrz_05_1556,P16,
stim_fb/ques.jpg,stim_fb/negf.jpg,stim_fb/posf.jpg,stim_03/d.jpg,stim_03/c.jpg,1,2,f,5,9,309,23,f,1,0.799782494868,03,02,60.0189568224,PLT_learning_3,B,2014_Mrz_05_1556,P16,
stim_fb/ques.jpg,stim_fb/negf.jpg,stim_fb/posf.jpg,stim_03/a.jpg,stim_03/b.jpg,2,1,j,5,10,310,14,j,1,0.933058434147,03,02,60.0189568224,PLT_learning_3,B,2014_Mrz_05_1556,P16,
stim_fb/ques.jpg,stim_fb/negf.jpg,stim_fb/posf.jpg,stim_03/a.jpg,stim_03/b.jpg,2,1,j,5,11,311,11,j,1,0.899762149157,03,02,60.0189568224,PLT_learning_3,B,2014_Mrz_05_1556,P16,
stim_fb/ques.jpg,stim_fb/posf.jpg,stim_fb/negf.jpg,stim_03/e.jpg,stim_03/f.jpg,2,3,j,5,12,312,58,j,1,0.866461157435,03,02,60.0189568224,PLT_learning_3,B,2014_Mrz_05_1556,P16,
stim_fb/ques.jpg,stim_fb/posf.jpg,stim_fb/negf.jpg,stim_03/b.jpg,stim_03/a.jpg,1,1,f,5,13,313,9,f,1,1.59951167585,03,02,60.0189568224,PLT_learning_3,B,2014_Mrz_05_1556,P16,
stim_fb/ques.jpg,stim_fb/negf.jpg,stim_fb/posf.jpg,stim_03/b.jpg,stim_03/a.jpg,1,1,f,5,14,314,0,f,1,1.18288497079,03,02,60.0189568224,PLT_learning_3,B,2014_Mrz_05_1556,P16,
stim_fb/ques.jpg,stim_fb/negf.jpg,stim_fb/posf.jpg,stim_03/b.jpg,stim_03/a.jpg,1,1,f,5,15,315,4,f,1,0.683157970241,03,02,60.0189568224,PLT_learning_3,B,2014_Mrz_05_1556,P16,
stim_fb/ques.jpg,stim_fb/negf.jpg,stim_fb/posf.jpg,stim_03/c.jpg,stim_03/d.jpg,2,2,j,5,16,316,36,j,1,0.733125684769,03,02,60.0189568224,PLT_learning_3,B,2014_Mrz_05_1556,P16,
stim_fb/ques.jpg,stim_fb/negf.jpg,stim_fb/posf.jpg,stim_03/f.jpg,stim_03/e.jpg,1,3,f,5,17,317,41,f,1,1.28295092518,03,02,60.0189568224,PLT_learning_3,B,2014_Mrz_05_1556,P16,
stim_fb/ques.jpg,stim_fb/negf.jpg,stim_fb/posf.jpg,stim_03/d.jpg,stim_03/c.jpg,1,2,f,5,18,318,20,f,1,0.849785036203,03,02,60.0189568224,PLT_learning_3,B,2014_Mrz_05_1556,P16,
stim_fb/ques.jpg,stim_fb/negf.jpg,stim_fb/posf.jpg,stim_03/f.jpg,stim_03/e.jpg,1,3,f,5,19,319,43,f,1,1.26633713731,03,02,60.0189568224,PLT_learning_3,B,2014_Mrz_05_1556,P16,
stim_fb/ques.jpg,stim_fb/negf.jpg,stim_fb/posf.jpg,stim_03/e.jpg,stim_03/f.jpg,2,3,j,5,20,320,52,f,0,1.48287347915,03,02,60.0189568224,PLT_learning_3,B,2014_Mrz_05_1556,P16,
stim_fb/ques.jpg,stim_fb/posf.jpg,stim_fb/negf.jpg,stim_03/e.jpg,stim_03/f.jpg,2,3,j,5,21,321,56,f,0,0.666501060894,03,02,60.0189568224,PLT_learning_3,B,2014_Mrz_05_1556,P16,
stim_fb/ques.jpg,stim_fb/posf.jpg,stim_fb/negf.jpg,stim_03/f.jpg,stim_03/e.jpg,1,3,f,5,22,322,46,f,1,0.966378682867,03,02,60.0189568224,PLT_learning_3,B,2014_Mrz_05_1556,P16,
stim_fb/ques.jpg,stim_fb/negf.jpg,stim_fb/posf.jpg,stim_03/d.jpg,stim_03/c.jpg,1,2,f,5,23,323,21,f,1,0.749800154886,03,02,60.0189568224,PLT_learning_3,B,2014_Mrz_05_1556,P16,
stim_fb/ques.jpg,stim_fb/negf.jpg,stim_fb/posf.jpg,stim_03/e.jpg,stim_03/f.jpg,2,3,j,5,24,324,54,j,1,1.14969566545,03,02,60.0189568224,PLT_learning_3,B,2014_Mrz_05_1556,P16,
stim_fb/ques.jpg,stim_fb/negf.jpg,stim_fb/posf.jpg,stim_03/e.jpg,stim_03/f.jpg,2,3,j,5,25,325,55,j,1,0.8664450553,03,02,60.0189568224,PLT_learning_3,B,2014_Mrz_05_1556,P16,
stim_fb/ques.jpg,stim_fb/posf.jpg,stim_fb/negf.jpg,stim_03/d.jpg,stim_03/c.jpg,1,2,f,5,26,326,27,f,1,0.699861823595,03,02,60.0189568224,PLT_learning_3,B,2014_Mrz_05_1556,P16,
stim_fb/ques.jpg,stim_fb/posf.jpg,stim_fb/negf.jpg,stim_03/e.jpg,stim_03/f.jpg,2,3,j,5,27,327,57,j,1,0.683146686115,03,02,60.0189568224,PLT_learning_3,B,2014_Mrz_05_1556,P16,
stim_fb/ques.jpg,stim_fb/negf.jpg,stim_fb/posf.jpg,stim_03/d.jpg,stim_03/c.jpg,1,2,f,5,28,328,22,f,1,0.633209226998,03,02,60.0189568224,PLT_learning_3,B,2014_Mrz_05_1556,P16,
stim_fb/ques.jpg,stim_fb/negf.jpg,stim_fb/posf.jpg,stim_03/e.jpg,stim_03/f.jpg,2,3,j,5,29,329,50,f,0,0.76646881452,03,02,60.0189568224,PLT_learning_3,B,2014_Mrz_05_1556,P16,
stim_fb/ques.jpg,stim_fb/negf.jpg,stim_fb/posf.jpg,stim_03/b.jpg,stim_03/a.jpg,1,1,f,5,30,330,5,f,1,0.733172794189,03,02,60.0189568224,PLT_learning_3,B,2014_Mrz_05_1556,P16,
stim_fb/ques.jpg,stim_fb/negf.jpg,stim_fb/posf.jpg,stim_03/b.jpg,stim_03/a.jpg,1,1,f,5,31,331,2,f,1,0.849731638108,03,02,60.0189568224,PLT_learning_3,B,2014_Mrz_05_1556,P16,
stim_fb/ques.jpg,stim_fb/negf.jpg,stim_fb/posf.jpg,stim_03/c.jpg,stim_03/d.jpg,2,2,j,5,32,332,34,j,1,0.916417494605,03,02,60.0189568224,PLT_learning_3,B,2014_Mrz_05_1556,P16,
stim_fb/ques.jpg,stim_fb/posf.jpg,stim_fb/negf.jpg,stim_03/c.jpg,stim_03/d.jpg,2,2,j,5,33,333,37,j,1,0.833119744964,03,02,60.0189568224,PLT_learning_3,B,2014_Mrz_05_1556,P16,
stim_fb/ques.jpg,stim_fb/negf.jpg,stim_fb/posf.jpg,stim_03/c.jpg,stim_03/d.jpg,2,2,j,5,34,334,30,j,1,0.899749499628,03,02,60.0189568224,PLT_learning_3,B,2014_Mrz_05_1556,P16,
stim_fb/ques.jpg,stim_fb/negf.jpg,stim_fb/posf.jpg,stim_03/a.jpg,stim_03/b.jpg,2,1,j,5,35,335,13,j,1,1.16634342298,03,02,60.0189568224,PLT_learning_3,B,2014_Mrz_05_1556,P16,
stim_fb/ques.jpg,stim_fb/negf.jpg,stim_fb/posf.jpg,stim_03/d.jpg,stim_03/c.jpg,1,2,f,5,36,336,24,f,1,0.683145140262,03,02,60.0189568224,PLT_learning_3,B,2014_Mrz_05_1556,P16,
stim_fb/ques.jpg,stim_fb/negf.jpg,stim_fb/posf.jpg,stim_03/e.jpg,stim_03/f.jpg,2,3,j,5,37,337,53,f,0,1.41625515598,03,02,60.0189568224,PLT_learning_3,B,2014_Mrz_05_1556,P16,
stim_fb/ques.jpg,stim_fb/negf.jpg,stim_fb/posf.jpg,stim_03/e.jpg,stim_03/f.jpg,2,3,j,5,38,338,51,j,1,0.549741394426,03,02,60.0189568224,PLT_learning_3,B,2014_Mrz_05_1556,P16,
stim_fb/ques.jpg,stim_fb/posf.jpg,stim_fb/negf.jpg,stim_03/c.jpg,stim_03/d.jpg,2,2,j,5,39,339,39,j,1,0.733097489493,03,02,60.0189568224,PLT_learning_3,B,2014_Mrz_05_1556,P16,
stim_fb/ques.jpg,stim_fb/negf.jpg,stim_fb/posf.jpg,stim_03/b.jpg,stim_03/a.jpg,1,1,f,5,40,340,3,f,1,0.899593154938,03,02,60.0189568224,PLT_learning_3,B,2014_Mrz_05_1556,P16,
stim_fb/ques.jpg,stim_fb/negf.jpg,stim_fb/posf.jpg,stim_03/a.jpg,stim_03/b.jpg,2,1,j,5,41,341,15,j,1,0.649831438861,03,02,60.0189568224,PLT_learning_3,B,2014_Mrz_05_1556,P16,
stim_fb/ques.jpg,stim_fb/negf.jpg,stim_fb/posf.jpg,stim_03/f.jpg,stim_03/e.jpg,1,3,f,5,42,342,44,f,1,0.73314848159,03,02,60.0189568224,PLT_learning_3,B,2014_Mrz_05_1556,P16,
stim_fb/ques.jpg,stim_fb/negf.jpg,stim_fb/posf.jpg,stim_03/f.jpg,stim_03/e.jpg,1,3,f,5,43,343,40,f,1,0.566533923805,03,02,60.0189568224,PLT_learning_3,B,2014_Mrz_05_1556,P16,
stim_fb/ques.jpg,stim_fb/negf.jpg,stim_fb/posf.jpg,stim_03/b.jpg,stim_03/a.jpg,1,1,f,5,44,344,1,f,1,1.06637089345,03,02,60.0189568224,PLT_learning_3,B,2014_Mrz_05_1556,P16,
stim_fb/ques.jpg,stim_fb/posf.jpg,stim_fb/negf.jpg,stim_03/b.jpg,stim_03/a.jpg,1,1,f,5,45,345,8,f,1,0.666402799979,03,02,60.0189568224,PLT_learning_3,B,2014_Mrz_05_1556,P16,
stim_fb/ques.jpg,stim_fb/posf.jpg,stim_fb/negf.jpg,stim_03/d.jpg,stim_03/c.jpg,1,2,f,5,46,346,28,f,1,0.749816933707,03,02,60.0189568224,PLT_learning_3,B,2014_Mrz_05_1556,P16,
stim_fb/ques.jpg,stim_fb/negf.jpg,stim_fb/posf.jpg,stim_03/f.jpg,stim_03/e.jpg,1,3,f,5,47,347,45,f,1,0.749812058556,03,02,60.0189568224,PLT_learning_3,B,2014_Mrz_05_1556,P16,
stim_fb/ques.jpg,stim_fb/negf.jpg,stim_fb/posf.jpg,stim_03/a.jpg,stim_03/b.jpg,2,1,j,5,48,348,12,j,1,1.09968905798,03,02,60.0189568224,PLT_learning_3,B,2014_Mrz_05_1556,P16,
stim_fb/ques.jpg,stim_fb/negf.jpg,stim_fb/posf.jpg,stim_03/a.jpg,stim_03/b.jpg,2,1,j,5,49,349,16,j,1,0.933079071586,03,02,60.0189568224,PLT_learning_3,B,2014_Mrz_05_1556,P16,
stim_fb/ques.jpg,stim_fb/posf.jpg,stim_fb/negf.jpg,stim_03/f.jpg,stim_03/e.jpg,1,3,f,5,50,350,48,f,1,1.16632672837,03,02,60.0189568224,PLT_learning_3,B,2014_Mrz_05_1556,P16,
stim_fb/ques.jpg,stim_fb/posf.jpg,stim_fb/negf.jpg,stim_03/e.jpg,stim_03/f.jpg,2,3,j,5,51,351,59,None,0,,03,02,60.0189568224,PLT_learning_3,B,2014_Mrz_05_1556,P16,
stim_fb/ques.jpg,stim_fb/negf.jpg,stim_fb/posf.jpg,stim_03/f.jpg,stim_03/e.jpg,1,3,f,5,52,352,42,j,0,1.06636889347,03,02,60.0189568224,PLT_learning_3,B,2014_Mrz_05_1556,P16,
stim_fb/ques.jpg,stim_fb/posf.jpg,stim_fb/negf.jpg,stim_03/a.jpg,stim_03/b.jpg,2,1,j,5,53,353,19,j,1,0.783117314907,03,02,60.0189568224,PLT_learning_3,B,2014_Mrz_05_1556,P16,
stim_fb/ques.jpg,stim_fb/posf.jpg,stim_fb/negf.jpg,stim_03/f.jpg,stim_03/e.jpg,1,3,f,5,54,354,47,f,1,1.34962033368,03,02,60.0189568224,PLT_learning_3,B,2014_Mrz_05_1556,P16,
stim_fb/ques.jpg,stim_fb/negf.jpg,stim_fb/posf.jpg,stim_03/c.jpg,stim_03/d.jpg,2,2,j,5,55,355,33,j,1,0.716450213156,03,02,60.0189568224,PLT_learning_3,B,2014_Mrz_05_1556,P16,
stim_fb/ques.jpg,stim_fb/negf.jpg,stim_fb/posf.jpg,stim_03/c.jpg,stim_03/d.jpg,2,2,j,5,56,356,35,j,1,0.666486802355,03,02,60.0189568224,PLT_learning_3,B,2014_Mrz_05_1556,P16,
stim_fb/ques.jpg,stim_fb/negf.jpg,stim_fb/posf.jpg,stim_03/c.jpg,stim_03/d.jpg,2,2,j,5,57,357,31,j,1,0.683152875542,03,02,60.0189568224,PLT_learning_3,B,2014_Mrz_05_1556,P16,
stim_fb/ques.jpg,stim_fb/posf.jpg,stim_fb/negf.jpg,stim_03/f.jpg,stim_03/e.jpg,1,3,f,5,58,358,49,j,0,1.0830323351,03,02,60.0189568224,PLT_learning_3,B,2014_Mrz_05_1556,P16,
stim_fb/ques.jpg,stim_fb/negf.jpg,stim_fb/posf.jpg,stim_03/a.jpg,stim_03/b.jpg,2,1,j,5,59,359,17,f,0,0.766442529004,03,02,60.0189568224,PLT_learning_3,B,2014_Mrz_05_1556,P16,
