Fb3,Fb2,Fb1,Symbol2,Symbol1,PosCond,Pair,Correct,trials.thisRepN,trials.thisTrialN,trials.thisN,trials.thisIndex,Response.keys,Response.corr,Response.rt,Version,Session Number,frameRate,expName,StimCondition,date,Participant,
stim_fb/ques.jpg,stim_fb/negf.jpg,stim_fb/posf.jpg,stim_03/d.jpg,stim_03/c.jpg,1,2,f,0,0,0,23,f,1,0.81643954993,03,03,60.0173743377,PLT_learning_3,B,2014_Mrz_07_1528,P17,
stim_fb/ques.jpg,stim_fb/negf.jpg,stim_fb/posf.jpg,stim_03/e.jpg,stim_03/f.jpg,2,3,j,0,1,1,52,j,1,0.782900947732,03,03,60.0173743377,PLT_learning_3,B,2014_Mrz_07_1528,P17,
stim_fb/ques.jpg,stim_fb/negf.jpg,stim_fb/posf.jpg,stim_03/d.jpg,stim_03/c.jpg,1,2,f,0,2,2,25,f,1,0.616518087387,03,03,60.0173743377,PLT_learning_3,B,2014_Mrz_07_1528,P17,
stim_fb/ques.jpg,stim_fb/negf.jpg,stim_fb/posf.jpg,stim_03/d.jpg,stim_03/c.jpg,1,2,f,0,3,3,20,f,1,0.533199351888,03,03,60.0173743377,PLT_learning_3,B,2014_Mrz_07_1528,P17,
stim_fb/ques.jpg,stim_fb/negf.jpg,stim_fb/posf.jpg,stim_03/a.jpg,stim_03/b.jpg,2,1,j,0,4,4,14,j,1,0.816465131596,03,03,60.0173743377,PLT_learning_3,B,2014_Mrz_07_1528,P17,
stim_fb/ques.jpg,stim_fb/posf.jpg,stim_fb/negf.jpg,stim_03/d.jpg,stim_03/c.jpg,1,2,f,0,5,5,29,f,1,0.666504705583,03,03,60.0173743377,PLT_learning_3,B,2014_Mrz_07_1528,P17,
stim_fb/ques.jpg,stim_fb/negf.jpg,stim_fb/posf.jpg,stim_03/d.jpg,stim_03/c.jpg,1,2,f,0,6,6,22,j,0,0.499925630917,03,03,60.0173743377,PLT_learning_3,B,2014_Mrz_07_1528,P17,
stim_fb/ques.jpg,stim_fb/negf.jpg,stim_fb/posf.jpg,stim_03/d.jpg,stim_03/c.jpg,1,2,f,0,7,7,26,f,1,0.599850798673,03,03,60.0173743377,PLT_learning_3,B,2014_Mrz_07_1528,P17,
stim_fb/ques.jpg,stim_fb/negf.jpg,stim_fb/posf.jpg,stim_03/a.jpg,stim_03/b.jpg,2,1,j,0,8,8,13,j,1,1.03297961,03,03,60.0173743377,PLT_learning_3,B,2014_Mrz_07_1528,P17,
stim_fb/ques.jpg,stim_fb/negf.jpg,stim_fb/posf.jpg,stim_03/e.jpg,stim_03/f.jpg,2,3,j,0,9,9,54,j,1,0.8830861276,03,03,60.0173743377,PLT_learning_3,B,2014_Mrz_07_1528,P17,
stim_fb/ques.jpg,stim_fb/posf.jpg,stim_fb/negf.jpg,stim_03/f.jpg,stim_03/e.jpg,1,3,f,0,10,10,49,f,1,0.733148528401,03,03,60.0173743377,PLT_learning_3,B,2014_Mrz_07_1528,P17,
stim_fb/ques.jpg,stim_fb/posf.jpg,stim_fb/negf.jpg,stim_03/e.jpg,stim_03/f.jpg,2,3,j,0,11,11,57,j,1,0.749757907994,03,03,60.0173743377,PLT_learning_3,B,2014_Mrz_07_1528,P17,
stim_fb/ques.jpg,stim_fb/negf.jpg,stim_fb/posf.jpg,stim_03/d.jpg,stim_03/c.jpg,1,2,f,0,12,12,21,f,1,0.783080416386,03,03,60.0173743377,PLT_learning_3,B,2014_Mrz_07_1528,P17,
stim_fb/ques.jpg,stim_fb/posf.jpg,stim_fb/negf.jpg,stim_03/a.jpg,stim_03/b.jpg,2,1,j,0,13,13,19,f,0,0.982919188129,03,03,60.0173743377,PLT_learning_3,B,2014_Mrz_07_1528,P17,
stim_fb/ques.jpg,stim_fb/negf.jpg,stim_fb/posf.jpg,stim_03/a.jpg,stim_03/b.jpg,2,1,j,0,14,14,15,f,0,0.999730824089,03,03,60.0173743377,PLT_learning_3,B,2014_Mrz_07_1528,P17,
stim_fb/ques.jpg,stim_fb/negf.jpg,stim_fb/posf.jpg,stim_03/e.jpg,stim_03/f.jpg,2,3,j,0,15,15,51,j,1,0.849765790612,03,03,60.0173743377,PLT_learning_3,B,2014_Mrz_07_1528,P17,
stim_fb/ques.jpg,stim_fb/negf.jpg,stim_fb/posf.jpg,stim_03/a.jpg,stim_03/b.jpg,2,1,j,0,16,16,12,f,0,0.833113524284,03,03,60.0173743377,PLT_learning_3,B,2014_Mrz_07_1528,P17,
stim_fb/ques.jpg,stim_fb/posf.jpg,stim_fb/negf.jpg,stim_03/b.jpg,stim_03/a.jpg,1,1,f,0,17,17,9,f,1,1.08302355086,03,03,60.0173743377,PLT_learning_3,B,2014_Mrz_07_1528,P17,
stim_fb/ques.jpg,stim_fb/negf.jpg,stim_fb/posf.jpg,stim_03/c.jpg,stim_03/d.jpg,2,2,j,0,18,18,33,j,1,0.833110661159,03,03,60.0173743377,PLT_learning_3,B,2014_Mrz_07_1528,P17,
stim_fb/ques.jpg,stim_fb/negf.jpg,stim_fb/posf.jpg,stim_03/c.jpg,stim_03/d.jpg,2,2,j,0,19,19,34,j,1,0.816457835437,03,03,60.0173743377,PLT_learning_3,B,2014_Mrz_07_1528,P17,
stim_fb/ques.jpg,stim_fb/negf.jpg,stim_fb/posf.jpg,stim_03/f.jpg,stim_03/e.jpg,1,3,f,0,20,20,40,f,1,0.566478558514,03,03,60.0173743377,PLT_learning_3,B,2014_Mrz_07_1528,P17,
stim_fb/ques.jpg,stim_fb/posf.jpg,stim_fb/negf.jpg,stim_03/f.jpg,stim_03/e.jpg,1,3,f,0,21,21,46,f,1,0.583191407619,03,03,60.0173743377,PLT_learning_3,B,2014_Mrz_07_1528,P17,
stim_fb/ques.jpg,stim_fb/negf.jpg,stim_fb/posf.jpg,stim_03/c.jpg,stim_03/d.jpg,2,2,j,0,22,22,35,j,1,0.783082341175,03,03,60.0173743377,PLT_learning_3,B,2014_Mrz_07_1528,P17,
stim_fb/ques.jpg,stim_fb/negf.jpg,stim_fb/posf.jpg,stim_03/c.jpg,stim_03/d.jpg,2,2,j,0,23,23,32,j,1,0.816446566394,03,03,60.0173743377,PLT_learning_3,B,2014_Mrz_07_1528,P17,
stim_fb/ques.jpg,stim_fb/negf.jpg,stim_fb/posf.jpg,stim_03/a.jpg,stim_03/b.jpg,2,1,j,0,24,24,10,f,0,0.899779500229,03,03,60.0173743377,PLT_learning_3,B,2014_Mrz_07_1528,P17,
stim_fb/ques.jpg,stim_fb/negf.jpg,stim_fb/posf.jpg,stim_03/f.jpg,stim_03/e.jpg,1,3,f,0,25,25,42,f,1,0.799783903189,03,03,60.0173743377,PLT_learning_3,B,2014_Mrz_07_1528,P17,
stim_fb/ques.jpg,stim_fb/negf.jpg,stim_fb/posf.jpg,stim_03/e.jpg,stim_03/f.jpg,2,3,j,0,26,26,55,j,1,0.666501848475,03,03,60.0173743377,PLT_learning_3,B,2014_Mrz_07_1528,P17,
stim_fb/ques.jpg,stim_fb/negf.jpg,stim_fb/posf.jpg,stim_03/e.jpg,stim_03/f.jpg,2,3,j,0,27,27,53,j,1,0.883069631545,03,03,60.0173743377,PLT_learning_3,B,2014_Mrz_07_1528,P17,
stim_fb/ques.jpg,stim_fb/negf.jpg,stim_fb/posf.jpg,stim_03/b.jpg,stim_03/a.jpg,1,1,f,0,28,28,7,f,1,0.899755632832,03,03,60.0173743377,PLT_learning_3,B,2014_Mrz_07_1528,P17,
stim_fb/ques.jpg,stim_fb/negf.jpg,stim_fb/posf.jpg,stim_03/a.jpg,stim_03/b.jpg,2,1,j,0,29,29,16,j,1,0.633112970907,03,03,60.0173743377,PLT_learning_3,B,2014_Mrz_07_1528,P17,
stim_fb/ques.jpg,stim_fb/negf.jpg,stim_fb/posf.jpg,stim_03/b.jpg,stim_03/a.jpg,1,1,f,0,30,30,5,f,1,0.566501337202,03,03,60.0173743377,PLT_learning_3,B,2014_Mrz_07_1528,P17,
stim_fb/ques.jpg,stim_fb/posf.jpg,stim_fb/negf.jpg,stim_03/e.jpg,stim_03/f.jpg,2,3,j,0,31,31,56,j,1,0.599850531009,03,03,60.0173743377,PLT_learning_3,B,2014_Mrz_07_1528,P17,
stim_fb/ques.jpg,stim_fb/posf.jpg,stim_fb/negf.jpg,stim_03/c.jpg,stim_03/d.jpg,2,2,j,0,32,32,37,f,0,0.699837234919,03,03,60.0173743377,PLT_learning_3,B,2014_Mrz_07_1528,P17,
stim_fb/ques.jpg,stim_fb/negf.jpg,stim_fb/posf.jpg,stim_03/b.jpg,stim_03/a.jpg,1,1,f,0,33,33,6,f,1,0.749812024675,03,03,60.0173743377,PLT_learning_3,B,2014_Mrz_07_1528,P17,
stim_fb/ques.jpg,stim_fb/negf.jpg,stim_fb/posf.jpg,stim_03/a.jpg,stim_03/b.jpg,2,1,j,0,34,34,11,j,1,0.466564644757,03,03,60.0173743377,PLT_learning_3,B,2014_Mrz_07_1528,P17,
stim_fb/ques.jpg,stim_fb/negf.jpg,stim_fb/posf.jpg,stim_03/b.jpg,stim_03/a.jpg,1,1,f,0,35,35,0,j,0,0.59985489487,03,03,60.0173743377,PLT_learning_3,B,2014_Mrz_07_1528,P17,
stim_fb/ques.jpg,stim_fb/negf.jpg,stim_fb/posf.jpg,stim_03/b.jpg,stim_03/a.jpg,1,1,f,0,36,36,2,f,1,0.783139778123,03,03,60.0173743377,PLT_learning_3,B,2014_Mrz_07_1528,P17,
stim_fb/ques.jpg,stim_fb/negf.jpg,stim_fb/posf.jpg,stim_03/c.jpg,stim_03/d.jpg,2,2,j,0,37,37,30,j,1,0.59987602245,03,03,60.0173743377,PLT_learning_3,B,2014_Mrz_07_1528,P17,
stim_fb/ques.jpg,stim_fb/posf.jpg,stim_fb/negf.jpg,stim_03/f.jpg,stim_03/e.jpg,1,3,f,0,38,38,48,f,1,0.516574694269,03,03,60.0173743377,PLT_learning_3,B,2014_Mrz_07_1528,P17,
stim_fb/ques.jpg,stim_fb/negf.jpg,stim_fb/posf.jpg,stim_03/b.jpg,stim_03/a.jpg,1,1,f,0,39,39,4,j,0,0.499843427329,03,03,60.0173743377,PLT_learning_3,B,2014_Mrz_07_1528,P17,
stim_fb/ques.jpg,stim_fb/negf.jpg,stim_fb/posf.jpg,stim_03/f.jpg,stim_03/e.jpg,1,3,f,0,40,40,43,f,1,0.466549072004,03,03,60.0173743377,PLT_learning_3,B,2014_Mrz_07_1528,P17,
stim_fb/ques.jpg,stim_fb/posf.jpg,stim_fb/negf.jpg,stim_03/a.jpg,stim_03/b.jpg,2,1,j,0,41,41,18,j,1,0.51654712165,03,03,60.0173743377,PLT_learning_3,B,2014_Mrz_07_1528,P17,
stim_fb/ques.jpg,stim_fb/posf.jpg,stim_fb/negf.jpg,stim_03/c.jpg,stim_03/d.jpg,2,2,j,0,42,42,38,f,0,0.716478331447,03,03,60.0173743377,PLT_learning_3,B,2014_Mrz_07_1528,P17,
stim_fb/ques.jpg,stim_fb/negf.jpg,stim_fb/posf.jpg,stim_03/f.jpg,stim_03/e.jpg,1,3,f,0,43,43,44,j,0,0.299944866787,03,03,60.0173743377,PLT_learning_3,B,2014_Mrz_07_1528,P17,
stim_fb/ques.jpg,stim_fb/posf.jpg,stim_fb/negf.jpg,stim_03/d.jpg,stim_03/c.jpg,1,2,f,0,44,44,27,f,1,0.449883690035,03,03,60.0173743377,PLT_learning_3,B,2014_Mrz_07_1528,P17,
stim_fb/ques.jpg,stim_fb/negf.jpg,stim_fb/posf.jpg,stim_03/b.jpg,stim_03/a.jpg,1,1,f,0,45,45,1,j,0,0.416438894299,03,03,60.0173743377,PLT_learning_3,B,2014_Mrz_07_1528,P17,
stim_fb/ques.jpg,stim_fb/posf.jpg,stim_fb/negf.jpg,stim_03/e.jpg,stim_03/f.jpg,2,3,j,0,46,46,58,j,1,0.733129951164,03,03,60.0173743377,PLT_learning_3,B,2014_Mrz_07_1528,P17,
stim_fb/ques.jpg,stim_fb/negf.jpg,stim_fb/posf.jpg,stim_03/f.jpg,stim_03/e.jpg,1,3,f,0,47,47,41,f,1,0.666481505847,03,03,60.0173743377,PLT_learning_3,B,2014_Mrz_07_1528,P17,
stim_fb/ques.jpg,stim_fb/posf.jpg,stim_fb/negf.jpg,stim_03/d.jpg,stim_03/c.jpg,1,2,f,0,48,48,28,f,1,0.583189885831,03,03,60.0173743377,PLT_learning_3,B,2014_Mrz_07_1528,P17,
stim_fb/ques.jpg,stim_fb/posf.jpg,stim_fb/negf.jpg,stim_03/b.jpg,stim_03/a.jpg,1,1,f,0,49,49,8,j,0,0.499883011846,03,03,60.0173743377,PLT_learning_3,B,2014_Mrz_07_1528,P17,
stim_fb/ques.jpg,stim_fb/negf.jpg,stim_fb/posf.jpg,stim_03/c.jpg,stim_03/d.jpg,2,2,j,0,50,50,36,f,0,0.833091611748,03,03,60.0173743377,PLT_learning_3,B,2014_Mrz_07_1528,P17,
stim_fb/ques.jpg,stim_fb/posf.jpg,stim_fb/negf.jpg,stim_03/f.jpg,stim_03/e.jpg,1,3,f,0,51,51,47,j,0,0.483212781808,03,03,60.0173743377,PLT_learning_3,B,2014_Mrz_07_1528,P17,
stim_fb/ques.jpg,stim_fb/negf.jpg,stim_fb/posf.jpg,stim_03/f.jpg,stim_03/e.jpg,1,3,f,0,52,52,45,f,1,0.616505113099,03,03,60.0173743377,PLT_learning_3,B,2014_Mrz_07_1528,P17,
stim_fb/ques.jpg,stim_fb/negf.jpg,stim_fb/posf.jpg,stim_03/e.jpg,stim_03/f.jpg,2,3,j,0,53,53,50,j,1,0.733134733069,03,03,60.0173743377,PLT_learning_3,B,2014_Mrz_07_1528,P17,
stim_fb/ques.jpg,stim_fb/negf.jpg,stim_fb/posf.jpg,stim_03/b.jpg,stim_03/a.jpg,1,1,f,0,54,54,3,f,1,0.8830912704,03,03,60.0173743377,PLT_learning_3,B,2014_Mrz_07_1528,P17,
stim_fb/ques.jpg,stim_fb/negf.jpg,stim_fb/posf.jpg,stim_03/c.jpg,stim_03/d.jpg,2,2,j,0,55,55,31,f,0,1.16633484284,03,03,60.0173743377,PLT_learning_3,B,2014_Mrz_07_1528,P17,
stim_fb/ques.jpg,stim_fb/posf.jpg,stim_fb/negf.jpg,stim_03/c.jpg,stim_03/d.jpg,2,2,j,0,56,56,39,j,1,0.583205918731,03,03,60.0173743377,PLT_learning_3,B,2014_Mrz_07_1528,P17,
stim_fb/ques.jpg,stim_fb/posf.jpg,stim_fb/negf.jpg,stim_03/e.jpg,stim_03/f.jpg,2,3,j,0,57,57,59,j,1,0.799796266958,03,03,60.0173743377,PLT_learning_3,B,2014_Mrz_07_1528,P17,
stim_fb/ques.jpg,stim_fb/negf.jpg,stim_fb/posf.jpg,stim_03/d.jpg,stim_03/c.jpg,1,2,f,0,58,58,24,f,1,0.699833767289,03,03,60.0173743377,PLT_learning_3,B,2014_Mrz_07_1528,P17,
stim_fb/ques.jpg,stim_fb/negf.jpg,stim_fb/posf.jpg,stim_03/a.jpg,stim_03/b.jpg,2,1,j,0,59,59,17,j,1,0.599856443725,03,03,60.0173743377,PLT_learning_3,B,2014_Mrz_07_1528,P17,
stim_fb/ques.jpg,stim_fb/negf.jpg,stim_fb/posf.jpg,stim_03/a.jpg,stim_03/b.jpg,2,1,j,1,0,60,13,j,1,0.983050197177,03,03,60.0173743377,PLT_learning_3,B,2014_Mrz_07_1528,P17,
stim_fb/ques.jpg,stim_fb/negf.jpg,stim_fb/posf.jpg,stim_03/d.jpg,stim_03/c.jpg,1,2,f,1,1,61,21,f,1,0.54985713695,03,03,60.0173743377,PLT_learning_3,B,2014_Mrz_07_1528,P17,
stim_fb/ques.jpg,stim_fb/negf.jpg,stim_fb/posf.jpg,stim_03/c.jpg,stim_03/d.jpg,2,2,j,1,2,62,35,j,1,0.833105831138,03,03,60.0173743377,PLT_learning_3,B,2014_Mrz_07_1528,P17,
stim_fb/ques.jpg,stim_fb/negf.jpg,stim_fb/posf.jpg,stim_03/a.jpg,stim_03/b.jpg,2,1,j,1,3,63,10,j,1,0.683161714718,03,03,60.0173743377,PLT_learning_3,B,2014_Mrz_07_1528,P17,
stim_fb/ques.jpg,stim_fb/negf.jpg,stim_fb/posf.jpg,stim_03/b.jpg,stim_03/a.jpg,1,1,f,1,4,64,7,f,1,0.599840837884,03,03,60.0173743377,PLT_learning_3,B,2014_Mrz_07_1528,P17,
stim_fb/ques.jpg,stim_fb/negf.jpg,stim_fb/posf.jpg,stim_03/d.jpg,stim_03/c.jpg,1,2,f,1,5,65,23,f,1,0.783151002055,03,03,60.0173743377,PLT_learning_3,B,2014_Mrz_07_1528,P17,
stim_fb/ques.jpg,stim_fb/negf.jpg,stim_fb/posf.jpg,stim_03/c.jpg,stim_03/d.jpg,2,2,j,1,6,66,30,j,1,0.716498803398,03,03,60.0173743377,PLT_learning_3,B,2014_Mrz_07_1528,P17,
stim_fb/ques.jpg,stim_fb/negf.jpg,stim_fb/posf.jpg,stim_03/f.jpg,stim_03/e.jpg,1,3,f,1,7,67,40,f,1,0.649873774357,03,03,60.0173743377,PLT_learning_3,B,2014_Mrz_07_1528,P17,
stim_fb/ques.jpg,stim_fb/negf.jpg,stim_fb/posf.jpg,stim_03/e.jpg,stim_03/f.jpg,2,3,j,1,8,68,53,j,1,0.483206354813,03,03,60.0173743377,PLT_learning_3,B,2014_Mrz_07_1528,P17,
stim_fb/ques.jpg,stim_fb/negf.jpg,stim_fb/posf.jpg,stim_03/c.jpg,stim_03/d.jpg,2,2,j,1,9,69,32,j,1,0.782903389812,03,03,60.0173743377,PLT_learning_3,B,2014_Mrz_07_1528,P17,
stim_fb/ques.jpg,stim_fb/posf.jpg,stim_fb/negf.jpg,stim_03/a.jpg,stim_03/b.jpg,2,1,j,1,10,70,19,j,1,0.699828128254,03,03,60.0173743377,PLT_learning_3,B,2014_Mrz_07_1528,P17,
stim_fb/ques.jpg,stim_fb/negf.jpg,stim_fb/posf.jpg,stim_03/c.jpg,stim_03/d.jpg,2,2,j,1,11,71,36,f,0,0.649868827044,03,03,60.0173743377,PLT_learning_3,B,2014_Mrz_07_1528,P17,
stim_fb/ques.jpg,stim_fb/negf.jpg,stim_fb/posf.jpg,stim_03/b.jpg,stim_03/a.jpg,1,1,f,1,12,72,2,f,1,0.866422056893,03,03,60.0173743377,PLT_learning_3,B,2014_Mrz_07_1528,P17,
stim_fb/ques.jpg,stim_fb/posf.jpg,stim_fb/negf.jpg,stim_03/e.jpg,stim_03/f.jpg,2,3,j,1,13,73,56,j,1,0.716472397682,03,03,60.0173743377,PLT_learning_3,B,2014_Mrz_07_1528,P17,
stim_fb/ques.jpg,stim_fb/negf.jpg,stim_fb/posf.jpg,stim_03/a.jpg,stim_03/b.jpg,2,1,j,1,14,74,11,f,0,0.699855382081,03,03,60.0173743377,PLT_learning_3,B,2014_Mrz_07_1528,P17,
stim_fb/ques.jpg,stim_fb/negf.jpg,stim_fb/posf.jpg,stim_03/b.jpg,stim_03/a.jpg,1,1,f,1,15,75,0,f,1,0.766451975353,03,03,60.0173743377,PLT_learning_3,B,2014_Mrz_07_1528,P17,
stim_fb/ques.jpg,stim_fb/negf.jpg,stim_fb/posf.jpg,stim_03/c.jpg,stim_03/d.jpg,2,2,j,1,16,76,34,j,1,1.03305198212,03,03,60.0173743377,PLT_learning_3,B,2014_Mrz_07_1528,P17,
stim_fb/ques.jpg,stim_fb/posf.jpg,stim_fb/negf.jpg,stim_03/e.jpg,stim_03/f.jpg,2,3,j,1,17,77,57,j,1,0.899717879875,03,03,60.0173743377,PLT_learning_3,B,2014_Mrz_07_1528,P17,
stim_fb/ques.jpg,stim_fb/posf.jpg,stim_fb/negf.jpg,stim_03/d.jpg,stim_03/c.jpg,1,2,f,1,18,78,29,f,1,0.64992139487,03,03,60.0173743377,PLT_learning_3,B,2014_Mrz_07_1528,P17,
stim_fb/ques.jpg,stim_fb/posf.jpg,stim_fb/negf.jpg,stim_03/c.jpg,stim_03/d.jpg,2,2,j,1,19,79,39,f,0,0.833074854043,03,03,60.0173743377,PLT_learning_3,B,2014_Mrz_07_1528,P17,
stim_fb/ques.jpg,stim_fb/posf.jpg,stim_fb/negf.jpg,stim_03/d.jpg,stim_03/c.jpg,1,2,f,1,20,80,28,j,0,0.966386379103,03,03,60.0173743377,PLT_learning_3,B,2014_Mrz_07_1528,P17,
stim_fb/ques.jpg,stim_fb/posf.jpg,stim_fb/negf.jpg,stim_03/a.jpg,stim_03/b.jpg,2,1,j,1,21,81,18,j,1,0.833114309236,03,03,60.0173743377,PLT_learning_3,B,2014_Mrz_07_1528,P17,
stim_fb/ques.jpg,stim_fb/posf.jpg,stim_fb/negf.jpg,stim_03/f.jpg,stim_03/e.jpg,1,3,f,1,22,82,49,f,1,0.83311801446,03,03,60.0173743377,PLT_learning_3,B,2014_Mrz_07_1528,P17,
stim_fb/ques.jpg,stim_fb/negf.jpg,stim_fb/posf.jpg,stim_03/e.jpg,stim_03/f.jpg,2,3,j,1,23,83,52,f,0,0.883128830876,03,03,60.0173743377,PLT_learning_3,B,2014_Mrz_07_1528,P17,
stim_fb/ques.jpg,stim_fb/posf.jpg,stim_fb/negf.jpg,stim_03/e.jpg,stim_03/f.jpg,2,3,j,1,24,84,58,j,1,0.633147602097,03,03,60.0173743377,PLT_learning_3,B,2014_Mrz_07_1528,P17,
stim_fb/ques.jpg,stim_fb/negf.jpg,stim_fb/posf.jpg,stim_03/b.jpg,stim_03/a.jpg,1,1,f,1,25,85,4,f,1,0.799809117943,03,03,60.0173743377,PLT_learning_3,B,2014_Mrz_07_1528,P17,
stim_fb/ques.jpg,stim_fb/negf.jpg,stim_fb/posf.jpg,stim_03/d.jpg,stim_03/c.jpg,1,2,f,1,26,86,26,j,0,0.949736720264,03,03,60.0173743377,PLT_learning_3,B,2014_Mrz_07_1528,P17,
stim_fb/ques.jpg,stim_fb/negf.jpg,stim_fb/posf.jpg,stim_03/d.jpg,stim_03/c.jpg,1,2,f,1,27,87,20,f,1,0.716481350963,03,03,60.0173743377,PLT_learning_3,B,2014_Mrz_07_1528,P17,
stim_fb/ques.jpg,stim_fb/negf.jpg,stim_fb/posf.jpg,stim_03/a.jpg,stim_03/b.jpg,2,1,j,1,28,88,15,f,0,0.916447537809,03,03,60.0173743377,PLT_learning_3,B,2014_Mrz_07_1528,P17,
stim_fb/ques.jpg,stim_fb/negf.jpg,stim_fb/posf.jpg,stim_03/d.jpg,stim_03/c.jpg,1,2,f,1,29,89,22,j,0,1.09969730266,03,03,60.0173743377,PLT_learning_3,B,2014_Mrz_07_1528,P17,
stim_fb/ques.jpg,stim_fb/posf.jpg,stim_fb/negf.jpg,stim_03/c.jpg,stim_03/d.jpg,2,2,j,1,30,90,38,j,1,1.16632653917,03,03,60.0173743377,PLT_learning_3,B,2014_Mrz_07_1528,P17,
stim_fb/ques.jpg,stim_fb/negf.jpg,stim_fb/posf.jpg,stim_03/d.jpg,stim_03/c.jpg,1,2,f,1,31,91,25,f,1,0.849773423608,03,03,60.0173743377,PLT_learning_3,B,2014_Mrz_07_1528,P17,
stim_fb/ques.jpg,stim_fb/posf.jpg,stim_fb/negf.jpg,stim_03/e.jpg,stim_03/f.jpg,2,3,j,1,32,92,59,j,1,0.866463650411,03,03,60.0173743377,PLT_learning_3,B,2014_Mrz_07_1528,P17,
stim_fb/ques.jpg,stim_fb/negf.jpg,stim_fb/posf.jpg,stim_03/e.jpg,stim_03/f.jpg,2,3,j,1,33,93,54,j,1,0.916417090033,03,03,60.0173743377,PLT_learning_3,B,2014_Mrz_07_1528,P17,
stim_fb/ques.jpg,stim_fb/negf.jpg,stim_fb/posf.jpg,stim_03/a.jpg,stim_03/b.jpg,2,1,j,1,34,94,14,f,0,1.18299040838,03,03,60.0173743377,PLT_learning_3,B,2014_Mrz_07_1528,P17,
stim_fb/ques.jpg,stim_fb/negf.jpg,stim_fb/posf.jpg,stim_03/b.jpg,stim_03/a.jpg,1,1,f,1,35,95,3,j,0,1.11636937628,03,03,60.0173743377,PLT_learning_3,B,2014_Mrz_07_1528,P17,
stim_fb/ques.jpg,stim_fb/negf.jpg,stim_fb/posf.jpg,stim_03/c.jpg,stim_03/d.jpg,2,2,j,1,36,96,31,j,1,0.816432963536,03,03,60.0173743377,PLT_learning_3,B,2014_Mrz_07_1528,P17,
stim_fb/ques.jpg,stim_fb/negf.jpg,stim_fb/posf.jpg,stim_03/b.jpg,stim_03/a.jpg,1,1,f,1,37,97,6,j,0,0.81645921888,03,03,60.0173743377,PLT_learning_3,B,2014_Mrz_07_1528,P17,
stim_fb/ques.jpg,stim_fb/negf.jpg,stim_fb/posf.jpg,stim_03/f.jpg,stim_03/e.jpg,1,3,f,1,38,98,42,f,1,0.733155162914,03,03,60.0173743377,PLT_learning_3,B,2014_Mrz_07_1528,P17,
stim_fb/ques.jpg,stim_fb/posf.jpg,stim_fb/negf.jpg,stim_03/d.jpg,stim_03/c.jpg,1,2,f,1,39,99,27,f,1,0.866416405828,03,03,60.0173743377,PLT_learning_3,B,2014_Mrz_07_1528,P17,
stim_fb/ques.jpg,stim_fb/negf.jpg,stim_fb/posf.jpg,stim_03/d.jpg,stim_03/c.jpg,1,2,f,1,40,100,24,j,0,0.833110315296,03,03,60.0173743377,PLT_learning_3,B,2014_Mrz_07_1528,P17,
stim_fb/ques.jpg,stim_fb/negf.jpg,stim_fb/posf.jpg,stim_03/e.jpg,stim_03/f.jpg,2,3,j,1,41,101,50,j,1,0.749806623233,03,03,60.0173743377,PLT_learning_3,B,2014_Mrz_07_1528,P17,
stim_fb/ques.jpg,stim_fb/negf.jpg,stim_fb/posf.jpg,stim_03/e.jpg,stim_03/f.jpg,2,3,j,1,42,102,51,j,1,0.633221339609,03,03,60.0173743377,PLT_learning_3,B,2014_Mrz_07_1528,P17,
stim_fb/ques.jpg,stim_fb/negf.jpg,stim_fb/posf.jpg,stim_03/b.jpg,stim_03/a.jpg,1,1,f,1,43,103,5,f,1,0.999719112944,03,03,60.0173743377,PLT_learning_3,B,2014_Mrz_07_1528,P17,
stim_fb/ques.jpg,stim_fb/negf.jpg,stim_fb/posf.jpg,stim_03/b.jpg,stim_03/a.jpg,1,1,f,1,44,104,1,j,0,0.683175504037,03,03,60.0173743377,PLT_learning_3,B,2014_Mrz_07_1528,P17,
stim_fb/ques.jpg,stim_fb/posf.jpg,stim_fb/negf.jpg,stim_03/f.jpg,stim_03/e.jpg,1,3,f,1,45,105,48,f,1,0.86642919065,03,03,60.0173743377,PLT_learning_3,B,2014_Mrz_07_1528,P17,
stim_fb/ques.jpg,stim_fb/posf.jpg,stim_fb/negf.jpg,stim_03/f.jpg,stim_03/e.jpg,1,3,f,1,46,106,46,j,0,0.783150581006,03,03,60.0173743377,PLT_learning_3,B,2014_Mrz_07_1528,P17,
stim_fb/ques.jpg,stim_fb/negf.jpg,stim_fb/posf.jpg,stim_03/f.jpg,stim_03/e.jpg,1,3,f,1,47,107,45,j,0,1.16634930583,03,03,60.0173743377,PLT_learning_3,B,2014_Mrz_07_1528,P17,
stim_fb/ques.jpg,stim_fb/negf.jpg,stim_fb/posf.jpg,stim_03/a.jpg,stim_03/b.jpg,2,1,j,1,48,108,12,j,1,0.749783546802,03,03,60.0173743377,PLT_learning_3,B,2014_Mrz_07_1528,P17,
stim_fb/ques.jpg,stim_fb/negf.jpg,stim_fb/posf.jpg,stim_03/c.jpg,stim_03/d.jpg,2,2,j,1,49,109,33,f,0,0.666514985169,03,03,60.0173743377,PLT_learning_3,B,2014_Mrz_07_1528,P17,
stim_fb/ques.jpg,stim_fb/negf.jpg,stim_fb/posf.jpg,stim_03/f.jpg,stim_03/e.jpg,1,3,f,1,50,110,44,f,1,0.783116710714,03,03,60.0173743377,PLT_learning_3,B,2014_Mrz_07_1528,P17,
stim_fb/ques.jpg,stim_fb/negf.jpg,stim_fb/posf.jpg,stim_03/e.jpg,stim_03/f.jpg,2,3,j,1,51,111,55,j,1,0.883103174026,03,03,60.0173743377,PLT_learning_3,B,2014_Mrz_07_1528,P17,
stim_fb/ques.jpg,stim_fb/negf.jpg,stim_fb/posf.jpg,stim_03/a.jpg,stim_03/b.jpg,2,1,j,1,52,112,16,j,1,0.949709857407,03,03,60.0173743377,PLT_learning_3,B,2014_Mrz_07_1528,P17,
stim_fb/ques.jpg,stim_fb/negf.jpg,stim_fb/posf.jpg,stim_03/f.jpg,stim_03/e.jpg,1,3,f,1,53,113,43,f,1,0.733168816892,03,03,60.0173743377,PLT_learning_3,B,2014_Mrz_07_1528,P17,
stim_fb/ques.jpg,stim_fb/posf.jpg,stim_fb/negf.jpg,stim_03/c.jpg,stim_03/d.jpg,2,2,j,1,54,114,37,j,1,0.69984489799,03,03,60.0173743377,PLT_learning_3,B,2014_Mrz_07_1528,P17,
stim_fb/ques.jpg,stim_fb/posf.jpg,stim_fb/negf.jpg,stim_03/b.jpg,stim_03/a.jpg,1,1,f,1,55,115,9,f,1,0.883102993575,03,03,60.0173743377,PLT_learning_3,B,2014_Mrz_07_1528,P17,
stim_fb/ques.jpg,stim_fb/negf.jpg,stim_fb/posf.jpg,stim_03/a.jpg,stim_03/b.jpg,2,1,j,1,56,116,17,f,0,0.966384382129,03,03,60.0173743377,PLT_learning_3,B,2014_Mrz_07_1528,P17,
stim_fb/ques.jpg,stim_fb/posf.jpg,stim_fb/negf.jpg,stim_03/f.jpg,stim_03/e.jpg,1,3,f,1,57,117,47,j,0,0.849742828465,03,03,60.0173743377,PLT_learning_3,B,2014_Mrz_07_1528,P17,
stim_fb/ques.jpg,stim_fb/posf.jpg,stim_fb/negf.jpg,stim_03/b.jpg,stim_03/a.jpg,1,1,f,1,58,118,8,j,0,0.81643302369,03,03,60.0173743377,PLT_learning_3,B,2014_Mrz_07_1528,P17,
stim_fb/ques.jpg,stim_fb/negf.jpg,stim_fb/posf.jpg,stim_03/f.jpg,stim_03/e.jpg,1,3,f,1,59,119,41,f,1,0.899741945766,03,03,60.0173743377,PLT_learning_3,B,2014_Mrz_07_1528,P17,
stim_fb/ques.jpg,stim_fb/posf.jpg,stim_fb/negf.jpg,stim_03/f.jpg,stim_03/e.jpg,1,3,f,2,0,120,49,f,1,0.749765110919,03,03,60.0173743377,PLT_learning_3,B,2014_Mrz_07_1528,P17,
stim_fb/ques.jpg,stim_fb/negf.jpg,stim_fb/posf.jpg,stim_03/e.jpg,stim_03/f.jpg,2,3,j,2,1,121,54,j,1,0.666499436473,03,03,60.0173743377,PLT_learning_3,B,2014_Mrz_07_1528,P17,
stim_fb/ques.jpg,stim_fb/negf.jpg,stim_fb/posf.jpg,stim_03/b.jpg,stim_03/a.jpg,1,1,f,2,2,122,7,j,0,0.916397685738,03,03,60.0173743377,PLT_learning_3,B,2014_Mrz_07_1528,P17,
stim_fb/ques.jpg,stim_fb/posf.jpg,stim_fb/negf.jpg,stim_03/f.jpg,stim_03/e.jpg,1,3,f,2,3,123,46,f,1,0.49990412439,03,03,60.0173743377,PLT_learning_3,B,2014_Mrz_07_1528,P17,
stim_fb/ques.jpg,stim_fb/negf.jpg,stim_fb/posf.jpg,stim_03/d.jpg,stim_03/c.jpg,1,2,f,2,4,124,24,f,1,0.74983104401,03,03,60.0173743377,PLT_learning_3,B,2014_Mrz_07_1528,P17,
stim_fb/ques.jpg,stim_fb/negf.jpg,stim_fb/posf.jpg,stim_03/a.jpg,stim_03/b.jpg,2,1,j,2,5,125,11,f,0,1.23295961925,03,03,60.0173743377,PLT_learning_3,B,2014_Mrz_07_1528,P17,
stim_fb/ques.jpg,stim_fb/negf.jpg,stim_fb/posf.jpg,stim_03/f.jpg,stim_03/e.jpg,1,3,f,2,6,126,45,f,1,0.799786218951,03,03,60.0173743377,PLT_learning_3,B,2014_Mrz_07_1528,P17,
stim_fb/ques.jpg,stim_fb/posf.jpg,stim_fb/negf.jpg,stim_03/e.jpg,stim_03/f.jpg,2,3,j,2,7,127,58,j,1,0.633114501718,03,03,60.0173743377,PLT_learning_3,B,2014_Mrz_07_1528,P17,
stim_fb/ques.jpg,stim_fb/negf.jpg,stim_fb/posf.jpg,stim_03/e.jpg,stim_03/f.jpg,2,3,j,2,8,128,52,j,1,1.18298333176,03,03,60.0173743377,PLT_learning_3,B,2014_Mrz_07_1528,P17,
stim_fb/ques.jpg,stim_fb/posf.jpg,stim_fb/negf.jpg,stim_03/c.jpg,stim_03/d.jpg,2,2,j,2,9,129,39,j,1,0.949708573211,03,03,60.0173743377,PLT_learning_3,B,2014_Mrz_07_1528,P17,
stim_fb/ques.jpg,stim_fb/negf.jpg,stim_fb/posf.jpg,stim_03/c.jpg,stim_03/d.jpg,2,2,j,2,10,130,35,f,0,1.0498739939,03,03,60.0173743377,PLT_learning_3,B,2014_Mrz_07_1528,P17,
stim_fb/ques.jpg,stim_fb/negf.jpg,stim_fb/posf.jpg,stim_03/f.jpg,stim_03/e.jpg,1,3,f,2,11,131,40,f,1,0.76642836359,03,03,60.0173743377,PLT_learning_3,B,2014_Mrz_07_1528,P17,
stim_fb/ques.jpg,stim_fb/negf.jpg,stim_fb/posf.jpg,stim_03/d.jpg,stim_03/c.jpg,1,2,f,2,12,132,26,f,1,0.966407103679,03,03,60.0173743377,PLT_learning_3,B,2014_Mrz_07_1528,P17,
stim_fb/ques.jpg,stim_fb/negf.jpg,stim_fb/posf.jpg,stim_03/c.jpg,stim_03/d.jpg,2,2,j,2,13,133,30,f,0,0.933073070602,03,03,60.0173743377,PLT_learning_3,B,2014_Mrz_07_1528,P17,
stim_fb/ques.jpg,stim_fb/negf.jpg,stim_fb/posf.jpg,stim_03/f.jpg,stim_03/e.jpg,1,3,f,2,14,134,44,f,1,0.666510834839,03,03,60.0173743377,PLT_learning_3,B,2014_Mrz_07_1528,P17,
stim_fb/ques.jpg,stim_fb/negf.jpg,stim_fb/posf.jpg,stim_03/c.jpg,stim_03/d.jpg,2,2,j,2,15,135,34,j,1,0.833103461238,03,03,60.0173743377,PLT_learning_3,B,2014_Mrz_07_1528,P17,
stim_fb/ques.jpg,stim_fb/negf.jpg,stim_fb/posf.jpg,stim_03/f.jpg,stim_03/e.jpg,1,3,f,2,16,136,41,f,1,0.816399201511,03,03,60.0173743377,PLT_learning_3,B,2014_Mrz_07_1528,P17,
stim_fb/ques.jpg,stim_fb/negf.jpg,stim_fb/posf.jpg,stim_03/a.jpg,stim_03/b.jpg,2,1,j,2,17,137,10,j,1,0.733157153867,03,03,60.0173743377,PLT_learning_3,B,2014_Mrz_07_1528,P17,
stim_fb/ques.jpg,stim_fb/negf.jpg,stim_fb/posf.jpg,stim_03/d.jpg,stim_03/c.jpg,1,2,f,2,18,138,20,f,1,0.716480054736,03,03,60.0173743377,PLT_learning_3,B,2014_Mrz_07_1528,P17,
stim_fb/ques.jpg,stim_fb/posf.jpg,stim_fb/negf.jpg,stim_03/a.jpg,stim_03/b.jpg,2,1,j,2,19,139,19,j,1,0.633168071035,03,03,60.0173743377,PLT_learning_3,B,2014_Mrz_07_1528,P17,
stim_fb/ques.jpg,stim_fb/negf.jpg,stim_fb/posf.jpg,stim_03/a.jpg,stim_03/b.jpg,2,1,j,2,20,140,14,f,0,1.04964547618,03,03,60.0173743377,PLT_learning_3,B,2014_Mrz_07_1528,P17,
stim_fb/ques.jpg,stim_fb/negf.jpg,stim_fb/posf.jpg,stim_03/b.jpg,stim_03/a.jpg,1,1,f,2,21,141,0,j,0,0.71643216956,03,03,60.0173743377,PLT_learning_3,B,2014_Mrz_07_1528,P17,
stim_fb/ques.jpg,stim_fb/negf.jpg,stim_fb/posf.jpg,stim_03/e.jpg,stim_03/f.jpg,2,3,j,2,22,142,51,f,0,0.749796545151,03,03,60.0173743377,PLT_learning_3,B,2014_Mrz_07_1528,P17,
stim_fb/ques.jpg,stim_fb/negf.jpg,stim_fb/posf.jpg,stim_03/b.jpg,stim_03/a.jpg,1,1,f,2,23,143,5,f,1,0.783112641584,03,03,60.0173743377,PLT_learning_3,B,2014_Mrz_07_1528,P17,
stim_fb/ques.jpg,stim_fb/negf.jpg,stim_fb/posf.jpg,stim_03/b.jpg,stim_03/a.jpg,1,1,f,2,24,144,2,f,1,0.916420744124,03,03,60.0173743377,PLT_learning_3,B,2014_Mrz_07_1528,P17,
stim_fb/ques.jpg,stim_fb/posf.jpg,stim_fb/negf.jpg,stim_03/a.jpg,stim_03/b.jpg,2,1,j,2,25,145,18,j,1,0.766463214324,03,03,60.0173743377,PLT_learning_3,B,2014_Mrz_07_1528,P17,
stim_fb/ques.jpg,stim_fb/negf.jpg,stim_fb/posf.jpg,stim_03/b.jpg,stim_03/a.jpg,1,1,f,2,26,146,1,f,1,0.683164740247,03,03,60.0173743377,PLT_learning_3,B,2014_Mrz_07_1528,P17,
stim_fb/ques.jpg,stim_fb/negf.jpg,stim_fb/posf.jpg,stim_03/b.jpg,stim_03/a.jpg,1,1,f,2,27,147,3,f,1,1.14967262174,03,03,60.0173743377,PLT_learning_3,B,2014_Mrz_07_1528,P17,
stim_fb/ques.jpg,stim_fb/posf.jpg,stim_fb/negf.jpg,stim_03/f.jpg,stim_03/e.jpg,1,3,f,2,28,148,48,f,1,1.13298110773,03,03,60.0173743377,PLT_learning_3,B,2014_Mrz_07_1528,P17,
stim_fb/ques.jpg,stim_fb/negf.jpg,stim_fb/posf.jpg,stim_03/b.jpg,stim_03/a.jpg,1,1,f,2,29,149,4,f,1,0.99971897159,03,03,60.0173743377,PLT_learning_3,B,2014_Mrz_07_1528,P17,
stim_fb/ques.jpg,stim_fb/posf.jpg,stim_fb/negf.jpg,stim_03/b.jpg,stim_03/a.jpg,1,1,f,2,30,150,9,f,1,0.833109443127,03,03,60.0173743377,PLT_learning_3,B,2014_Mrz_07_1528,P17,
stim_fb/ques.jpg,stim_fb/negf.jpg,stim_fb/posf.jpg,stim_03/a.jpg,stim_03/b.jpg,2,1,j,2,31,151,12,j,1,0.899735371404,03,03,60.0173743377,PLT_learning_3,B,2014_Mrz_07_1528,P17,
stim_fb/ques.jpg,stim_fb/negf.jpg,stim_fb/posf.jpg,stim_03/b.jpg,stim_03/a.jpg,1,1,f,2,32,152,6,f,1,0.799747888559,03,03,60.0173743377,PLT_learning_3,B,2014_Mrz_07_1528,P17,
stim_fb/ques.jpg,stim_fb/negf.jpg,stim_fb/posf.jpg,stim_03/e.jpg,stim_03/f.jpg,2,3,j,2,33,153,50,j,1,0.816490968897,03,03,60.0173743377,PLT_learning_3,B,2014_Mrz_07_1528,P17,
stim_fb/ques.jpg,stim_fb/posf.jpg,stim_fb/negf.jpg,stim_03/d.jpg,stim_03/c.jpg,1,2,f,2,34,154,28,f,1,0.949697132739,03,03,60.0173743377,PLT_learning_3,B,2014_Mrz_07_1528,P17,
stim_fb/ques.jpg,stim_fb/posf.jpg,stim_fb/negf.jpg,stim_03/e.jpg,stim_03/f.jpg,2,3,j,2,35,155,59,j,1,0.71649760642,03,03,60.0173743377,PLT_learning_3,B,2014_Mrz_07_1528,P17,
stim_fb/ques.jpg,stim_fb/negf.jpg,stim_fb/posf.jpg,stim_03/f.jpg,stim_03/e.jpg,1,3,f,2,36,156,43,f,1,0.683163501162,03,03,60.0173743377,PLT_learning_3,B,2014_Mrz_07_1528,P17,
stim_fb/ques.jpg,stim_fb/posf.jpg,stim_fb/negf.jpg,stim_03/e.jpg,stim_03/f.jpg,2,3,j,2,37,157,56,j,1,0.81648548926,03,03,60.0173743377,PLT_learning_3,B,2014_Mrz_07_1528,P17,
stim_fb/ques.jpg,stim_fb/negf.jpg,stim_fb/posf.jpg,stim_03/a.jpg,stim_03/b.jpg,2,1,j,2,38,158,16,f,0,0.999721708402,03,03,60.0173743377,PLT_learning_3,B,2014_Mrz_07_1528,P17,
stim_fb/ques.jpg,stim_fb/negf.jpg,stim_fb/posf.jpg,stim_03/d.jpg,stim_03/c.jpg,1,2,f,2,39,159,22,j,0,0.999720150525,03,03,60.0173743377,PLT_learning_3,B,2014_Mrz_07_1528,P17,
stim_fb/ques.jpg,stim_fb/negf.jpg,stim_fb/posf.jpg,stim_03/c.jpg,stim_03/d.jpg,2,2,j,2,40,160,32,f,0,1.06636969057,03,03,60.0173743377,PLT_learning_3,B,2014_Mrz_07_1528,P17,
stim_fb/ques.jpg,stim_fb/negf.jpg,stim_fb/posf.jpg,stim_03/d.jpg,stim_03/c.jpg,1,2,f,2,41,161,23,f,1,1.03304754909,03,03,60.0173743377,PLT_learning_3,B,2014_Mrz_07_1528,P17,
stim_fb/ques.jpg,stim_fb/negf.jpg,stim_fb/posf.jpg,stim_03/a.jpg,stim_03/b.jpg,2,1,j,2,42,162,13,j,1,0.833123839959,03,03,60.0173743377,PLT_learning_3,B,2014_Mrz_07_1528,P17,
stim_fb/ques.jpg,stim_fb/negf.jpg,stim_fb/posf.jpg,stim_03/e.jpg,stim_03/f.jpg,2,3,j,2,43,163,55,j,1,0.749798878958,03,03,60.0173743377,PLT_learning_3,B,2014_Mrz_07_1528,P17,
stim_fb/ques.jpg,stim_fb/posf.jpg,stim_fb/negf.jpg,stim_03/c.jpg,stim_03/d.jpg,2,2,j,2,44,164,37,f,0,1.21636265456,03,03,60.0173743377,PLT_learning_3,B,2014_Mrz_07_1528,P17,
stim_fb/ques.jpg,stim_fb/negf.jpg,stim_fb/posf.jpg,stim_03/d.jpg,stim_03/c.jpg,1,2,f,2,45,165,25,j,0,0.549742599898,03,03,60.0173743377,PLT_learning_3,B,2014_Mrz_07_1528,P17,
stim_fb/ques.jpg,stim_fb/negf.jpg,stim_fb/posf.jpg,stim_03/c.jpg,stim_03/d.jpg,2,2,j,2,46,166,31,f,0,0.649808292386,03,03,60.0173743377,PLT_learning_3,B,2014_Mrz_07_1528,P17,
stim_fb/ques.jpg,stim_fb/negf.jpg,stim_fb/posf.jpg,stim_03/a.jpg,stim_03/b.jpg,2,1,j,2,47,167,15,j,1,0.649912910758,03,03,60.0173743377,PLT_learning_3,B,2014_Mrz_07_1528,P17,
stim_fb/ques.jpg,stim_fb/posf.jpg,stim_fb/negf.jpg,stim_03/e.jpg,stim_03/f.jpg,2,3,j,2,48,168,57,j,1,0.749730762436,03,03,60.0173743377,PLT_learning_3,B,2014_Mrz_07_1528,P17,
stim_fb/ques.jpg,stim_fb/negf.jpg,stim_fb/posf.jpg,stim_03/f.jpg,stim_03/e.jpg,1,3,f,2,49,169,42,f,1,0.616377337097,03,03,60.0173743377,PLT_learning_3,B,2014_Mrz_07_1528,P17,
stim_fb/ques.jpg,stim_fb/posf.jpg,stim_fb/negf.jpg,stim_03/b.jpg,stim_03/a.jpg,1,1,f,2,50,170,8,j,0,0.599834179313,03,03,60.0173743377,PLT_learning_3,B,2014_Mrz_07_1528,P17,
stim_fb/ques.jpg,stim_fb/posf.jpg,stim_fb/negf.jpg,stim_03/f.jpg,stim_03/e.jpg,1,3,f,2,51,171,47,f,1,0.616513395715,03,03,60.0173743377,PLT_learning_3,B,2014_Mrz_07_1528,P17,
stim_fb/ques.jpg,stim_fb/negf.jpg,stim_fb/posf.jpg,stim_03/d.jpg,stim_03/c.jpg,1,2,f,2,52,172,21,j,0,0.616523702363,03,03,60.0173743377,PLT_learning_3,B,2014_Mrz_07_1528,P17,
stim_fb/ques.jpg,stim_fb/posf.jpg,stim_fb/negf.jpg,stim_03/d.jpg,stim_03/c.jpg,1,2,f,2,53,173,29,f,1,0.616558790691,03,03,60.0173743377,PLT_learning_3,B,2014_Mrz_07_1528,P17,
stim_fb/ques.jpg,stim_fb/posf.jpg,stim_fb/negf.jpg,stim_03/d.jpg,stim_03/c.jpg,1,2,f,2,54,174,27,f,1,0.683154436607,03,03,60.0173743377,PLT_learning_3,B,2014_Mrz_07_1528,P17,
stim_fb/ques.jpg,stim_fb/negf.jpg,stim_fb/posf.jpg,stim_03/a.jpg,stim_03/b.jpg,2,1,j,2,55,175,17,f,0,0.749789185837,03,03,60.0173743377,PLT_learning_3,B,2014_Mrz_07_1528,P17,
stim_fb/ques.jpg,stim_fb/negf.jpg,stim_fb/posf.jpg,stim_03/c.jpg,stim_03/d.jpg,2,2,j,2,56,176,36,f,0,0.949651999414,03,03,60.0173743377,PLT_learning_3,B,2014_Mrz_07_1528,P17,
stim_fb/ques.jpg,stim_fb/negf.jpg,stim_fb/posf.jpg,stim_03/c.jpg,stim_03/d.jpg,2,2,j,2,57,177,33,j,1,0.683137925513,03,03,60.0173743377,PLT_learning_3,B,2014_Mrz_07_1528,P17,
stim_fb/ques.jpg,stim_fb/negf.jpg,stim_fb/posf.jpg,stim_03/e.jpg,stim_03/f.jpg,2,3,j,2,58,178,53,j,1,0.933099566548,03,03,60.0173743377,PLT_learning_3,B,2014_Mrz_07_1528,P17,
stim_fb/ques.jpg,stim_fb/posf.jpg,stim_fb/negf.jpg,stim_03/c.jpg,stim_03/d.jpg,2,2,j,2,59,179,38,f,0,0.666485881738,03,03,60.0173743377,PLT_learning_3,B,2014_Mrz_07_1528,P17,
stim_fb/ques.jpg,stim_fb/posf.jpg,stim_fb/negf.jpg,stim_03/a.jpg,stim_03/b.jpg,2,1,j,3,0,180,19,f,0,0.649821654642,03,03,60.0173743377,PLT_learning_3,B,2014_Mrz_07_1528,P17,
stim_fb/ques.jpg,stim_fb/negf.jpg,stim_fb/posf.jpg,stim_03/c.jpg,stim_03/d.jpg,2,2,j,3,1,181,33,j,1,0.533191544455,03,03,60.0173743377,PLT_learning_3,B,2014_Mrz_07_1528,P17,
stim_fb/ques.jpg,stim_fb/negf.jpg,stim_fb/posf.jpg,stim_03/c.jpg,stim_03/d.jpg,2,2,j,3,2,182,31,f,0,0.466566184594,03,03,60.0173743377,PLT_learning_3,B,2014_Mrz_07_1528,P17,
stim_fb/ques.jpg,stim_fb/negf.jpg,stim_fb/posf.jpg,stim_03/e.jpg,stim_03/f.jpg,2,3,j,3,3,183,50,j,1,0.44988136525,03,03,60.0173743377,PLT_learning_3,B,2014_Mrz_07_1528,P17,
stim_fb/ques.jpg,stim_fb/negf.jpg,stim_fb/posf.jpg,stim_03/a.jpg,stim_03/b.jpg,2,1,j,3,4,184,15,j,1,0.599842353658,03,03,60.0173743377,PLT_learning_3,B,2014_Mrz_07_1528,P17,
stim_fb/ques.jpg,stim_fb/posf.jpg,stim_fb/negf.jpg,stim_03/c.jpg,stim_03/d.jpg,2,2,j,3,5,185,37,f,0,0.699830901154,03,03,60.0173743377,PLT_learning_3,B,2014_Mrz_07_1528,P17,
stim_fb/ques.jpg,stim_fb/negf.jpg,stim_fb/posf.jpg,stim_03/d.jpg,stim_03/c.jpg,1,2,f,3,6,186,21,f,1,0.999737350332,03,03,60.0173743377,PLT_learning_3,B,2014_Mrz_07_1528,P17,
stim_fb/ques.jpg,stim_fb/negf.jpg,stim_fb/posf.jpg,stim_03/e.jpg,stim_03/f.jpg,2,3,j,3,7,187,54,j,1,0.499884497545,03,03,60.0173743377,PLT_learning_3,B,2014_Mrz_07_1528,P17,
stim_fb/ques.jpg,stim_fb/negf.jpg,stim_fb/posf.jpg,stim_03/f.jpg,stim_03/e.jpg,1,3,f,3,8,188,44,f,1,0.483234907879,03,03,60.0173743377,PLT_learning_3,B,2014_Mrz_07_1528,P17,
stim_fb/ques.jpg,stim_fb/negf.jpg,stim_fb/posf.jpg,stim_03/b.jpg,stim_03/a.jpg,1,1,f,3,9,189,1,j,0,0.466571814603,03,03,60.0173743377,PLT_learning_3,B,2014_Mrz_07_1528,P17,
stim_fb/ques.jpg,stim_fb/negf.jpg,stim_fb/posf.jpg,stim_03/d.jpg,stim_03/c.jpg,1,2,f,3,10,190,24,f,1,0.633191547462,03,03,60.0173743377,PLT_learning_3,B,2014_Mrz_07_1528,P17,
stim_fb/ques.jpg,stim_fb/negf.jpg,stim_fb/posf.jpg,stim_03/e.jpg,stim_03/f.jpg,2,3,j,3,11,191,53,j,1,0.76646322335,03,03,60.0173743377,PLT_learning_3,B,2014_Mrz_07_1528,P17,
stim_fb/ques.jpg,stim_fb/posf.jpg,stim_fb/negf.jpg,stim_03/f.jpg,stim_03/e.jpg,1,3,f,3,12,192,49,f,1,0.49990500859,03,03,60.0173743377,PLT_learning_3,B,2014_Mrz_07_1528,P17,
stim_fb/ques.jpg,stim_fb/negf.jpg,stim_fb/posf.jpg,stim_03/b.jpg,stim_03/a.jpg,1,1,f,3,13,193,4,j,0,0.74980278869,03,03,60.0173743377,PLT_learning_3,B,2014_Mrz_07_1528,P17,
stim_fb/ques.jpg,stim_fb/negf.jpg,stim_fb/posf.jpg,stim_03/e.jpg,stim_03/f.jpg,2,3,j,3,14,194,51,f,0,0.566537643557,03,03,60.0173743377,PLT_learning_3,B,2014_Mrz_07_1528,P17,
stim_fb/ques.jpg,stim_fb/negf.jpg,stim_fb/posf.jpg,stim_03/f.jpg,stim_03/e.jpg,1,3,f,3,15,195,42,f,1,0.599848509977,03,03,60.0173743377,PLT_learning_3,B,2014_Mrz_07_1528,P17,
stim_fb/ques.jpg,stim_fb/negf.jpg,stim_fb/posf.jpg,stim_03/b.jpg,stim_03/a.jpg,1,1,f,3,16,196,3,f,1,0.916417405817,03,03,60.0173743377,PLT_learning_3,B,2014_Mrz_07_1528,P17,
stim_fb/ques.jpg,stim_fb/posf.jpg,stim_fb/negf.jpg,stim_03/b.jpg,stim_03/a.jpg,1,1,f,3,17,197,9,f,1,0.68315588621,03,03,60.0173743377,PLT_learning_3,B,2014_Mrz_07_1528,P17,
stim_fb/ques.jpg,stim_fb/negf.jpg,stim_fb/posf.jpg,stim_03/f.jpg,stim_03/e.jpg,1,3,f,3,18,198,43,f,1,0.699824164389,03,03,60.0173743377,PLT_learning_3,B,2014_Mrz_07_1528,P17,
stim_fb/ques.jpg,stim_fb/negf.jpg,stim_fb/posf.jpg,stim_03/c.jpg,stim_03/d.jpg,2,2,j,3,19,199,32,j,1,0.749801480433,03,03,60.0173743377,PLT_learning_3,B,2014_Mrz_07_1528,P17,
stim_fb/ques.jpg,stim_fb/negf.jpg,stim_fb/posf.jpg,stim_03/c.jpg,stim_03/d.jpg,2,2,j,3,20,200,35,f,0,1.09968901403,03,03,60.0173743377,PLT_learning_3,B,2014_Mrz_07_1528,P17,
stim_fb/ques.jpg,stim_fb/negf.jpg,stim_fb/posf.jpg,stim_03/a.jpg,stim_03/b.jpg,2,1,j,3,21,201,10,j,1,0.883060545933,03,03,60.0173743377,PLT_learning_3,B,2014_Mrz_07_1528,P17,
stim_fb/ques.jpg,stim_fb/posf.jpg,stim_fb/negf.jpg,stim_03/f.jpg,stim_03/e.jpg,1,3,f,3,22,202,48,f,1,0.666496386882,03,03,60.0173743377,PLT_learning_3,B,2014_Mrz_07_1528,P17,
stim_fb/ques.jpg,stim_fb/negf.jpg,stim_fb/posf.jpg,stim_03/b.jpg,stim_03/a.jpg,1,1,f,3,23,203,6,j,0,0.783129739139,03,03,60.0173743377,PLT_learning_3,B,2014_Mrz_07_1528,P17,
stim_fb/ques.jpg,stim_fb/negf.jpg,stim_fb/posf.jpg,stim_03/f.jpg,stim_03/e.jpg,1,3,f,3,24,204,41,f,1,0.766494913216,03,03,60.0173743377,PLT_learning_3,B,2014_Mrz_07_1528,P17,
stim_fb/ques.jpg,stim_fb/negf.jpg,stim_fb/posf.jpg,stim_03/c.jpg,stim_03/d.jpg,2,2,j,3,25,205,30,j,1,0.983075267573,03,03,60.0173743377,PLT_learning_3,B,2014_Mrz_07_1528,P17,
stim_fb/ques.jpg,stim_fb/posf.jpg,stim_fb/negf.jpg,stim_03/f.jpg,stim_03/e.jpg,1,3,f,3,26,206,46,f,1,0.799817328378,03,03,60.0173743377,PLT_learning_3,B,2014_Mrz_07_1528,P17,
stim_fb/ques.jpg,stim_fb/negf.jpg,stim_fb/posf.jpg,stim_03/b.jpg,stim_03/a.jpg,1,1,f,3,27,207,0,f,1,1.08300405635,03,03,60.0173743377,PLT_learning_3,B,2014_Mrz_07_1528,P17,
stim_fb/ques.jpg,stim_fb/negf.jpg,stim_fb/posf.jpg,stim_03/d.jpg,stim_03/c.jpg,1,2,f,3,28,208,25,f,1,0.866382147567,03,03,60.0173743377,PLT_learning_3,B,2014_Mrz_07_1528,P17,
stim_fb/ques.jpg,stim_fb/negf.jpg,stim_fb/posf.jpg,stim_03/c.jpg,stim_03/d.jpg,2,2,j,3,29,209,34,j,1,0.916414987798,03,03,60.0173743377,PLT_learning_3,B,2014_Mrz_07_1528,P17,
stim_fb/ques.jpg,stim_fb/negf.jpg,stim_fb/posf.jpg,stim_03/f.jpg,stim_03/e.jpg,1,3,f,3,30,210,40,f,1,0.649826030534,03,03,60.0173743377,PLT_learning_3,B,2014_Mrz_07_1528,P17,
stim_fb/ques.jpg,stim_fb/negf.jpg,stim_fb/posf.jpg,stim_03/f.jpg,stim_03/e.jpg,1,3,f,3,31,211,45,f,1,0.749806701428,03,03,60.0173743377,PLT_learning_3,B,2014_Mrz_07_1528,P17,
stim_fb/ques.jpg,stim_fb/negf.jpg,stim_fb/posf.jpg,stim_03/a.jpg,stim_03/b.jpg,2,1,j,3,32,212,11,j,1,0.51652345575,03,03,60.0173743377,PLT_learning_3,B,2014_Mrz_07_1528,P17,
stim_fb/ques.jpg,stim_fb/posf.jpg,stim_fb/negf.jpg,stim_03/c.jpg,stim_03/d.jpg,2,2,j,3,33,213,39,f,0,0.483228219229,03,03,60.0173743377,PLT_learning_3,B,2014_Mrz_07_1528,P17,
stim_fb/ques.jpg,stim_fb/posf.jpg,stim_fb/negf.jpg,stim_03/b.jpg,stim_03/a.jpg,1,1,f,3,34,214,8,j,0,0.816448391935,03,03,60.0173743377,PLT_learning_3,B,2014_Mrz_07_1528,P17,
stim_fb/ques.jpg,stim_fb/negf.jpg,stim_fb/posf.jpg,stim_03/b.jpg,stim_03/a.jpg,1,1,f,3,35,215,7,f,1,0.649844240852,03,03,60.0173743377,PLT_learning_3,B,2014_Mrz_07_1528,P17,
stim_fb/ques.jpg,stim_fb/posf.jpg,stim_fb/negf.jpg,stim_03/c.jpg,stim_03/d.jpg,2,2,j,3,36,216,38,j,1,0.899765148512,03,03,60.0173743377,PLT_learning_3,B,2014_Mrz_07_1528,P17,
stim_fb/ques.jpg,stim_fb/negf.jpg,stim_fb/posf.jpg,stim_03/d.jpg,stim_03/c.jpg,1,2,f,3,37,217,23,f,1,0.849773393533,03,03,60.0173743377,PLT_learning_3,B,2014_Mrz_07_1528,P17,
stim_fb/ques.jpg,stim_fb/posf.jpg,stim_fb/negf.jpg,stim_03/d.jpg,stim_03/c.jpg,1,2,f,3,38,218,29,j,0,1.04969208618,03,03,60.0173743377,PLT_learning_3,B,2014_Mrz_07_1528,P17,
stim_fb/ques.jpg,stim_fb/negf.jpg,stim_fb/posf.jpg,stim_03/d.jpg,stim_03/c.jpg,1,2,f,3,39,219,26,f,1,0.833103867248,03,03,60.0173743377,PLT_learning_3,B,2014_Mrz_07_1528,P17,
stim_fb/ques.jpg,stim_fb/negf.jpg,stim_fb/posf.jpg,stim_03/a.jpg,stim_03/b.jpg,2,1,j,3,40,220,17,j,1,0.683156845596,03,03,60.0173743377,PLT_learning_3,B,2014_Mrz_07_1528,P17,
stim_fb/ques.jpg,stim_fb/negf.jpg,stim_fb/posf.jpg,stim_03/b.jpg,stim_03/a.jpg,1,1,f,3,41,221,5,f,1,0.949765285357,03,03,60.0173743377,PLT_learning_3,B,2014_Mrz_07_1528,P17,
stim_fb/ques.jpg,stim_fb/negf.jpg,stim_fb/posf.jpg,stim_03/d.jpg,stim_03/c.jpg,1,2,f,3,42,222,20,j,0,1.09973618042,03,03,60.0173743377,PLT_learning_3,B,2014_Mrz_07_1528,P17,
stim_fb/ques.jpg,stim_fb/negf.jpg,stim_fb/posf.jpg,stim_03/e.jpg,stim_03/f.jpg,2,3,j,3,43,223,55,f,0,0.949754536603,03,03,60.0173743377,PLT_learning_3,B,2014_Mrz_07_1528,P17,
stim_fb/ques.jpg,stim_fb/negf.jpg,stim_fb/posf.jpg,stim_03/e.jpg,stim_03/f.jpg,2,3,j,3,44,224,52,j,1,0.799820543376,03,03,60.0173743377,PLT_learning_3,B,2014_Mrz_07_1528,P17,
stim_fb/ques.jpg,stim_fb/posf.jpg,stim_fb/negf.jpg,stim_03/e.jpg,stim_03/f.jpg,2,3,j,3,45,225,58,f,0,0.466564641752,03,03,60.0173743377,PLT_learning_3,B,2014_Mrz_07_1528,P17,
stim_fb/ques.jpg,stim_fb/negf.jpg,stim_fb/posf.jpg,stim_03/a.jpg,stim_03/b.jpg,2,1,j,3,46,226,16,j,1,0.699822928313,03,03,60.0173743377,PLT_learning_3,B,2014_Mrz_07_1528,P17,
stim_fb/ques.jpg,stim_fb/negf.jpg,stim_fb/posf.jpg,stim_03/d.jpg,stim_03/c.jpg,1,2,f,3,47,227,22,f,1,0.583184652805,03,03,60.0173743377,PLT_learning_3,B,2014_Mrz_07_1528,P17,
stim_fb/ques.jpg,stim_fb/posf.jpg,stim_fb/negf.jpg,stim_03/d.jpg,stim_03/c.jpg,1,2,f,3,48,228,27,j,0,0.349937292438,03,03,60.0173743377,PLT_learning_3,B,2014_Mrz_07_1528,P17,
stim_fb/ques.jpg,stim_fb/negf.jpg,stim_fb/posf.jpg,stim_03/a.jpg,stim_03/b.jpg,2,1,j,3,49,229,12,f,0,0.449920907657,03,03,60.0173743377,PLT_learning_3,B,2014_Mrz_07_1528,P17,
stim_fb/ques.jpg,stim_fb/posf.jpg,stim_fb/negf.jpg,stim_03/e.jpg,stim_03/f.jpg,2,3,j,3,50,230,59,j,1,0.699818955425,03,03,60.0173743377,PLT_learning_3,B,2014_Mrz_07_1528,P17,
stim_fb/ques.jpg,stim_fb/negf.jpg,stim_fb/posf.jpg,stim_03/b.jpg,stim_03/a.jpg,1,1,f,3,51,231,2,j,0,1.41622800946,03,03,60.0173743377,PLT_learning_3,B,2014_Mrz_07_1528,P17,
stim_fb/ques.jpg,stim_fb/posf.jpg,stim_fb/negf.jpg,stim_03/a.jpg,stim_03/b.jpg,2,1,j,3,52,232,18,j,1,1.09969665605,03,03,60.0173743377,PLT_learning_3,B,2014_Mrz_07_1528,P17,
stim_fb/ques.jpg,stim_fb/negf.jpg,stim_fb/posf.jpg,stim_03/c.jpg,stim_03/d.jpg,2,2,j,3,53,233,36,f,0,0.816452058061,03,03,60.0173743377,PLT_learning_3,B,2014_Mrz_07_1528,P17,
stim_fb/ques.jpg,stim_fb/posf.jpg,stim_fb/negf.jpg,stim_03/e.jpg,stim_03/f.jpg,2,3,j,3,54,234,57,j,1,0.683158511743,03,03,60.0173743377,PLT_learning_3,B,2014_Mrz_07_1528,P17,
stim_fb/ques.jpg,stim_fb/posf.jpg,stim_fb/negf.jpg,stim_03/d.jpg,stim_03/c.jpg,1,2,f,3,55,235,28,f,1,1.01640015188,03,03,60.0173743377,PLT_learning_3,B,2014_Mrz_07_1528,P17,
stim_fb/ques.jpg,stim_fb/posf.jpg,stim_fb/negf.jpg,stim_03/e.jpg,stim_03/f.jpg,2,3,j,3,56,236,56,j,1,0.616526730901,03,03,60.0173743377,PLT_learning_3,B,2014_Mrz_07_1528,P17,
stim_fb/ques.jpg,stim_fb/negf.jpg,stim_fb/posf.jpg,stim_03/a.jpg,stim_03/b.jpg,2,1,j,3,57,237,13,f,0,0.966400637586,03,03,60.0173743377,PLT_learning_3,B,2014_Mrz_07_1528,P17,
stim_fb/ques.jpg,stim_fb/posf.jpg,stim_fb/negf.jpg,stim_03/f.jpg,stim_03/e.jpg,1,3,f,3,58,238,47,f,1,1.39958097916,03,03,60.0173743377,PLT_learning_3,B,2014_Mrz_07_1528,P17,
stim_fb/ques.jpg,stim_fb/negf.jpg,stim_fb/posf.jpg,stim_03/a.jpg,stim_03/b.jpg,2,1,j,3,59,239,14,None,0,,03,03,60.0173743377,PLT_learning_3,B,2014_Mrz_07_1528,P17,
stim_fb/ques.jpg,stim_fb/posf.jpg,stim_fb/negf.jpg,stim_03/b.jpg,stim_03/a.jpg,1,1,f,4,0,240,8,f,1,0.866445548356,03,03,60.0173743377,PLT_learning_3,B,2014_Mrz_07_1528,P17,
stim_fb/ques.jpg,stim_fb/negf.jpg,stim_fb/posf.jpg,stim_03/e.jpg,stim_03/f.jpg,2,3,j,4,1,241,51,j,1,0.56652655797,03,03,60.0173743377,PLT_learning_3,B,2014_Mrz_07_1528,P17,
stim_fb/ques.jpg,stim_fb/negf.jpg,stim_fb/posf.jpg,stim_03/a.jpg,stim_03/b.jpg,2,1,j,4,2,242,16,f,0,0.299961203447,03,03,60.0173743377,PLT_learning_3,B,2014_Mrz_07_1528,P17,
stim_fb/ques.jpg,stim_fb/negf.jpg,stim_fb/posf.jpg,stim_03/e.jpg,stim_03/f.jpg,2,3,j,4,3,243,54,j,1,0.683102879288,03,03,60.0173743377,PLT_learning_3,B,2014_Mrz_07_1528,P17,
stim_fb/ques.jpg,stim_fb/negf.jpg,stim_fb/posf.jpg,stim_03/c.jpg,stim_03/d.jpg,2,2,j,4,4,244,35,f,0,0.649812430685,03,03,60.0173743377,PLT_learning_3,B,2014_Mrz_07_1528,P17,
stim_fb/ques.jpg,stim_fb/posf.jpg,stim_fb/negf.jpg,stim_03/d.jpg,stim_03/c.jpg,1,2,f,4,5,245,27,f,1,0.899756700488,03,03,60.0173743377,PLT_learning_3,B,2014_Mrz_07_1528,P17,
stim_fb/ques.jpg,stim_fb/negf.jpg,stim_fb/posf.jpg,stim_03/a.jpg,stim_03/b.jpg,2,1,j,4,6,246,14,j,1,0.649832204901,03,03,60.0173743377,PLT_learning_3,B,2014_Mrz_07_1528,P17,
stim_fb/ques.jpg,stim_fb/negf.jpg,stim_fb/posf.jpg,stim_03/f.jpg,stim_03/e.jpg,1,3,f,4,7,247,45,f,1,0.783150824613,03,03,60.0173743377,PLT_learning_3,B,2014_Mrz_07_1528,P17,
stim_fb/ques.jpg,stim_fb/negf.jpg,stim_fb/posf.jpg,stim_03/e.jpg,stim_03/f.jpg,2,3,j,4,8,248,52,j,1,0.699826137297,03,03,60.0173743377,PLT_learning_3,B,2014_Mrz_07_1528,P17,
stim_fb/ques.jpg,stim_fb/negf.jpg,stim_fb/posf.jpg,stim_03/e.jpg,stim_03/f.jpg,2,3,j,4,9,249,53,j,1,1.06636999131,03,03,60.0173743377,PLT_learning_3,B,2014_Mrz_07_1528,P17,
stim_fb/ques.jpg,stim_fb/negf.jpg,stim_fb/posf.jpg,stim_03/e.jpg,stim_03/f.jpg,2,3,j,4,10,250,55,f,0,1.23294111119,03,03,60.0173743377,PLT_learning_3,B,2014_Mrz_07_1528,P17,
stim_fb/ques.jpg,stim_fb/negf.jpg,stim_fb/posf.jpg,stim_03/b.jpg,stim_03/a.jpg,1,1,f,4,11,251,3,f,1,0.699775148398,03,03,60.0173743377,PLT_learning_3,B,2014_Mrz_07_1528,P17,
stim_fb/ques.jpg,stim_fb/posf.jpg,stim_fb/negf.jpg,stim_03/f.jpg,stim_03/e.jpg,1,3,f,4,12,252,47,f,1,0.649832734216,03,03,60.0173743377,PLT_learning_3,B,2014_Mrz_07_1528,P17,
stim_fb/ques.jpg,stim_fb/negf.jpg,stim_fb/posf.jpg,stim_03/c.jpg,stim_03/d.jpg,2,2,j,4,13,253,30,j,1,0.633167998858,03,03,60.0173743377,PLT_learning_3,B,2014_Mrz_07_1528,P17,
stim_fb/ques.jpg,stim_fb/posf.jpg,stim_fb/negf.jpg,stim_03/d.jpg,stim_03/c.jpg,1,2,f,4,14,254,28,f,1,0.716493335789,03,03,60.0173743377,PLT_learning_3,B,2014_Mrz_07_1528,P17,
stim_fb/ques.jpg,stim_fb/posf.jpg,stim_fb/negf.jpg,stim_03/a.jpg,stim_03/b.jpg,2,1,j,4,15,255,19,f,0,1.29961081041,03,03,60.0173743377,PLT_learning_3,B,2014_Mrz_07_1528,P17,
stim_fb/ques.jpg,stim_fb/posf.jpg,stim_fb/negf.jpg,stim_03/e.jpg,stim_03/f.jpg,2,3,j,4,16,256,59,j,1,1.01640677135,03,03,60.0173743377,PLT_learning_3,B,2014_Mrz_07_1528,P17,
stim_fb/ques.jpg,stim_fb/posf.jpg,stim_fb/negf.jpg,stim_03/e.jpg,stim_03/f.jpg,2,3,j,4,17,257,56,j,1,1.09968913433,03,03,60.0173743377,PLT_learning_3,B,2014_Mrz_07_1528,P17,
stim_fb/ques.jpg,stim_fb/posf.jpg,stim_fb/negf.jpg,stim_03/c.jpg,stim_03/d.jpg,2,2,j,4,18,258,39,f,0,0.733199556398,03,03,60.0173743377,PLT_learning_3,B,2014_Mrz_07_1528,P17,
stim_fb/ques.jpg,stim_fb/posf.jpg,stim_fb/negf.jpg,stim_03/f.jpg,stim_03/e.jpg,1,3,f,4,19,259,48,f,1,0.683175413811,03,03,60.0173743377,PLT_learning_3,B,2014_Mrz_07_1528,P17,
stim_fb/ques.jpg,stim_fb/negf.jpg,stim_fb/posf.jpg,stim_03/b.jpg,stim_03/a.jpg,1,1,f,4,20,260,7,j,0,0.766459587296,03,03,60.0173743377,PLT_learning_3,B,2014_Mrz_07_1528,P17,
stim_fb/ques.jpg,stim_fb/negf.jpg,stim_fb/posf.jpg,stim_03/d.jpg,stim_03/c.jpg,1,2,f,4,21,261,20,f,1,0.616521588101,03,03,60.0173743377,PLT_learning_3,B,2014_Mrz_07_1528,P17,
stim_fb/ques.jpg,stim_fb/negf.jpg,stim_fb/posf.jpg,stim_03/a.jpg,stim_03/b.jpg,2,1,j,4,22,262,11,j,1,0.64982153735,03,03,60.0173743377,PLT_learning_3,B,2014_Mrz_07_1528,P17,
stim_fb/ques.jpg,stim_fb/negf.jpg,stim_fb/posf.jpg,stim_03/d.jpg,stim_03/c.jpg,1,2,f,4,23,263,24,f,1,0.566519255797,03,03,60.0173743377,PLT_learning_3,B,2014_Mrz_07_1528,P17,
stim_fb/ques.jpg,stim_fb/negf.jpg,stim_fb/posf.jpg,stim_03/f.jpg,stim_03/e.jpg,1,3,f,4,24,264,43,f,1,0.683160782395,03,03,60.0173743377,PLT_learning_3,B,2014_Mrz_07_1528,P17,
stim_fb/ques.jpg,stim_fb/negf.jpg,stim_fb/posf.jpg,stim_03/d.jpg,stim_03/c.jpg,1,2,f,4,25,265,26,f,1,0.799733554886,03,03,60.0173743377,PLT_learning_3,B,2014_Mrz_07_1528,P17,
stim_fb/ques.jpg,stim_fb/negf.jpg,stim_fb/posf.jpg,stim_03/e.jpg,stim_03/f.jpg,2,3,j,4,26,266,50,j,1,0.683152535872,03,03,60.0173743377,PLT_learning_3,B,2014_Mrz_07_1528,P17,
stim_fb/ques.jpg,stim_fb/negf.jpg,stim_fb/posf.jpg,stim_03/a.jpg,stim_03/b.jpg,2,1,j,4,27,267,15,f,0,0.916390666269,03,03,60.0173743377,PLT_learning_3,B,2014_Mrz_07_1528,P17,
stim_fb/ques.jpg,stim_fb/negf.jpg,stim_fb/posf.jpg,stim_03/c.jpg,stim_03/d.jpg,2,2,j,4,28,268,32,j,1,0.666472224751,03,03,60.0173743377,PLT_learning_3,B,2014_Mrz_07_1528,P17,
stim_fb/ques.jpg,stim_fb/negf.jpg,stim_fb/posf.jpg,stim_03/c.jpg,stim_03/d.jpg,2,2,j,4,29,269,31,f,0,0.716455146747,03,03,60.0173743377,PLT_learning_3,B,2014_Mrz_07_1528,P17,
stim_fb/ques.jpg,stim_fb/negf.jpg,stim_fb/posf.jpg,stim_03/b.jpg,stim_03/a.jpg,1,1,f,4,30,270,2,f,1,1.04966588196,03,03,60.0173743377,PLT_learning_3,B,2014_Mrz_07_1528,P17,
stim_fb/ques.jpg,stim_fb/negf.jpg,stim_fb/posf.jpg,stim_03/b.jpg,stim_03/a.jpg,1,1,f,4,31,271,6,f,1,0.633140880363,03,03,60.0173743377,PLT_learning_3,B,2014_Mrz_07_1528,P17,
stim_fb/ques.jpg,stim_fb/negf.jpg,stim_fb/posf.jpg,stim_03/f.jpg,stim_03/e.jpg,1,3,f,4,32,272,42,f,1,0.716479080311,03,03,60.0173743377,PLT_learning_3,B,2014_Mrz_07_1528,P17,
stim_fb/ques.jpg,stim_fb/posf.jpg,stim_fb/negf.jpg,stim_03/e.jpg,stim_03/f.jpg,2,3,j,4,33,273,58,j,1,0.716486015568,03,03,60.0173743377,PLT_learning_3,B,2014_Mrz_07_1528,P17,
stim_fb/ques.jpg,stim_fb/negf.jpg,stim_fb/posf.jpg,stim_03/c.jpg,stim_03/d.jpg,2,2,j,4,34,274,34,f,0,0.883107267215,03,03,60.0173743377,PLT_learning_3,B,2014_Mrz_07_1528,P17,
stim_fb/ques.jpg,stim_fb/negf.jpg,stim_fb/posf.jpg,stim_03/d.jpg,stim_03/c.jpg,1,2,f,4,35,275,25,j,0,0.683187744497,03,03,60.0173743377,PLT_learning_3,B,2014_Mrz_07_1528,P17,
stim_fb/ques.jpg,stim_fb/negf.jpg,stim_fb/posf.jpg,stim_03/a.jpg,stim_03/b.jpg,2,1,j,4,36,276,10,j,1,1.14968377048,03,03,60.0173743377,PLT_learning_3,B,2014_Mrz_07_1528,P17,
stim_fb/ques.jpg,stim_fb/posf.jpg,stim_fb/negf.jpg,stim_03/c.jpg,stim_03/d.jpg,2,2,j,4,37,277,37,f,0,0.966410318681,03,03,60.0173743377,PLT_learning_3,B,2014_Mrz_07_1528,P17,
stim_fb/ques.jpg,stim_fb/negf.jpg,stim_fb/posf.jpg,stim_03/d.jpg,stim_03/c.jpg,1,2,f,4,38,278,21,f,1,0.81645226257,03,03,60.0173743377,PLT_learning_3,B,2014_Mrz_07_1528,P17,
stim_fb/ques.jpg,stim_fb/negf.jpg,stim_fb/posf.jpg,stim_03/a.jpg,stim_03/b.jpg,2,1,j,4,39,279,12,j,1,0.633162453054,03,03,60.0173743377,PLT_learning_3,B,2014_Mrz_07_1528,P17,
stim_fb/ques.jpg,stim_fb/posf.jpg,stim_fb/negf.jpg,stim_03/c.jpg,stim_03/d.jpg,2,2,j,4,40,280,38,f,0,0.64982255689,03,03,60.0173743377,PLT_learning_3,B,2014_Mrz_07_1528,P17,
stim_fb/ques.jpg,stim_fb/negf.jpg,stim_fb/posf.jpg,stim_03/b.jpg,stim_03/a.jpg,1,1,f,4,41,281,5,j,0,0.433238653699,03,03,60.0173743377,PLT_learning_3,B,2014_Mrz_07_1528,P17,
stim_fb/ques.jpg,stim_fb/negf.jpg,stim_fb/posf.jpg,stim_03/c.jpg,stim_03/d.jpg,2,2,j,4,42,282,33,f,0,0.433224016269,03,03,60.0173743377,PLT_learning_3,B,2014_Mrz_07_1528,P17,
stim_fb/ques.jpg,stim_fb/posf.jpg,stim_fb/negf.jpg,stim_03/f.jpg,stim_03/e.jpg,1,3,f,4,43,283,46,f,1,0.766433343986,03,03,60.0173743377,PLT_learning_3,B,2014_Mrz_07_1528,P17,
stim_fb/ques.jpg,stim_fb/posf.jpg,stim_fb/negf.jpg,stim_03/e.jpg,stim_03/f.jpg,2,3,j,4,44,284,57,j,1,0.733146540453,03,03,60.0173743377,PLT_learning_3,B,2014_Mrz_07_1528,P17,
stim_fb/ques.jpg,stim_fb/posf.jpg,stim_fb/negf.jpg,stim_03/a.jpg,stim_03/b.jpg,2,1,j,4,45,285,18,j,1,0.783109625081,03,03,60.0173743377,PLT_learning_3,B,2014_Mrz_07_1528,P17,
stim_fb/ques.jpg,stim_fb/negf.jpg,stim_fb/posf.jpg,stim_03/b.jpg,stim_03/a.jpg,1,1,f,4,46,286,4,f,1,0.966399606023,03,03,60.0173743377,PLT_learning_3,B,2014_Mrz_07_1528,P17,
stim_fb/ques.jpg,stim_fb/posf.jpg,stim_fb/negf.jpg,stim_03/f.jpg,stim_03/e.jpg,1,3,f,4,47,287,49,f,1,0.766427774124,03,03,60.0173743377,PLT_learning_3,B,2014_Mrz_07_1528,P17,
stim_fb/ques.jpg,stim_fb/negf.jpg,stim_fb/posf.jpg,stim_03/a.jpg,stim_03/b.jpg,2,1,j,4,48,288,17,j,1,0.766472173622,03,03,60.0173743377,PLT_learning_3,B,2014_Mrz_07_1528,P17,
stim_fb/ques.jpg,stim_fb/negf.jpg,stim_fb/posf.jpg,stim_03/f.jpg,stim_03/e.jpg,1,3,f,4,49,289,40,f,1,0.56652469634,03,03,60.0173743377,PLT_learning_3,B,2014_Mrz_07_1528,P17,
stim_fb/ques.jpg,stim_fb/negf.jpg,stim_fb/posf.jpg,stim_03/d.jpg,stim_03/c.jpg,1,2,f,4,50,290,22,j,0,0.716480737436,03,03,60.0173743377,PLT_learning_3,B,2014_Mrz_07_1528,P17,
stim_fb/ques.jpg,stim_fb/posf.jpg,stim_fb/negf.jpg,stim_03/b.jpg,stim_03/a.jpg,1,1,f,4,51,291,9,f,1,0.616572435651,03,03,60.0173743377,PLT_learning_3,B,2014_Mrz_07_1528,P17,
stim_fb/ques.jpg,stim_fb/posf.jpg,stim_fb/negf.jpg,stim_03/d.jpg,stim_03/c.jpg,1,2,f,4,52,292,29,j,0,0.599849096441,03,03,60.0173743377,PLT_learning_3,B,2014_Mrz_07_1528,P17,
stim_fb/ques.jpg,stim_fb/negf.jpg,stim_fb/posf.jpg,stim_03/c.jpg,stim_03/d.jpg,2,2,j,4,53,293,36,f,0,0.699827418488,03,03,60.0173743377,PLT_learning_3,B,2014_Mrz_07_1528,P17,
stim_fb/ques.jpg,stim_fb/negf.jpg,stim_fb/posf.jpg,stim_03/a.jpg,stim_03/b.jpg,2,1,j,4,54,294,13,j,1,0.883085384754,03,03,60.0173743377,PLT_learning_3,B,2014_Mrz_07_1528,P17,
stim_fb/ques.jpg,stim_fb/negf.jpg,stim_fb/posf.jpg,stim_03/b.jpg,stim_03/a.jpg,1,1,f,4,55,295,1,f,1,1.09964649421,03,03,60.0173743377,PLT_learning_3,B,2014_Mrz_07_1528,P17,
stim_fb/ques.jpg,stim_fb/negf.jpg,stim_fb/posf.jpg,stim_03/d.jpg,stim_03/c.jpg,1,2,f,4,56,296,23,f,1,0.733127951189,03,03,60.0173743377,PLT_learning_3,B,2014_Mrz_07_1528,P17,
stim_fb/ques.jpg,stim_fb/negf.jpg,stim_fb/posf.jpg,stim_03/b.jpg,stim_03/a.jpg,1,1,f,4,57,297,0,j,0,0.683179037827,03,03,60.0173743377,PLT_learning_3,B,2014_Mrz_07_1528,P17,
stim_fb/ques.jpg,stim_fb/negf.jpg,stim_fb/posf.jpg,stim_03/f.jpg,stim_03/e.jpg,1,3,f,4,58,298,41,f,1,0.449897798146,03,03,60.0173743377,PLT_learning_3,B,2014_Mrz_07_1528,P17,
stim_fb/ques.jpg,stim_fb/negf.jpg,stim_fb/posf.jpg,stim_03/f.jpg,stim_03/e.jpg,1,3,f,4,59,299,44,f,1,0.649845888958,03,03,60.0173743377,PLT_learning_3,B,2014_Mrz_07_1528,P17,
stim_fb/ques.jpg,stim_fb/negf.jpg,stim_fb/posf.jpg,stim_03/a.jpg,stim_03/b.jpg,2,1,j,5,0,300,14,f,0,0.516576979957,03,03,60.0173743377,PLT_learning_3,B,2014_Mrz_07_1528,P17,
stim_fb/ques.jpg,stim_fb/posf.jpg,stim_fb/negf.jpg,stim_03/e.jpg,stim_03/f.jpg,2,3,j,5,1,301,59,j,1,0.59978099796,03,03,60.0173743377,PLT_learning_3,B,2014_Mrz_07_1528,P17,
stim_fb/ques.jpg,stim_fb/posf.jpg,stim_fb/negf.jpg,stim_03/d.jpg,stim_03/c.jpg,1,2,f,5,2,302,28,f,1,0.849758846329,03,03,60.0173743377,PLT_learning_3,B,2014_Mrz_07_1528,P17,
stim_fb/ques.jpg,stim_fb/negf.jpg,stim_fb/posf.jpg,stim_03/e.jpg,stim_03/f.jpg,2,3,j,5,3,303,55,j,1,0.566537114242,03,03,60.0173743377,PLT_learning_3,B,2014_Mrz_07_1528,P17,
stim_fb/ques.jpg,stim_fb/negf.jpg,stim_fb/posf.jpg,stim_03/d.jpg,stim_03/c.jpg,1,2,f,5,4,304,26,j,0,0.766793478269,03,03,60.0173743377,PLT_learning_3,B,2014_Mrz_07_1528,P17,
stim_fb/ques.jpg,stim_fb/posf.jpg,stim_fb/negf.jpg,stim_03/c.jpg,stim_03/d.jpg,2,2,j,5,5,305,38,f,0,0.833107103303,03,03,60.0173743377,PLT_learning_3,B,2014_Mrz_07_1528,P17,
stim_fb/ques.jpg,stim_fb/negf.jpg,stim_fb/posf.jpg,stim_03/b.jpg,stim_03/a.jpg,1,1,f,5,6,306,3,j,0,0.716319942258,03,03,60.0173743377,PLT_learning_3,B,2014_Mrz_07_1528,P17,
stim_fb/ques.jpg,stim_fb/posf.jpg,stim_fb/negf.jpg,stim_03/b.jpg,stim_03/a.jpg,1,1,f,5,7,307,9,f,1,1.06637157326,03,03,60.0173743377,PLT_learning_3,B,2014_Mrz_07_1528,P17,
stim_fb/ques.jpg,stim_fb/posf.jpg,stim_fb/negf.jpg,stim_03/a.jpg,stim_03/b.jpg,2,1,j,5,8,308,19,j,1,1.01636289516,03,03,60.0173743377,PLT_learning_3,B,2014_Mrz_07_1528,P17,
stim_fb/ques.jpg,stim_fb/negf.jpg,stim_fb/posf.jpg,stim_03/d.jpg,stim_03/c.jpg,1,2,f,5,9,309,24,f,1,1.44956134479,03,03,60.0173743377,PLT_learning_3,B,2014_Mrz_07_1528,P17,
stim_fb/ques.jpg,stim_fb/posf.jpg,stim_fb/negf.jpg,stim_03/f.jpg,stim_03/e.jpg,1,3,f,5,10,310,49,f,1,0.683145805124,03,03,60.0173743377,PLT_learning_3,B,2014_Mrz_07_1528,P17,
stim_fb/ques.jpg,stim_fb/negf.jpg,stim_fb/posf.jpg,stim_03/b.jpg,stim_03/a.jpg,1,1,f,5,11,311,0,j,0,1.03303246053,03,03,60.0173743377,PLT_learning_3,B,2014_Mrz_07_1528,P17,
stim_fb/ques.jpg,stim_fb/posf.jpg,stim_fb/negf.jpg,stim_03/c.jpg,stim_03/d.jpg,2,2,j,5,12,312,37,j,1,1.1163275151,03,03,60.0173743377,PLT_learning_3,B,2014_Mrz_07_1528,P17,
stim_fb/ques.jpg,stim_fb/negf.jpg,stim_fb/posf.jpg,stim_03/d.jpg,stim_03/c.jpg,1,2,f,5,13,313,25,f,1,1.13304171156,03,03,60.0173743377,PLT_learning_3,B,2014_Mrz_07_1528,P17,
stim_fb/ques.jpg,stim_fb/negf.jpg,stim_fb/posf.jpg,stim_03/e.jpg,stim_03/f.jpg,2,3,j,5,14,314,50,j,1,0.766455009907,03,03,60.0173743377,PLT_learning_3,B,2014_Mrz_07_1528,P17,
stim_fb/ques.jpg,stim_fb/negf.jpg,stim_fb/posf.jpg,stim_03/c.jpg,stim_03/d.jpg,2,2,j,5,15,315,35,f,0,0.666476991613,03,03,60.0173743377,PLT_learning_3,B,2014_Mrz_07_1528,P17,
stim_fb/ques.jpg,stim_fb/negf.jpg,stim_fb/posf.jpg,stim_03/e.jpg,stim_03/f.jpg,2,3,j,5,16,316,51,j,1,0.716484581,03,03,60.0173743377,PLT_learning_3,B,2014_Mrz_07_1528,P17,
stim_fb/ques.jpg,stim_fb/negf.jpg,stim_fb/posf.jpg,stim_03/c.jpg,stim_03/d.jpg,2,2,j,5,17,317,34,j,1,0.633178985201,03,03,60.0173743377,PLT_learning_3,B,2014_Mrz_07_1528,P17,
stim_fb/ques.jpg,stim_fb/negf.jpg,stim_fb/posf.jpg,stim_03/d.jpg,stim_03/c.jpg,1,2,f,5,18,318,20,f,1,1.11633996007,03,03,60.0173743377,PLT_learning_3,B,2014_Mrz_07_1528,P17,
stim_fb/ques.jpg,stim_fb/negf.jpg,stim_fb/posf.jpg,stim_03/c.jpg,stim_03/d.jpg,2,2,j,5,19,319,31,j,1,0.766442447639,03,03,60.0173743377,PLT_learning_3,B,2014_Mrz_07_1528,P17,
stim_fb/ques.jpg,stim_fb/negf.jpg,stim_fb/posf.jpg,stim_03/b.jpg,stim_03/a.jpg,1,1,f,5,20,320,1,j,0,0.933080099097,03,03,60.0173743377,PLT_learning_3,B,2014_Mrz_07_1528,P17,
stim_fb/ques.jpg,stim_fb/posf.jpg,stim_fb/negf.jpg,stim_03/d.jpg,stim_03/c.jpg,1,2,f,5,21,321,27,f,1,0.549836033428,03,03,60.0173743377,PLT_learning_3,B,2014_Mrz_07_1528,P17,
stim_fb/ques.jpg,stim_fb/negf.jpg,stim_fb/posf.jpg,stim_03/f.jpg,stim_03/e.jpg,1,3,f,5,22,322,42,f,1,0.899747220894,03,03,60.0173743377,PLT_learning_3,B,2014_Mrz_07_1528,P17,
stim_fb/ques.jpg,stim_fb/negf.jpg,stim_fb/posf.jpg,stim_03/b.jpg,stim_03/a.jpg,1,1,f,5,23,323,6,f,1,0.916411057016,03,03,60.0173743377,PLT_learning_3,B,2014_Mrz_07_1528,P17,
stim_fb/ques.jpg,stim_fb/negf.jpg,stim_fb/posf.jpg,stim_03/c.jpg,stim_03/d.jpg,2,2,j,5,24,324,33,f,0,0.899756808758,03,03,60.0173743377,PLT_learning_3,B,2014_Mrz_07_1528,P17,
stim_fb/ques.jpg,stim_fb/negf.jpg,stim_fb/posf.jpg,stim_03/d.jpg,stim_03/c.jpg,1,2,f,5,25,325,22,j,0,0.983066596993,03,03,60.0173743377,PLT_learning_3,B,2014_Mrz_07_1528,P17,
stim_fb/ques.jpg,stim_fb/negf.jpg,stim_fb/posf.jpg,stim_03/f.jpg,stim_03/e.jpg,1,3,f,5,26,326,44,f,1,0.716492235049,03,03,60.0173743377,PLT_learning_3,B,2014_Mrz_07_1528,P17,
stim_fb/ques.jpg,stim_fb/negf.jpg,stim_fb/posf.jpg,stim_03/b.jpg,stim_03/a.jpg,1,1,f,5,27,327,7,j,0,0.933077623937,03,03,60.0173743377,PLT_learning_3,B,2014_Mrz_07_1528,P17,
stim_fb/ques.jpg,stim_fb/negf.jpg,stim_fb/posf.jpg,stim_03/e.jpg,stim_03/f.jpg,2,3,j,5,28,328,54,j,1,0.833076989358,03,03,60.0173743377,PLT_learning_3,B,2014_Mrz_07_1528,P17,
stim_fb/ques.jpg,stim_fb/posf.jpg,stim_fb/negf.jpg,stim_03/e.jpg,stim_03/f.jpg,2,3,j,5,29,329,57,j,1,0.83308125698,03,03,60.0173743377,PLT_learning_3,B,2014_Mrz_07_1528,P17,
stim_fb/ques.jpg,stim_fb/negf.jpg,stim_fb/posf.jpg,stim_03/a.jpg,stim_03/b.jpg,2,1,j,5,30,330,15,f,0,1.16633232257,03,03,60.0173743377,PLT_learning_3,B,2014_Mrz_07_1528,P17,
stim_fb/ques.jpg,stim_fb/negf.jpg,stim_fb/posf.jpg,stim_03/b.jpg,stim_03/a.jpg,1,1,f,5,31,331,5,f,1,0.716476063804,03,03,60.0173743377,PLT_learning_3,B,2014_Mrz_07_1528,P17,
stim_fb/ques.jpg,stim_fb/posf.jpg,stim_fb/negf.jpg,stim_03/b.jpg,stim_03/a.jpg,1,1,f,5,32,332,8,j,0,0.683187597129,03,03,60.0173743377,PLT_learning_3,B,2014_Mrz_07_1528,P17,
stim_fb/ques.jpg,stim_fb/negf.jpg,stim_fb/posf.jpg,stim_03/b.jpg,stim_03/a.jpg,1,1,f,5,33,333,2,f,1,0.749832532718,03,03,60.0173743377,PLT_learning_3,B,2014_Mrz_07_1528,P17,
stim_fb/ques.jpg,stim_fb/negf.jpg,stim_fb/posf.jpg,stim_03/a.jpg,stim_03/b.jpg,2,1,j,5,34,334,16,j,1,0.749815314863,03,03,60.0173743377,PLT_learning_3,B,2014_Mrz_07_1528,P17,
stim_fb/ques.jpg,stim_fb/posf.jpg,stim_fb/negf.jpg,stim_03/e.jpg,stim_03/f.jpg,2,3,j,5,35,335,56,j,1,0.76651690996,03,03,60.0173743377,PLT_learning_3,B,2014_Mrz_07_1528,P17,
stim_fb/ques.jpg,stim_fb/posf.jpg,stim_fb/negf.jpg,stim_03/d.jpg,stim_03/c.jpg,1,2,f,5,36,336,29,f,1,0.833099876316,03,03,60.0173743377,PLT_learning_3,B,2014_Mrz_07_1528,P17,
stim_fb/ques.jpg,stim_fb/negf.jpg,stim_fb/posf.jpg,stim_03/f.jpg,stim_03/e.jpg,1,3,f,5,37,337,41,f,1,0.799835210881,03,03,60.0173743377,PLT_learning_3,B,2014_Mrz_07_1528,P17,
stim_fb/ques.jpg,stim_fb/posf.jpg,stim_fb/negf.jpg,stim_03/f.jpg,stim_03/e.jpg,1,3,f,5,38,338,47,f,1,0.666497015449,03,03,60.0173743377,PLT_learning_3,B,2014_Mrz_07_1528,P17,
stim_fb/ques.jpg,stim_fb/negf.jpg,stim_fb/posf.jpg,stim_03/b.jpg,stim_03/a.jpg,1,1,f,5,39,339,4,j,0,0.749799555644,03,03,60.0173743377,PLT_learning_3,B,2014_Mrz_07_1528,P17,
stim_fb/ques.jpg,stim_fb/negf.jpg,stim_fb/posf.jpg,stim_03/a.jpg,stim_03/b.jpg,2,1,j,5,40,340,12,j,1,0.749799606772,03,03,60.0173743377,PLT_learning_3,B,2014_Mrz_07_1528,P17,
stim_fb/ques.jpg,stim_fb/negf.jpg,stim_fb/posf.jpg,stim_03/e.jpg,stim_03/f.jpg,2,3,j,5,41,341,53,j,1,0.84976005233,03,03,60.0173743377,PLT_learning_3,B,2014_Mrz_07_1528,P17,
stim_fb/ques.jpg,stim_fb/negf.jpg,stim_fb/posf.jpg,stim_03/f.jpg,stim_03/e.jpg,1,3,f,5,42,342,43,f,1,0.733151671222,03,03,60.0173743377,PLT_learning_3,B,2014_Mrz_07_1528,P17,
stim_fb/ques.jpg,stim_fb/negf.jpg,stim_fb/posf.jpg,stim_03/c.jpg,stim_03/d.jpg,2,2,j,5,43,343,32,j,1,0.766495644035,03,03,60.0173743377,PLT_learning_3,B,2014_Mrz_07_1528,P17,
stim_fb/ques.jpg,stim_fb/negf.jpg,stim_fb/posf.jpg,stim_03/c.jpg,stim_03/d.jpg,2,2,j,5,44,344,36,j,1,0.766464829343,03,03,60.0173743377,PLT_learning_3,B,2014_Mrz_07_1528,P17,
stim_fb/ques.jpg,stim_fb/posf.jpg,stim_fb/negf.jpg,stim_03/f.jpg,stim_03/e.jpg,1,3,f,5,45,345,46,f,1,0.583194634648,03,03,60.0173743377,PLT_learning_3,B,2014_Mrz_07_1528,P17,
stim_fb/ques.jpg,stim_fb/negf.jpg,stim_fb/posf.jpg,stim_03/c.jpg,stim_03/d.jpg,2,2,j,5,46,346,30,j,1,0.766468014273,03,03,60.0173743377,PLT_learning_3,B,2014_Mrz_07_1528,P17,
stim_fb/ques.jpg,stim_fb/negf.jpg,stim_fb/posf.jpg,stim_03/e.jpg,stim_03/f.jpg,2,3,j,5,47,347,52,f,0,0.799811529945,03,03,60.0173743377,PLT_learning_3,B,2014_Mrz_07_1528,P17,
stim_fb/ques.jpg,stim_fb/posf.jpg,stim_fb/negf.jpg,stim_03/a.jpg,stim_03/b.jpg,2,1,j,5,48,348,18,j,1,0.733163674093,03,03,60.0173743377,PLT_learning_3,B,2014_Mrz_07_1528,P17,
stim_fb/ques.jpg,stim_fb/posf.jpg,stim_fb/negf.jpg,stim_03/e.jpg,stim_03/f.jpg,2,3,j,5,49,349,58,j,1,0.683100232705,03,03,60.0173743377,PLT_learning_3,B,2014_Mrz_07_1528,P17,
stim_fb/ques.jpg,stim_fb/posf.jpg,stim_fb/negf.jpg,stim_03/c.jpg,stim_03/d.jpg,2,2,j,5,50,350,39,f,0,0.69980806833,03,03,60.0173743377,PLT_learning_3,B,2014_Mrz_07_1528,P17,
stim_fb/ques.jpg,stim_fb/negf.jpg,stim_fb/posf.jpg,stim_03/f.jpg,stim_03/e.jpg,1,3,f,5,51,351,45,f,1,0.649854015181,03,03,60.0173743377,PLT_learning_3,B,2014_Mrz_07_1528,P17,
stim_fb/ques.jpg,stim_fb/posf.jpg,stim_fb/negf.jpg,stim_03/f.jpg,stim_03/e.jpg,1,3,f,5,52,352,48,f,1,0.766452697149,03,03,60.0173743377,PLT_learning_3,B,2014_Mrz_07_1528,P17,
stim_fb/ques.jpg,stim_fb/negf.jpg,stim_fb/posf.jpg,stim_03/f.jpg,stim_03/e.jpg,1,3,f,5,53,353,40,f,1,0.849788079082,03,03,60.0173743377,PLT_learning_3,B,2014_Mrz_07_1528,P17,
stim_fb/ques.jpg,stim_fb/negf.jpg,stim_fb/posf.jpg,stim_03/a.jpg,stim_03/b.jpg,2,1,j,5,54,354,10,j,1,0.949761246302,03,03,60.0173743377,PLT_learning_3,B,2014_Mrz_07_1528,P17,
stim_fb/ques.jpg,stim_fb/negf.jpg,stim_fb/posf.jpg,stim_03/a.jpg,stim_03/b.jpg,2,1,j,5,55,355,17,f,0,0.899767401119,03,03,60.0173743377,PLT_learning_3,B,2014_Mrz_07_1528,P17,
stim_fb/ques.jpg,stim_fb/negf.jpg,stim_fb/posf.jpg,stim_03/a.jpg,stim_03/b.jpg,2,1,j,5,56,356,11,j,1,0.799785948278,03,03,60.0173743377,PLT_learning_3,B,2014_Mrz_07_1528,P17,
stim_fb/ques.jpg,stim_fb/negf.jpg,stim_fb/posf.jpg,stim_03/d.jpg,stim_03/c.jpg,1,2,f,5,57,357,21,j,0,0.34992844141,03,03,60.0173743377,PLT_learning_3,B,2014_Mrz_07_1528,P17,
stim_fb/ques.jpg,stim_fb/negf.jpg,stim_fb/posf.jpg,stim_03/d.jpg,stim_03/c.jpg,1,2,f,5,58,358,23,f,1,0.999791079048,03,03,60.0173743377,PLT_learning_3,B,2014_Mrz_07_1528,P17,
stim_fb/ques.jpg,stim_fb/negf.jpg,stim_fb/posf.jpg,stim_03/a.jpg,stim_03/b.jpg,2,1,j,5,59,359,13,j,1,1.14964185818,03,03,60.0173743377,PLT_learning_3,B,2014_Mrz_07_1528,P17,
