Fb3,Fb2,Fb1,Symbol2,Symbol1,PosCond,Pair,Correct,trials.thisRepN,trials.thisTrialN,trials.thisN,trials.thisIndex,Response.keys,Response.corr,Response.rt,Version,Session Number,frameRate,expName,StimCondition,date,Participant,
stim_fb/ques.jpg,stim_fb/negf.jpg,stim_fb/posf.jpg,stim_01/b.jpg,stim_01/a.jpg,1,1,f,0,0,0,7,j,0,1.56620126239,01,02,60.030010695,PLT_learning_01,B,2014_Mrz_07_1053,P18,
stim_fb/ques.jpg,stim_fb/negf.jpg,stim_fb/posf.jpg,stim_01/a.jpg,stim_01/b.jpg,2,1,j,0,1,1,13,j,1,1.49954345477,01,02,60.030010695,PLT_learning_01,B,2014_Mrz_07_1053,P18,
stim_fb/ques.jpg,stim_fb/negf.jpg,stim_fb/posf.jpg,stim_01/c.jpg,stim_01/d.jpg,2,2,j,0,2,2,33,j,1,1.53286059781,01,02,60.030010695,PLT_learning_01,B,2014_Mrz_07_1053,P18,
stim_fb/ques.jpg,stim_fb/posf.jpg,stim_fb/negf.jpg,stim_01/c.jpg,stim_01/d.jpg,2,2,j,0,3,3,38,j,1,1.49954813141,01,02,60.030010695,PLT_learning_01,B,2014_Mrz_07_1053,P18,
stim_fb/ques.jpg,stim_fb/negf.jpg,stim_fb/posf.jpg,stim_01/f.jpg,stim_01/e.jpg,1,3,f,0,4,4,43,f,1,1.49955604711,01,02,60.030010695,PLT_learning_01,B,2014_Mrz_07_1053,P18,
stim_fb/ques.jpg,stim_fb/negf.jpg,stim_fb/posf.jpg,stim_01/a.jpg,stim_01/b.jpg,2,1,j,0,5,5,10,j,1,1.21632211667,01,02,60.030010695,PLT_learning_01,B,2014_Mrz_07_1053,P18,
stim_fb/ques.jpg,stim_fb/negf.jpg,stim_fb/posf.jpg,stim_01/d.jpg,stim_01/c.jpg,1,2,f,0,6,6,23,j,0,1.0163936527,01,02,60.030010695,PLT_learning_01,B,2014_Mrz_07_1053,P18,
stim_fb/ques.jpg,stim_fb/posf.jpg,stim_fb/negf.jpg,stim_01/b.jpg,stim_01/a.jpg,1,1,f,0,7,7,8,j,0,1.26636630414,01,02,60.030010695,PLT_learning_01,B,2014_Mrz_07_1053,P18,
stim_fb/ques.jpg,stim_fb/posf.jpg,stim_fb/negf.jpg,stim_01/d.jpg,stim_01/c.jpg,1,2,f,0,8,8,27,None,0,,01,02,60.030010695,PLT_learning_01,B,2014_Mrz_07_1053,P18,
stim_fb/ques.jpg,stim_fb/negf.jpg,stim_fb/posf.jpg,stim_01/a.jpg,stim_01/b.jpg,2,1,j,0,9,9,16,j,1,1.3161926655,01,02,60.030010695,PLT_learning_01,B,2014_Mrz_07_1053,P18,
stim_fb/ques.jpg,stim_fb/posf.jpg,stim_fb/negf.jpg,stim_01/c.jpg,stim_01/d.jpg,2,2,j,0,10,10,37,j,1,1.59951881144,01,02,60.030010695,PLT_learning_01,B,2014_Mrz_07_1053,P18,
stim_fb/ques.jpg,stim_fb/negf.jpg,stim_fb/posf.jpg,stim_01/f.jpg,stim_01/e.jpg,1,3,f,0,11,11,41,None,0,,01,02,60.030010695,PLT_learning_01,B,2014_Mrz_07_1053,P18,
stim_fb/ques.jpg,stim_fb/negf.jpg,stim_fb/posf.jpg,stim_01/b.jpg,stim_01/a.jpg,1,1,f,0,12,12,4,f,1,1.09967721266,01,02,60.030010695,PLT_learning_01,B,2014_Mrz_07_1053,P18,
stim_fb/ques.jpg,stim_fb/posf.jpg,stim_fb/negf.jpg,stim_01/e.jpg,stim_01/f.jpg,2,3,j,0,13,13,56,j,1,0.89974402394,01,02,60.030010695,PLT_learning_01,B,2014_Mrz_07_1053,P18,
stim_fb/ques.jpg,stim_fb/negf.jpg,stim_fb/posf.jpg,stim_01/b.jpg,stim_01/a.jpg,1,1,f,0,14,14,3,f,1,1.11638048894,01,02,60.030010695,PLT_learning_01,B,2014_Mrz_07_1053,P18,
stim_fb/ques.jpg,stim_fb/negf.jpg,stim_fb/posf.jpg,stim_01/f.jpg,stim_01/e.jpg,1,3,f,0,15,15,44,f,1,0.966407326233,01,02,60.030010695,PLT_learning_01,B,2014_Mrz_07_1053,P18,
stim_fb/ques.jpg,stim_fb/negf.jpg,stim_fb/posf.jpg,stim_01/d.jpg,stim_01/c.jpg,1,2,f,0,16,16,21,f,1,1.29952356928,01,02,60.030010695,PLT_learning_01,B,2014_Mrz_07_1053,P18,
stim_fb/ques.jpg,stim_fb/negf.jpg,stim_fb/posf.jpg,stim_01/d.jpg,stim_01/c.jpg,1,2,f,0,17,17,25,f,1,1.04967507885,01,02,60.030010695,PLT_learning_01,B,2014_Mrz_07_1053,P18,
stim_fb/ques.jpg,stim_fb/posf.jpg,stim_fb/negf.jpg,stim_01/f.jpg,stim_01/e.jpg,1,3,f,0,18,18,46,f,1,0.766451512201,01,02,60.030010695,PLT_learning_01,B,2014_Mrz_07_1053,P18,
stim_fb/ques.jpg,stim_fb/posf.jpg,stim_fb/negf.jpg,stim_01/b.jpg,stim_01/a.jpg,1,1,f,0,19,19,9,f,1,0.683161041041,01,02,60.030010695,PLT_learning_01,B,2014_Mrz_07_1053,P18,
stim_fb/ques.jpg,stim_fb/negf.jpg,stim_fb/posf.jpg,stim_01/a.jpg,stim_01/b.jpg,2,1,j,0,20,20,14,j,1,0.99973305865,01,02,60.030010695,PLT_learning_01,B,2014_Mrz_07_1053,P18,
stim_fb/ques.jpg,stim_fb/negf.jpg,stim_fb/posf.jpg,stim_01/d.jpg,stim_01/c.jpg,1,2,f,0,21,21,20,f,1,0.999730243644,01,02,60.030010695,PLT_learning_01,B,2014_Mrz_07_1053,P18,
stim_fb/ques.jpg,stim_fb/negf.jpg,stim_fb/posf.jpg,stim_01/b.jpg,stim_01/a.jpg,1,1,f,0,22,22,2,f,1,1.04966918418,01,02,60.030010695,PLT_learning_01,B,2014_Mrz_07_1053,P18,
stim_fb/ques.jpg,stim_fb/negf.jpg,stim_fb/posf.jpg,stim_01/c.jpg,stim_01/d.jpg,2,2,j,0,23,23,31,j,1,0.949718552046,01,02,60.030010695,PLT_learning_01,B,2014_Mrz_07_1053,P18,
stim_fb/ques.jpg,stim_fb/negf.jpg,stim_fb/posf.jpg,stim_01/c.jpg,stim_01/d.jpg,2,2,j,0,24,24,30,j,1,0.983062975981,01,02,60.030010695,PLT_learning_01,B,2014_Mrz_07_1053,P18,
stim_fb/ques.jpg,stim_fb/negf.jpg,stim_fb/posf.jpg,stim_01/d.jpg,stim_01/c.jpg,1,2,f,0,25,25,24,f,1,0.950733193235,01,02,60.030010695,PLT_learning_01,B,2014_Mrz_07_1053,P18,
stim_fb/ques.jpg,stim_fb/posf.jpg,stim_fb/negf.jpg,stim_01/d.jpg,stim_01/c.jpg,1,2,f,0,26,26,29,f,1,0.933070363868,01,02,60.030010695,PLT_learning_01,B,2014_Mrz_07_1053,P18,
stim_fb/ques.jpg,stim_fb/negf.jpg,stim_fb/posf.jpg,stim_01/e.jpg,stim_01/f.jpg,2,3,j,0,27,27,53,j,1,1.11635746665,01,02,60.030010695,PLT_learning_01,B,2014_Mrz_07_1053,P18,
stim_fb/ques.jpg,stim_fb/negf.jpg,stim_fb/posf.jpg,stim_01/c.jpg,stim_01/d.jpg,2,2,j,0,28,28,32,j,1,0.916398263177,01,02,60.030010695,PLT_learning_01,B,2014_Mrz_07_1053,P18,
stim_fb/ques.jpg,stim_fb/posf.jpg,stim_fb/negf.jpg,stim_01/e.jpg,stim_01/f.jpg,2,3,j,0,29,29,59,j,1,0.733141764567,01,02,60.030010695,PLT_learning_01,B,2014_Mrz_07_1053,P18,
stim_fb/ques.jpg,stim_fb/negf.jpg,stim_fb/posf.jpg,stim_01/a.jpg,stim_01/b.jpg,2,1,j,0,30,30,15,j,1,0.649845603245,01,02,60.030010695,PLT_learning_01,B,2014_Mrz_07_1053,P18,
stim_fb/ques.jpg,stim_fb/negf.jpg,stim_fb/posf.jpg,stim_01/e.jpg,stim_01/f.jpg,2,3,j,0,31,31,50,f,0,0.933061945918,01,02,60.030010695,PLT_learning_01,B,2014_Mrz_07_1053,P18,
stim_fb/ques.jpg,stim_fb/negf.jpg,stim_fb/posf.jpg,stim_01/e.jpg,stim_01/f.jpg,2,3,j,0,32,32,52,f,0,0.749791664004,01,02,60.030010695,PLT_learning_01,B,2014_Mrz_07_1053,P18,
stim_fb/ques.jpg,stim_fb/negf.jpg,stim_fb/posf.jpg,stim_01/a.jpg,stim_01/b.jpg,2,1,j,0,33,33,12,j,1,0.599825394451,01,02,60.030010695,PLT_learning_01,B,2014_Mrz_07_1053,P18,
stim_fb/ques.jpg,stim_fb/posf.jpg,stim_fb/negf.jpg,stim_01/c.jpg,stim_01/d.jpg,2,2,j,0,34,34,39,j,1,0.983041397277,01,02,60.030010695,PLT_learning_01,B,2014_Mrz_07_1053,P18,
stim_fb/ques.jpg,stim_fb/negf.jpg,stim_fb/posf.jpg,stim_01/b.jpg,stim_01/a.jpg,1,1,f,0,35,35,0,f,1,0.866420035864,01,02,60.030010695,PLT_learning_01,B,2014_Mrz_07_1053,P18,
stim_fb/ques.jpg,stim_fb/negf.jpg,stim_fb/posf.jpg,stim_01/b.jpg,stim_01/a.jpg,1,1,f,0,36,36,1,f,1,0.899767112401,01,02,60.030010695,PLT_learning_01,B,2014_Mrz_07_1053,P18,
stim_fb/ques.jpg,stim_fb/negf.jpg,stim_fb/posf.jpg,stim_01/c.jpg,stim_01/d.jpg,2,2,j,0,37,37,34,j,1,0.966355098251,01,02,60.030010695,PLT_learning_01,B,2014_Mrz_07_1053,P18,
stim_fb/ques.jpg,stim_fb/negf.jpg,stim_fb/posf.jpg,stim_01/d.jpg,stim_01/c.jpg,1,2,f,0,38,38,26,f,1,0.816482866735,01,02,60.030010695,PLT_learning_01,B,2014_Mrz_07_1053,P18,
stim_fb/ques.jpg,stim_fb/negf.jpg,stim_fb/posf.jpg,stim_01/a.jpg,stim_01/b.jpg,2,1,j,0,39,39,11,j,1,0.716476388612,01,02,60.030010695,PLT_learning_01,B,2014_Mrz_07_1053,P18,
stim_fb/ques.jpg,stim_fb/negf.jpg,stim_fb/posf.jpg,stim_01/c.jpg,stim_01/d.jpg,2,2,j,0,40,40,35,j,1,0.96636010872,01,02,60.030010695,PLT_learning_01,B,2014_Mrz_07_1053,P18,
stim_fb/ques.jpg,stim_fb/negf.jpg,stim_fb/posf.jpg,stim_01/e.jpg,stim_01/f.jpg,2,3,j,0,41,41,51,j,1,0.683099637222,01,02,60.030010695,PLT_learning_01,B,2014_Mrz_07_1053,P18,
stim_fb/ques.jpg,stim_fb/negf.jpg,stim_fb/posf.jpg,stim_01/e.jpg,stim_01/f.jpg,2,3,j,0,42,42,54,j,1,0.599833812401,01,02,60.030010695,PLT_learning_01,B,2014_Mrz_07_1053,P18,
stim_fb/ques.jpg,stim_fb/posf.jpg,stim_fb/negf.jpg,stim_01/a.jpg,stim_01/b.jpg,2,1,j,0,43,43,19,j,1,0.783105017613,01,02,60.030010695,PLT_learning_01,B,2014_Mrz_07_1053,P18,
stim_fb/ques.jpg,stim_fb/posf.jpg,stim_fb/negf.jpg,stim_01/e.jpg,stim_01/f.jpg,2,3,j,0,44,44,58,j,1,0.533190612136,01,02,60.030010695,PLT_learning_01,B,2014_Mrz_07_1053,P18,
stim_fb/ques.jpg,stim_fb/negf.jpg,stim_fb/posf.jpg,stim_01/d.jpg,stim_01/c.jpg,1,2,f,0,45,45,22,f,1,0.883079255497,01,02,60.030010695,PLT_learning_01,B,2014_Mrz_07_1053,P18,
stim_fb/ques.jpg,stim_fb/negf.jpg,stim_fb/posf.jpg,stim_01/b.jpg,stim_01/a.jpg,1,1,f,0,46,46,5,f,1,0.799787993368,01,02,60.030010695,PLT_learning_01,B,2014_Mrz_07_1053,P18,
stim_fb/ques.jpg,stim_fb/negf.jpg,stim_fb/posf.jpg,stim_01/b.jpg,stim_01/a.jpg,1,1,f,0,47,47,6,f,1,0.883073893152,01,02,60.030010695,PLT_learning_01,B,2014_Mrz_07_1053,P18,
stim_fb/ques.jpg,stim_fb/negf.jpg,stim_fb/posf.jpg,stim_01/f.jpg,stim_01/e.jpg,1,3,f,0,48,48,40,f,1,0.883087661417,01,02,60.030010695,PLT_learning_01,B,2014_Mrz_07_1053,P18,
stim_fb/ques.jpg,stim_fb/posf.jpg,stim_fb/negf.jpg,stim_01/f.jpg,stim_01/e.jpg,1,3,f,0,49,49,47,f,1,0.583200697737,01,02,60.030010695,PLT_learning_01,B,2014_Mrz_07_1053,P18,
stim_fb/ques.jpg,stim_fb/posf.jpg,stim_fb/negf.jpg,stim_01/a.jpg,stim_01/b.jpg,2,1,j,0,50,50,18,j,1,0.766459701582,01,02,60.030010695,PLT_learning_01,B,2014_Mrz_07_1053,P18,
stim_fb/ques.jpg,stim_fb/negf.jpg,stim_fb/posf.jpg,stim_01/c.jpg,stim_01/d.jpg,2,2,j,0,51,51,36,j,1,0.833074769833,01,02,60.030010695,PLT_learning_01,B,2014_Mrz_07_1053,P18,
stim_fb/ques.jpg,stim_fb/posf.jpg,stim_fb/negf.jpg,stim_01/e.jpg,stim_01/f.jpg,2,3,j,0,52,52,57,j,1,0.849767270294,01,02,60.030010695,PLT_learning_01,B,2014_Mrz_07_1053,P18,
stim_fb/ques.jpg,stim_fb/negf.jpg,stim_fb/posf.jpg,stim_01/f.jpg,stim_01/e.jpg,1,3,f,0,53,53,45,f,1,1.14963548231,01,02,60.030010695,PLT_learning_01,B,2014_Mrz_07_1053,P18,
stim_fb/ques.jpg,stim_fb/posf.jpg,stim_fb/negf.jpg,stim_01/f.jpg,stim_01/e.jpg,1,3,f,0,54,54,49,f,1,0.633173042409,01,02,60.030010695,PLT_learning_01,B,2014_Mrz_07_1053,P18,
stim_fb/ques.jpg,stim_fb/negf.jpg,stim_fb/posf.jpg,stim_01/e.jpg,stim_01/f.jpg,2,3,j,0,55,55,55,j,1,0.649821182468,01,02,60.030010695,PLT_learning_01,B,2014_Mrz_07_1053,P18,
stim_fb/ques.jpg,stim_fb/posf.jpg,stim_fb/negf.jpg,stim_01/f.jpg,stim_01/e.jpg,1,3,f,0,56,56,48,f,1,0.899796480491,01,02,60.030010695,PLT_learning_01,B,2014_Mrz_07_1053,P18,
stim_fb/ques.jpg,stim_fb/negf.jpg,stim_fb/posf.jpg,stim_01/f.jpg,stim_01/e.jpg,1,3,f,0,57,57,42,j,0,0.733102880795,01,02,60.030010695,PLT_learning_01,B,2014_Mrz_07_1053,P18,
stim_fb/ques.jpg,stim_fb/posf.jpg,stim_fb/negf.jpg,stim_01/d.jpg,stim_01/c.jpg,1,2,f,0,58,58,28,f,1,0.849761381638,01,02,60.030010695,PLT_learning_01,B,2014_Mrz_07_1053,P18,
stim_fb/ques.jpg,stim_fb/negf.jpg,stim_fb/posf.jpg,stim_01/a.jpg,stim_01/b.jpg,2,1,j,0,59,59,17,j,1,0.89971404533,01,02,60.030010695,PLT_learning_01,B,2014_Mrz_07_1053,P18,
stim_fb/ques.jpg,stim_fb/posf.jpg,stim_fb/negf.jpg,stim_01/f.jpg,stim_01/e.jpg,1,3,f,1,0,60,48,j,0,0.933090441837,01,02,60.030010695,PLT_learning_01,B,2014_Mrz_07_1053,P18,
stim_fb/ques.jpg,stim_fb/posf.jpg,stim_fb/negf.jpg,stim_01/e.jpg,stim_01/f.jpg,2,3,j,1,1,61,58,f,0,0.633179337075,01,02,60.030010695,PLT_learning_01,B,2014_Mrz_07_1053,P18,
stim_fb/ques.jpg,stim_fb/negf.jpg,stim_fb/posf.jpg,stim_01/d.jpg,stim_01/c.jpg,1,2,f,1,2,62,24,f,1,0.833110459656,01,02,60.030010695,PLT_learning_01,B,2014_Mrz_07_1053,P18,
stim_fb/ques.jpg,stim_fb/negf.jpg,stim_fb/posf.jpg,stim_01/d.jpg,stim_01/c.jpg,1,2,f,1,3,63,25,f,1,0.899754980207,01,02,60.030010695,PLT_learning_01,B,2014_Mrz_07_1053,P18,
stim_fb/ques.jpg,stim_fb/posf.jpg,stim_fb/negf.jpg,stim_01/f.jpg,stim_01/e.jpg,1,3,f,1,4,64,46,f,1,0.933081735168,01,02,60.030010695,PLT_learning_01,B,2014_Mrz_07_1053,P18,
stim_fb/ques.jpg,stim_fb/negf.jpg,stim_fb/posf.jpg,stim_01/e.jpg,stim_01/f.jpg,2,3,j,1,5,65,53,f,0,0.999712436326,01,02,60.030010695,PLT_learning_01,B,2014_Mrz_07_1053,P18,
stim_fb/ques.jpg,stim_fb/negf.jpg,stim_fb/posf.jpg,stim_01/a.jpg,stim_01/b.jpg,2,1,j,1,6,66,12,j,1,0.766451124235,01,02,60.030010695,PLT_learning_01,B,2014_Mrz_07_1053,P18,
stim_fb/ques.jpg,stim_fb/negf.jpg,stim_fb/posf.jpg,stim_01/c.jpg,stim_01/d.jpg,2,2,j,1,7,67,34,j,1,0.949725403097,01,02,60.030010695,PLT_learning_01,B,2014_Mrz_07_1053,P18,
stim_fb/ques.jpg,stim_fb/posf.jpg,stim_fb/negf.jpg,stim_01/a.jpg,stim_01/b.jpg,2,1,j,1,8,68,18,j,1,0.783128617346,01,02,60.030010695,PLT_learning_01,B,2014_Mrz_07_1053,P18,
stim_fb/ques.jpg,stim_fb/posf.jpg,stim_fb/negf.jpg,stim_01/e.jpg,stim_01/f.jpg,2,3,j,1,9,69,57,f,0,0.716497525216,01,02,60.030010695,PLT_learning_01,B,2014_Mrz_07_1053,P18,
stim_fb/ques.jpg,stim_fb/negf.jpg,stim_fb/posf.jpg,stim_01/e.jpg,stim_01/f.jpg,2,3,j,1,10,70,55,f,0,0.866426162111,01,02,60.030010695,PLT_learning_01,B,2014_Mrz_07_1053,P18,
stim_fb/ques.jpg,stim_fb/posf.jpg,stim_fb/negf.jpg,stim_01/c.jpg,stim_01/d.jpg,2,2,j,1,11,71,37,j,1,1.04967321722,01,02,60.030010695,PLT_learning_01,B,2014_Mrz_07_1053,P18,
stim_fb/ques.jpg,stim_fb/negf.jpg,stim_fb/posf.jpg,stim_01/b.jpg,stim_01/a.jpg,1,1,f,1,12,72,7,f,1,0.849773808566,01,02,60.030010695,PLT_learning_01,B,2014_Mrz_07_1053,P18,
stim_fb/ques.jpg,stim_fb/negf.jpg,stim_fb/posf.jpg,stim_01/a.jpg,stim_01/b.jpg,2,1,j,1,13,73,10,j,1,0.716492469634,01,02,60.030010695,PLT_learning_01,B,2014_Mrz_07_1053,P18,
stim_fb/ques.jpg,stim_fb/posf.jpg,stim_fb/negf.jpg,stim_01/e.jpg,stim_01/f.jpg,2,3,j,1,14,74,56,f,0,0.949759790679,01,02,60.030010695,PLT_learning_01,B,2014_Mrz_07_1053,P18,
stim_fb/ques.jpg,stim_fb/negf.jpg,stim_fb/posf.jpg,stim_01/d.jpg,stim_01/c.jpg,1,2,f,1,15,75,23,f,1,0.883094683895,01,02,60.030010695,PLT_learning_01,B,2014_Mrz_07_1053,P18,
stim_fb/ques.jpg,stim_fb/negf.jpg,stim_fb/posf.jpg,stim_01/e.jpg,stim_01/f.jpg,2,3,j,1,16,76,50,f,0,0.849724867765,01,02,60.030010695,PLT_learning_01,B,2014_Mrz_07_1053,P18,
stim_fb/ques.jpg,stim_fb/negf.jpg,stim_fb/posf.jpg,stim_01/d.jpg,stim_01/c.jpg,1,2,f,1,17,77,26,f,1,1.11636452822,01,02,60.030010695,PLT_learning_01,B,2014_Mrz_07_1053,P18,
stim_fb/ques.jpg,stim_fb/negf.jpg,stim_fb/posf.jpg,stim_01/c.jpg,stim_01/d.jpg,2,2,j,1,18,78,36,j,1,0.849740999914,01,02,60.030010695,PLT_learning_01,B,2014_Mrz_07_1053,P18,
stim_fb/ques.jpg,stim_fb/negf.jpg,stim_fb/posf.jpg,stim_01/c.jpg,stim_01/d.jpg,2,2,j,1,19,79,30,j,1,1.03304164539,01,02,60.030010695,PLT_learning_01,B,2014_Mrz_07_1053,P18,
stim_fb/ques.jpg,stim_fb/negf.jpg,stim_fb/posf.jpg,stim_01/f.jpg,stim_01/e.jpg,1,3,f,1,20,80,44,j,0,0.933084204313,01,02,60.030010695,PLT_learning_01,B,2014_Mrz_07_1053,P18,
stim_fb/ques.jpg,stim_fb/negf.jpg,stim_fb/posf.jpg,stim_01/f.jpg,stim_01/e.jpg,1,3,f,1,21,81,41,j,0,0.833110450634,01,02,60.030010695,PLT_learning_01,B,2014_Mrz_07_1053,P18,
stim_fb/ques.jpg,stim_fb/negf.jpg,stim_fb/posf.jpg,stim_01/a.jpg,stim_01/b.jpg,2,1,j,1,22,82,16,j,1,0.649839329632,01,02,60.030010695,PLT_learning_01,B,2014_Mrz_07_1053,P18,
stim_fb/ques.jpg,stim_fb/posf.jpg,stim_fb/negf.jpg,stim_01/b.jpg,stim_01/a.jpg,1,1,f,1,23,83,9,f,1,1.04967054657,01,02,60.030010695,PLT_learning_01,B,2014_Mrz_07_1053,P18,
stim_fb/ques.jpg,stim_fb/negf.jpg,stim_fb/posf.jpg,stim_01/a.jpg,stim_01/b.jpg,2,1,j,1,24,84,13,j,1,0.566517779123,01,02,60.030010695,PLT_learning_01,B,2014_Mrz_07_1053,P18,
stim_fb/ques.jpg,stim_fb/negf.jpg,stim_fb/posf.jpg,stim_01/a.jpg,stim_01/b.jpg,2,1,j,1,25,85,15,j,1,0.566513550599,01,02,60.030010695,PLT_learning_01,B,2014_Mrz_07_1053,P18,
stim_fb/ques.jpg,stim_fb/posf.jpg,stim_fb/negf.jpg,stim_01/d.jpg,stim_01/c.jpg,1,2,f,1,26,86,27,f,1,0.733142495385,01,02,60.030010695,PLT_learning_01,B,2014_Mrz_07_1053,P18,
stim_fb/ques.jpg,stim_fb/negf.jpg,stim_fb/posf.jpg,stim_01/e.jpg,stim_01/f.jpg,2,3,j,1,27,87,54,f,0,0.999713278422,01,02,60.030010695,PLT_learning_01,B,2014_Mrz_07_1053,P18,
stim_fb/ques.jpg,stim_fb/negf.jpg,stim_fb/posf.jpg,stim_01/d.jpg,stim_01/c.jpg,1,2,f,1,28,88,22,f,1,0.933063314324,01,02,60.030010695,PLT_learning_01,B,2014_Mrz_07_1053,P18,
stim_fb/ques.jpg,stim_fb/negf.jpg,stim_fb/posf.jpg,stim_01/a.jpg,stim_01/b.jpg,2,1,j,1,29,89,17,j,1,0.633151162957,01,02,60.030010695,PLT_learning_01,B,2014_Mrz_07_1053,P18,
stim_fb/ques.jpg,stim_fb/negf.jpg,stim_fb/posf.jpg,stim_01/e.jpg,stim_01/f.jpg,2,3,j,1,30,90,51,j,1,0.84971981519,01,02,60.030010695,PLT_learning_01,B,2014_Mrz_07_1053,P18,
stim_fb/ques.jpg,stim_fb/posf.jpg,stim_fb/negf.jpg,stim_01/b.jpg,stim_01/a.jpg,1,1,f,1,31,91,8,f,1,0.949730963936,01,02,60.030010695,PLT_learning_01,B,2014_Mrz_07_1053,P18,
stim_fb/ques.jpg,stim_fb/posf.jpg,stim_fb/negf.jpg,stim_01/c.jpg,stim_01/d.jpg,2,2,j,1,32,92,39,j,1,0.599861688778,01,02,60.030010695,PLT_learning_01,B,2014_Mrz_07_1053,P18,
stim_fb/ques.jpg,stim_fb/posf.jpg,stim_fb/negf.jpg,stim_01/c.jpg,stim_01/d.jpg,2,2,j,1,33,93,38,j,1,0.583195873731,01,02,60.030010695,PLT_learning_01,B,2014_Mrz_07_1053,P18,
stim_fb/ques.jpg,stim_fb/negf.jpg,stim_fb/posf.jpg,stim_01/a.jpg,stim_01/b.jpg,2,1,j,1,34,94,11,j,1,0.633172010842,01,02,60.030010695,PLT_learning_01,B,2014_Mrz_07_1053,P18,
stim_fb/ques.jpg,stim_fb/posf.jpg,stim_fb/negf.jpg,stim_01/e.jpg,stim_01/f.jpg,2,3,j,1,35,95,59,j,1,0.749778924298,01,02,60.030010695,PLT_learning_01,B,2014_Mrz_07_1053,P18,
stim_fb/ques.jpg,stim_fb/negf.jpg,stim_fb/posf.jpg,stim_01/b.jpg,stim_01/a.jpg,1,1,f,1,36,96,5,f,1,0.866398580467,01,02,60.030010695,PLT_learning_01,B,2014_Mrz_07_1053,P18,
stim_fb/ques.jpg,stim_fb/posf.jpg,stim_fb/negf.jpg,stim_01/d.jpg,stim_01/c.jpg,1,2,f,1,37,97,28,f,1,0.866414029917,01,02,60.030010695,PLT_learning_01,B,2014_Mrz_07_1053,P18,
stim_fb/ques.jpg,stim_fb/negf.jpg,stim_fb/posf.jpg,stim_01/b.jpg,stim_01/a.jpg,1,1,f,1,38,98,1,f,1,0.633172131141,01,02,60.030010695,PLT_learning_01,B,2014_Mrz_07_1053,P18,
stim_fb/ques.jpg,stim_fb/negf.jpg,stim_fb/posf.jpg,stim_01/f.jpg,stim_01/e.jpg,1,3,f,1,39,99,45,j,0,0.799739548802,01,02,60.030010695,PLT_learning_01,B,2014_Mrz_07_1053,P18,
stim_fb/ques.jpg,stim_fb/negf.jpg,stim_fb/posf.jpg,stim_01/d.jpg,stim_01/c.jpg,1,2,f,1,40,100,20,f,1,0.866421951632,01,02,60.030010695,PLT_learning_01,B,2014_Mrz_07_1053,P18,
stim_fb/ques.jpg,stim_fb/posf.jpg,stim_fb/negf.jpg,stim_01/d.jpg,stim_01/c.jpg,1,2,f,1,41,101,29,f,1,0.899768023669,01,02,60.030010695,PLT_learning_01,B,2014_Mrz_07_1053,P18,
stim_fb/ques.jpg,stim_fb/posf.jpg,stim_fb/negf.jpg,stim_01/a.jpg,stim_01/b.jpg,2,1,j,1,42,102,19,j,1,0.71650805442,01,02,60.030010695,PLT_learning_01,B,2014_Mrz_07_1053,P18,
stim_fb/ques.jpg,stim_fb/negf.jpg,stim_fb/posf.jpg,stim_01/c.jpg,stim_01/d.jpg,2,2,j,1,43,103,33,j,1,0.733151857686,01,02,60.030010695,PLT_learning_01,B,2014_Mrz_07_1053,P18,
stim_fb/ques.jpg,stim_fb/negf.jpg,stim_fb/posf.jpg,stim_01/b.jpg,stim_01/a.jpg,1,1,f,1,44,104,3,f,1,0.716467378188,01,02,60.030010695,PLT_learning_01,B,2014_Mrz_07_1053,P18,
stim_fb/ques.jpg,stim_fb/negf.jpg,stim_fb/posf.jpg,stim_01/c.jpg,stim_01/d.jpg,2,2,j,1,45,105,35,j,1,0.683163248535,01,02,60.030010695,PLT_learning_01,B,2014_Mrz_07_1053,P18,
stim_fb/ques.jpg,stim_fb/negf.jpg,stim_fb/posf.jpg,stim_01/f.jpg,stim_01/e.jpg,1,3,f,1,46,106,43,f,1,0.799778525806,01,02,60.030010695,PLT_learning_01,B,2014_Mrz_07_1053,P18,
stim_fb/ques.jpg,stim_fb/negf.jpg,stim_fb/posf.jpg,stim_01/b.jpg,stim_01/a.jpg,1,1,f,1,47,107,0,f,1,0.666497965812,01,02,60.030010695,PLT_learning_01,B,2014_Mrz_07_1053,P18,
stim_fb/ques.jpg,stim_fb/negf.jpg,stim_fb/posf.jpg,stim_01/b.jpg,stim_01/a.jpg,1,1,f,1,48,108,6,f,1,0.616509224332,01,02,60.030010695,PLT_learning_01,B,2014_Mrz_07_1053,P18,
stim_fb/ques.jpg,stim_fb/negf.jpg,stim_fb/posf.jpg,stim_01/f.jpg,stim_01/e.jpg,1,3,f,1,49,109,42,f,1,0.749820929839,01,02,60.030010695,PLT_learning_01,B,2014_Mrz_07_1053,P18,
stim_fb/ques.jpg,stim_fb/posf.jpg,stim_fb/negf.jpg,stim_01/f.jpg,stim_01/e.jpg,1,3,f,1,50,110,49,f,1,0.766474913441,01,02,60.030010695,PLT_learning_01,B,2014_Mrz_07_1053,P18,
stim_fb/ques.jpg,stim_fb/negf.jpg,stim_fb/posf.jpg,stim_01/b.jpg,stim_01/a.jpg,1,1,f,1,51,111,4,f,1,0.766488513287,01,02,60.030010695,PLT_learning_01,B,2014_Mrz_07_1053,P18,
stim_fb/ques.jpg,stim_fb/negf.jpg,stim_fb/posf.jpg,stim_01/e.jpg,stim_01/f.jpg,2,3,j,1,52,112,52,j,1,1.03304666489,01,02,60.030010695,PLT_learning_01,B,2014_Mrz_07_1053,P18,
stim_fb/ques.jpg,stim_fb/negf.jpg,stim_fb/posf.jpg,stim_01/c.jpg,stim_01/d.jpg,2,2,j,1,53,113,32,j,1,0.98304874757,01,02,60.030010695,PLT_learning_01,B,2014_Mrz_07_1053,P18,
stim_fb/ques.jpg,stim_fb/posf.jpg,stim_fb/negf.jpg,stim_01/f.jpg,stim_01/e.jpg,1,3,f,1,54,114,47,f,1,0.816440659692,01,02,60.030010695,PLT_learning_01,B,2014_Mrz_07_1053,P18,
stim_fb/ques.jpg,stim_fb/negf.jpg,stim_fb/posf.jpg,stim_01/f.jpg,stim_01/e.jpg,1,3,f,1,55,115,40,f,1,0.766520115939,01,02,60.030010695,PLT_learning_01,B,2014_Mrz_07_1053,P18,
stim_fb/ques.jpg,stim_fb/negf.jpg,stim_fb/posf.jpg,stim_01/c.jpg,stim_01/d.jpg,2,2,j,1,56,116,31,j,1,0.799821923813,01,02,60.030010695,PLT_learning_01,B,2014_Mrz_07_1053,P18,
stim_fb/ques.jpg,stim_fb/negf.jpg,stim_fb/posf.jpg,stim_01/a.jpg,stim_01/b.jpg,2,1,j,1,57,117,14,j,1,1.24961842686,01,02,60.030010695,PLT_learning_01,B,2014_Mrz_07_1053,P18,
stim_fb/ques.jpg,stim_fb/negf.jpg,stim_fb/posf.jpg,stim_01/b.jpg,stim_01/a.jpg,1,1,f,1,58,118,2,f,1,0.699800946606,01,02,60.030010695,PLT_learning_01,B,2014_Mrz_07_1053,P18,
stim_fb/ques.jpg,stim_fb/negf.jpg,stim_fb/posf.jpg,stim_01/d.jpg,stim_01/c.jpg,1,2,f,1,59,119,21,f,1,0.799811680319,01,02,60.030010695,PLT_learning_01,B,2014_Mrz_07_1053,P18,
stim_fb/ques.jpg,stim_fb/posf.jpg,stim_fb/negf.jpg,stim_01/d.jpg,stim_01/c.jpg,1,2,f,2,0,120,27,f,1,0.799837719124,01,02,60.030010695,PLT_learning_01,B,2014_Mrz_07_1053,P18,
stim_fb/ques.jpg,stim_fb/negf.jpg,stim_fb/posf.jpg,stim_01/a.jpg,stim_01/b.jpg,2,1,j,2,1,121,12,j,1,0.649845931061,01,02,60.030010695,PLT_learning_01,B,2014_Mrz_07_1053,P18,
stim_fb/ques.jpg,stim_fb/negf.jpg,stim_fb/posf.jpg,stim_01/b.jpg,stim_01/a.jpg,1,1,f,2,2,122,2,f,1,0.666475334488,01,02,60.030010695,PLT_learning_01,B,2014_Mrz_07_1053,P18,
stim_fb/ques.jpg,stim_fb/negf.jpg,stim_fb/posf.jpg,stim_01/e.jpg,stim_01/f.jpg,2,3,j,2,3,123,52,f,0,0.966382153585,01,02,60.030010695,PLT_learning_01,B,2014_Mrz_07_1053,P18,
stim_fb/ques.jpg,stim_fb/negf.jpg,stim_fb/posf.jpg,stim_01/c.jpg,stim_01/d.jpg,2,2,j,2,4,124,35,j,1,0.916413177295,01,02,60.030010695,PLT_learning_01,B,2014_Mrz_07_1053,P18,
stim_fb/ques.jpg,stim_fb/posf.jpg,stim_fb/negf.jpg,stim_01/e.jpg,stim_01/f.jpg,2,3,j,2,5,125,57,j,1,1.0329049913,01,02,60.030010695,PLT_learning_01,B,2014_Mrz_07_1053,P18,
stim_fb/ques.jpg,stim_fb/negf.jpg,stim_fb/posf.jpg,stim_01/d.jpg,stim_01/c.jpg,1,2,f,2,6,126,25,f,1,0.683116175381,01,02,60.030010695,PLT_learning_01,B,2014_Mrz_07_1053,P18,
stim_fb/ques.jpg,stim_fb/negf.jpg,stim_fb/posf.jpg,stim_01/b.jpg,stim_01/a.jpg,1,1,f,2,7,127,3,f,1,0.71649415984,01,02,60.030010695,PLT_learning_01,B,2014_Mrz_07_1053,P18,
stim_fb/ques.jpg,stim_fb/negf.jpg,stim_fb/posf.jpg,stim_01/f.jpg,stim_01/e.jpg,1,3,f,2,8,128,45,f,1,0.916414389312,01,02,60.030010695,PLT_learning_01,B,2014_Mrz_07_1053,P18,
stim_fb/ques.jpg,stim_fb/negf.jpg,stim_fb/posf.jpg,stim_01/e.jpg,stim_01/f.jpg,2,3,j,2,9,129,50,j,1,0.84976945072,01,02,60.030010695,PLT_learning_01,B,2014_Mrz_07_1053,P18,
stim_fb/ques.jpg,stim_fb/posf.jpg,stim_fb/negf.jpg,stim_01/d.jpg,stim_01/c.jpg,1,2,f,2,10,130,29,f,1,0.74995151784,01,02,60.030010695,PLT_learning_01,B,2014_Mrz_07_1053,P18,
stim_fb/ques.jpg,stim_fb/negf.jpg,stim_fb/posf.jpg,stim_01/e.jpg,stim_01/f.jpg,2,3,j,2,11,131,54,f,0,0.849807459314,01,02,60.030010695,PLT_learning_01,B,2014_Mrz_07_1053,P18,
stim_fb/ques.jpg,stim_fb/negf.jpg,stim_fb/posf.jpg,stim_01/d.jpg,stim_01/c.jpg,1,2,f,2,12,132,23,f,1,0.749810830705,01,02,60.030010695,PLT_learning_01,B,2014_Mrz_07_1053,P18,
stim_fb/ques.jpg,stim_fb/posf.jpg,stim_fb/negf.jpg,stim_01/e.jpg,stim_01/f.jpg,2,3,j,2,13,133,58,j,1,0.549878192351,01,02,60.030010695,PLT_learning_01,B,2014_Mrz_07_1053,P18,
stim_fb/ques.jpg,stim_fb/negf.jpg,stim_fb/posf.jpg,stim_01/d.jpg,stim_01/c.jpg,1,2,f,2,14,134,20,f,1,0.766486946388,01,02,60.030010695,PLT_learning_01,B,2014_Mrz_07_1053,P18,
stim_fb/ques.jpg,stim_fb/negf.jpg,stim_fb/posf.jpg,stim_01/d.jpg,stim_01/c.jpg,1,2,f,2,15,135,21,f,1,0.733130630858,01,02,60.030010695,PLT_learning_01,B,2014_Mrz_07_1053,P18,
stim_fb/ques.jpg,stim_fb/negf.jpg,stim_fb/posf.jpg,stim_01/a.jpg,stim_01/b.jpg,2,1,j,2,16,136,11,j,1,0.633183761085,01,02,60.030010695,PLT_learning_01,B,2014_Mrz_07_1053,P18,
stim_fb/ques.jpg,stim_fb/negf.jpg,stim_fb/posf.jpg,stim_01/c.jpg,stim_01/d.jpg,2,2,j,2,17,137,34,j,1,1.11630807773,01,02,60.030010695,PLT_learning_01,B,2014_Mrz_07_1053,P18,
stim_fb/ques.jpg,stim_fb/negf.jpg,stim_fb/posf.jpg,stim_01/a.jpg,stim_01/b.jpg,2,1,j,2,18,138,17,j,1,0.799804979643,01,02,60.030010695,PLT_learning_01,B,2014_Mrz_07_1053,P18,
stim_fb/ques.jpg,stim_fb/negf.jpg,stim_fb/posf.jpg,stim_01/a.jpg,stim_01/b.jpg,2,1,j,2,19,139,16,j,1,0.733101443217,01,02,60.030010695,PLT_learning_01,B,2014_Mrz_07_1053,P18,
stim_fb/ques.jpg,stim_fb/posf.jpg,stim_fb/negf.jpg,stim_01/c.jpg,stim_01/d.jpg,2,2,j,2,20,140,39,j,1,0.716489792972,01,02,60.030010695,PLT_learning_01,B,2014_Mrz_07_1053,P18,
stim_fb/ques.jpg,stim_fb/posf.jpg,stim_fb/negf.jpg,stim_01/a.jpg,stim_01/b.jpg,2,1,j,2,21,141,18,j,1,0.683171738665,01,02,60.030010695,PLT_learning_01,B,2014_Mrz_07_1053,P18,
stim_fb/ques.jpg,stim_fb/posf.jpg,stim_fb/negf.jpg,stim_01/e.jpg,stim_01/f.jpg,2,3,j,2,22,142,56,j,1,0.799710198757,01,02,60.030010695,PLT_learning_01,B,2014_Mrz_07_1053,P18,
stim_fb/ques.jpg,stim_fb/negf.jpg,stim_fb/posf.jpg,stim_01/f.jpg,stim_01/e.jpg,1,3,f,2,23,143,42,f,1,0.799792778277,01,02,60.030010695,PLT_learning_01,B,2014_Mrz_07_1053,P18,
stim_fb/ques.jpg,stim_fb/negf.jpg,stim_fb/posf.jpg,stim_01/c.jpg,stim_01/d.jpg,2,2,j,2,24,144,33,j,1,0.699803265377,01,02,60.030010695,PLT_learning_01,B,2014_Mrz_07_1053,P18,
stim_fb/ques.jpg,stim_fb/negf.jpg,stim_fb/posf.jpg,stim_01/d.jpg,stim_01/c.jpg,1,2,f,2,25,145,22,f,1,0.966412255501,01,02,60.030010695,PLT_learning_01,B,2014_Mrz_07_1053,P18,
stim_fb/ques.jpg,stim_fb/negf.jpg,stim_fb/posf.jpg,stim_01/b.jpg,stim_01/a.jpg,1,1,f,2,26,146,1,f,1,0.899776579964,01,02,60.030010695,PLT_learning_01,B,2014_Mrz_07_1053,P18,
stim_fb/ques.jpg,stim_fb/negf.jpg,stim_fb/posf.jpg,stim_01/b.jpg,stim_01/a.jpg,1,1,f,2,27,147,0,f,1,0.783136024781,01,02,60.030010695,PLT_learning_01,B,2014_Mrz_07_1053,P18,
stim_fb/ques.jpg,stim_fb/posf.jpg,stim_fb/negf.jpg,stim_01/c.jpg,stim_01/d.jpg,2,2,j,2,28,148,37,j,1,0.716473829243,01,02,60.030010695,PLT_learning_01,B,2014_Mrz_07_1053,P18,
stim_fb/ques.jpg,stim_fb/negf.jpg,stim_fb/posf.jpg,stim_01/b.jpg,stim_01/a.jpg,1,1,f,2,29,149,7,f,1,1.01638998056,01,02,60.030010695,PLT_learning_01,B,2014_Mrz_07_1053,P18,
stim_fb/ques.jpg,stim_fb/negf.jpg,stim_fb/posf.jpg,stim_01/f.jpg,stim_01/e.jpg,1,3,f,2,30,150,40,f,1,0.733145154002,01,02,60.030010695,PLT_learning_01,B,2014_Mrz_07_1053,P18,
stim_fb/ques.jpg,stim_fb/posf.jpg,stim_fb/negf.jpg,stim_01/f.jpg,stim_01/e.jpg,1,3,f,2,31,151,46,f,1,0.549866890223,01,02,60.030010695,PLT_learning_01,B,2014_Mrz_07_1053,P18,
stim_fb/ques.jpg,stim_fb/negf.jpg,stim_fb/posf.jpg,stim_01/a.jpg,stim_01/b.jpg,2,1,j,2,32,152,14,j,1,0.666493247069,01,02,60.030010695,PLT_learning_01,B,2014_Mrz_07_1053,P18,
stim_fb/ques.jpg,stim_fb/negf.jpg,stim_fb/posf.jpg,stim_01/e.jpg,stim_01/f.jpg,2,3,j,2,33,153,55,j,1,0.899730228607,01,02,60.030010695,PLT_learning_01,B,2014_Mrz_07_1053,P18,
stim_fb/ques.jpg,stim_fb/negf.jpg,stim_fb/posf.jpg,stim_01/e.jpg,stim_01/f.jpg,2,3,j,2,34,154,53,j,1,0.583194300816,01,02,60.030010695,PLT_learning_01,B,2014_Mrz_07_1053,P18,
stim_fb/ques.jpg,stim_fb/negf.jpg,stim_fb/posf.jpg,stim_01/c.jpg,stim_01/d.jpg,2,2,j,2,35,155,32,j,1,0.883101339459,01,02,60.030010695,PLT_learning_01,B,2014_Mrz_07_1053,P18,
stim_fb/ques.jpg,stim_fb/negf.jpg,stim_fb/posf.jpg,stim_01/d.jpg,stim_01/c.jpg,1,2,f,2,36,156,26,f,1,0.683111243106,01,02,60.030010695,PLT_learning_01,B,2014_Mrz_07_1053,P18,
stim_fb/ques.jpg,stim_fb/negf.jpg,stim_fb/posf.jpg,stim_01/f.jpg,stim_01/e.jpg,1,3,f,2,37,157,41,f,1,0.69978525355,01,02,60.030010695,PLT_learning_01,B,2014_Mrz_07_1053,P18,
stim_fb/ques.jpg,stim_fb/posf.jpg,stim_fb/negf.jpg,stim_01/d.jpg,stim_01/c.jpg,1,2,f,2,38,158,28,f,1,0.76642875757,01,02,60.030010695,PLT_learning_01,B,2014_Mrz_07_1053,P18,
stim_fb/ques.jpg,stim_fb/posf.jpg,stim_fb/negf.jpg,stim_01/b.jpg,stim_01/a.jpg,1,1,f,2,39,159,9,f,1,0.866428324493,01,02,60.030010695,PLT_learning_01,B,2014_Mrz_07_1053,P18,
stim_fb/ques.jpg,stim_fb/negf.jpg,stim_fb/posf.jpg,stim_01/a.jpg,stim_01/b.jpg,2,1,j,2,40,160,15,j,1,0.833154696752,01,02,60.030010695,PLT_learning_01,B,2014_Mrz_07_1053,P18,
stim_fb/ques.jpg,stim_fb/posf.jpg,stim_fb/negf.jpg,stim_01/f.jpg,stim_01/e.jpg,1,3,f,2,41,161,47,f,1,1.1663034056,01,02,60.030010695,PLT_learning_01,B,2014_Mrz_07_1053,P18,
stim_fb/ques.jpg,stim_fb/posf.jpg,stim_fb/negf.jpg,stim_01/f.jpg,stim_01/e.jpg,1,3,f,2,42,162,48,f,1,0.666495394413,01,02,60.030010695,PLT_learning_01,B,2014_Mrz_07_1053,P18,
stim_fb/ques.jpg,stim_fb/negf.jpg,stim_fb/posf.jpg,stim_01/c.jpg,stim_01/d.jpg,2,2,j,2,43,163,36,j,1,0.766468696969,01,02,60.030010695,PLT_learning_01,B,2014_Mrz_07_1053,P18,
stim_fb/ques.jpg,stim_fb/negf.jpg,stim_fb/posf.jpg,stim_01/b.jpg,stim_01/a.jpg,1,1,f,2,44,164,4,f,1,0.7497771168,01,02,60.030010695,PLT_learning_01,B,2014_Mrz_07_1053,P18,
stim_fb/ques.jpg,stim_fb/posf.jpg,stim_fb/negf.jpg,stim_01/f.jpg,stim_01/e.jpg,1,3,f,2,45,165,49,f,1,1.13298954974,01,02,60.030010695,PLT_learning_01,B,2014_Mrz_07_1053,P18,
stim_fb/ques.jpg,stim_fb/posf.jpg,stim_fb/negf.jpg,stim_01/b.jpg,stim_01/a.jpg,1,1,f,2,46,166,8,f,1,1.149727776,01,02,60.030010695,PLT_learning_01,B,2014_Mrz_07_1053,P18,
stim_fb/ques.jpg,stim_fb/negf.jpg,stim_fb/posf.jpg,stim_01/a.jpg,stim_01/b.jpg,2,1,j,2,47,167,13,j,1,0.749800713525,01,02,60.030010695,PLT_learning_01,B,2014_Mrz_07_1053,P18,
stim_fb/ques.jpg,stim_fb/negf.jpg,stim_fb/posf.jpg,stim_01/b.jpg,stim_01/a.jpg,1,1,f,2,48,168,5,f,1,0.716493419999,01,02,60.030010695,PLT_learning_01,B,2014_Mrz_07_1053,P18,
stim_fb/ques.jpg,stim_fb/posf.jpg,stim_fb/negf.jpg,stim_01/c.jpg,stim_01/d.jpg,2,2,j,2,49,169,38,j,1,0.949728753435,01,02,60.030010695,PLT_learning_01,B,2014_Mrz_07_1053,P18,
stim_fb/ques.jpg,stim_fb/negf.jpg,stim_fb/posf.jpg,stim_01/a.jpg,stim_01/b.jpg,2,1,j,2,50,170,10,j,1,0.816442337868,01,02,60.030010695,PLT_learning_01,B,2014_Mrz_07_1053,P18,
stim_fb/ques.jpg,stim_fb/negf.jpg,stim_fb/posf.jpg,stim_01/c.jpg,stim_01/d.jpg,2,2,j,2,51,171,31,j,1,0.73314996297,01,02,60.030010695,PLT_learning_01,B,2014_Mrz_07_1053,P18,
stim_fb/ques.jpg,stim_fb/negf.jpg,stim_fb/posf.jpg,stim_01/f.jpg,stim_01/e.jpg,1,3,f,2,52,172,43,f,1,0.816450205449,01,02,60.030010695,PLT_learning_01,B,2014_Mrz_07_1053,P18,
stim_fb/ques.jpg,stim_fb/posf.jpg,stim_fb/negf.jpg,stim_01/e.jpg,stim_01/f.jpg,2,3,j,2,53,173,59,j,1,0.583183215227,01,02,60.030010695,PLT_learning_01,B,2014_Mrz_07_1053,P18,
stim_fb/ques.jpg,stim_fb/posf.jpg,stim_fb/negf.jpg,stim_01/a.jpg,stim_01/b.jpg,2,1,j,2,54,174,19,j,1,0.933066024068,01,02,60.030010695,PLT_learning_01,B,2014_Mrz_07_1053,P18,
stim_fb/ques.jpg,stim_fb/negf.jpg,stim_fb/posf.jpg,stim_01/d.jpg,stim_01/c.jpg,1,2,f,2,55,175,24,f,1,0.699832293621,01,02,60.030010695,PLT_learning_01,B,2014_Mrz_07_1053,P18,
stim_fb/ques.jpg,stim_fb/negf.jpg,stim_fb/posf.jpg,stim_01/c.jpg,stim_01/d.jpg,2,2,j,2,56,176,30,j,1,0.833059106852,01,02,60.030010695,PLT_learning_01,B,2014_Mrz_07_1053,P18,
stim_fb/ques.jpg,stim_fb/negf.jpg,stim_fb/posf.jpg,stim_01/e.jpg,stim_01/f.jpg,2,3,j,2,57,177,51,j,1,0.583210126202,01,02,60.030010695,PLT_learning_01,B,2014_Mrz_07_1053,P18,
stim_fb/ques.jpg,stim_fb/negf.jpg,stim_fb/posf.jpg,stim_01/f.jpg,stim_01/e.jpg,1,3,f,2,58,178,44,f,1,0.583115059605,01,02,60.030010695,PLT_learning_01,B,2014_Mrz_07_1053,P18,
stim_fb/ques.jpg,stim_fb/negf.jpg,stim_fb/posf.jpg,stim_01/b.jpg,stim_01/a.jpg,1,1,f,2,59,179,6,f,1,0.716460033909,01,02,60.030010695,PLT_learning_01,B,2014_Mrz_07_1053,P18,
stim_fb/ques.jpg,stim_fb/negf.jpg,stim_fb/posf.jpg,stim_01/b.jpg,stim_01/a.jpg,1,1,f,3,0,180,7,f,1,0.633165731213,01,02,60.030010695,PLT_learning_01,B,2014_Mrz_07_1053,P18,
stim_fb/ques.jpg,stim_fb/negf.jpg,stim_fb/posf.jpg,stim_01/a.jpg,stim_01/b.jpg,2,1,j,3,1,181,16,j,1,0.683201855618,01,02,60.030010695,PLT_learning_01,B,2014_Mrz_07_1053,P18,
stim_fb/ques.jpg,stim_fb/posf.jpg,stim_fb/negf.jpg,stim_01/a.jpg,stim_01/b.jpg,2,1,j,3,2,182,18,j,1,0.599865956399,01,02,60.030010695,PLT_learning_01,B,2014_Mrz_07_1053,P18,
stim_fb/ques.jpg,stim_fb/posf.jpg,stim_fb/negf.jpg,stim_01/e.jpg,stim_01/f.jpg,2,3,j,3,3,183,58,j,1,0.816444241606,01,02,60.030010695,PLT_learning_01,B,2014_Mrz_07_1053,P18,
stim_fb/ques.jpg,stim_fb/negf.jpg,stim_fb/posf.jpg,stim_01/c.jpg,stim_01/d.jpg,2,2,j,3,4,184,31,j,1,0.883090308004,01,02,60.030010695,PLT_learning_01,B,2014_Mrz_07_1053,P18,
stim_fb/ques.jpg,stim_fb/negf.jpg,stim_fb/posf.jpg,stim_01/a.jpg,stim_01/b.jpg,2,1,j,3,5,185,14,j,1,0.666503941685,01,02,60.030010695,PLT_learning_01,B,2014_Mrz_07_1053,P18,
stim_fb/ques.jpg,stim_fb/posf.jpg,stim_fb/negf.jpg,stim_01/f.jpg,stim_01/e.jpg,1,3,f,3,6,186,48,f,1,0.566520022706,01,02,60.030010695,PLT_learning_01,B,2014_Mrz_07_1053,P18,
stim_fb/ques.jpg,stim_fb/negf.jpg,stim_fb/posf.jpg,stim_01/b.jpg,stim_01/a.jpg,1,1,f,3,7,187,5,f,1,0.699773004064,01,02,60.030010695,PLT_learning_01,B,2014_Mrz_07_1053,P18,
stim_fb/ques.jpg,stim_fb/negf.jpg,stim_fb/posf.jpg,stim_01/d.jpg,stim_01/c.jpg,1,2,f,3,8,188,26,f,1,0.933051958061,01,02,60.030010695,PLT_learning_01,B,2014_Mrz_07_1053,P18,
stim_fb/ques.jpg,stim_fb/negf.jpg,stim_fb/posf.jpg,stim_01/d.jpg,stim_01/c.jpg,1,2,f,3,9,189,24,f,1,1.36626444965,01,02,60.030010695,PLT_learning_01,B,2014_Mrz_07_1053,P18,
stim_fb/ques.jpg,stim_fb/posf.jpg,stim_fb/negf.jpg,stim_01/d.jpg,stim_01/c.jpg,1,2,f,3,10,190,28,f,1,0.766435142461,01,02,60.030010695,PLT_learning_01,B,2014_Mrz_07_1053,P18,
stim_fb/ques.jpg,stim_fb/posf.jpg,stim_fb/negf.jpg,stim_01/f.jpg,stim_01/e.jpg,1,3,f,3,11,191,47,f,1,0.883086271959,01,02,60.030010695,PLT_learning_01,B,2014_Mrz_07_1053,P18,
stim_fb/ques.jpg,stim_fb/negf.jpg,stim_fb/posf.jpg,stim_01/f.jpg,stim_01/e.jpg,1,3,f,3,12,192,42,f,1,0.59988609151,01,02,60.030010695,PLT_learning_01,B,2014_Mrz_07_1053,P18,
stim_fb/ques.jpg,stim_fb/negf.jpg,stim_fb/posf.jpg,stim_01/f.jpg,stim_01/e.jpg,1,3,f,3,13,193,45,f,1,0.983012308884,01,02,60.030010695,PLT_learning_01,B,2014_Mrz_07_1053,P18,
stim_fb/ques.jpg,stim_fb/negf.jpg,stim_fb/posf.jpg,stim_01/b.jpg,stim_01/a.jpg,1,1,f,3,14,194,2,f,1,0.716450827998,01,02,60.030010695,PLT_learning_01,B,2014_Mrz_07_1053,P18,
stim_fb/ques.jpg,stim_fb/posf.jpg,stim_fb/negf.jpg,stim_01/c.jpg,stim_01/d.jpg,2,2,j,3,15,195,39,j,1,0.799797785739,01,02,60.030010695,PLT_learning_01,B,2014_Mrz_07_1053,P18,
stim_fb/ques.jpg,stim_fb/negf.jpg,stim_fb/posf.jpg,stim_01/c.jpg,stim_01/d.jpg,2,2,j,3,16,196,32,j,1,1.08301057056,01,02,60.030010695,PLT_learning_01,B,2014_Mrz_07_1053,P18,
stim_fb/ques.jpg,stim_fb/negf.jpg,stim_fb/posf.jpg,stim_01/e.jpg,stim_01/f.jpg,2,3,j,3,17,197,54,None,0,,01,02,60.030010695,PLT_learning_01,B,2014_Mrz_07_1053,P18,
stim_fb/ques.jpg,stim_fb/negf.jpg,stim_fb/posf.jpg,stim_01/c.jpg,stim_01/d.jpg,2,2,j,3,18,198,33,j,1,0.866431906407,01,02,60.030010695,PLT_learning_01,B,2014_Mrz_07_1053,P18,
stim_fb/ques.jpg,stim_fb/negf.jpg,stim_fb/posf.jpg,stim_01/b.jpg,stim_01/a.jpg,1,1,f,3,19,199,4,f,1,0.633183848302,01,02,60.030010695,PLT_learning_01,B,2014_Mrz_07_1053,P18,
stim_fb/ques.jpg,stim_fb/negf.jpg,stim_fb/posf.jpg,stim_01/a.jpg,stim_01/b.jpg,2,1,j,3,20,200,10,j,1,0.583189555005,01,02,60.030010695,PLT_learning_01,B,2014_Mrz_07_1053,P18,
stim_fb/ques.jpg,stim_fb/posf.jpg,stim_fb/negf.jpg,stim_01/d.jpg,stim_01/c.jpg,1,2,f,3,21,201,27,f,1,0.716462587264,01,02,60.030010695,PLT_learning_01,B,2014_Mrz_07_1053,P18,
stim_fb/ques.jpg,stim_fb/negf.jpg,stim_fb/posf.jpg,stim_01/a.jpg,stim_01/b.jpg,2,1,j,3,22,202,11,j,1,0.616501410886,01,02,60.030010695,PLT_learning_01,B,2014_Mrz_07_1053,P18,
stim_fb/ques.jpg,stim_fb/posf.jpg,stim_fb/negf.jpg,stim_01/b.jpg,stim_01/a.jpg,1,1,f,3,23,203,8,f,1,0.833107428112,01,02,60.030010695,PLT_learning_01,B,2014_Mrz_07_1053,P18,
stim_fb/ques.jpg,stim_fb/negf.jpg,stim_fb/posf.jpg,stim_01/b.jpg,stim_01/a.jpg,1,1,f,3,24,204,6,f,1,0.699828901178,01,02,60.030010695,PLT_learning_01,B,2014_Mrz_07_1053,P18,
stim_fb/ques.jpg,stim_fb/posf.jpg,stim_fb/negf.jpg,stim_01/e.jpg,stim_01/f.jpg,2,3,j,3,25,205,59,j,1,0.916408527723,01,02,60.030010695,PLT_learning_01,B,2014_Mrz_07_1053,P18,
stim_fb/ques.jpg,stim_fb/negf.jpg,stim_fb/posf.jpg,stim_01/d.jpg,stim_01/c.jpg,1,2,f,3,26,206,23,f,1,1.06630727323,01,02,60.030010695,PLT_learning_01,B,2014_Mrz_07_1053,P18,
stim_fb/ques.jpg,stim_fb/posf.jpg,stim_fb/negf.jpg,stim_01/c.jpg,stim_01/d.jpg,2,2,j,3,27,207,38,j,1,0.833066601504,01,02,60.030010695,PLT_learning_01,B,2014_Mrz_07_1053,P18,
stim_fb/ques.jpg,stim_fb/negf.jpg,stim_fb/posf.jpg,stim_01/e.jpg,stim_01/f.jpg,2,3,j,3,28,208,51,j,1,0.866451172355,01,02,60.030010695,PLT_learning_01,B,2014_Mrz_07_1053,P18,
stim_fb/ques.jpg,stim_fb/posf.jpg,stim_fb/negf.jpg,stim_01/f.jpg,stim_01/e.jpg,1,3,f,3,29,209,49,f,1,0.849745580313,01,02,60.030010695,PLT_learning_01,B,2014_Mrz_07_1053,P18,
stim_fb/ques.jpg,stim_fb/negf.jpg,stim_fb/posf.jpg,stim_01/c.jpg,stim_01/d.jpg,2,2,j,3,30,210,34,j,1,0.699879502111,01,02,60.030010695,PLT_learning_01,B,2014_Mrz_07_1053,P18,
stim_fb/ques.jpg,stim_fb/negf.jpg,stim_fb/posf.jpg,stim_01/b.jpg,stim_01/a.jpg,1,1,f,3,31,211,3,f,1,0.999701281565,01,02,60.030010695,PLT_learning_01,B,2014_Mrz_07_1053,P18,
stim_fb/ques.jpg,stim_fb/negf.jpg,stim_fb/posf.jpg,stim_01/a.jpg,stim_01/b.jpg,2,1,j,3,32,212,13,j,1,0.61653543757,01,02,60.030010695,PLT_learning_01,B,2014_Mrz_07_1053,P18,
stim_fb/ques.jpg,stim_fb/posf.jpg,stim_fb/negf.jpg,stim_01/c.jpg,stim_01/d.jpg,2,2,j,3,33,213,37,j,1,0.716476328463,01,02,60.030010695,PLT_learning_01,B,2014_Mrz_07_1053,P18,
stim_fb/ques.jpg,stim_fb/negf.jpg,stim_fb/posf.jpg,stim_01/f.jpg,stim_01/e.jpg,1,3,f,3,34,214,40,f,1,0.716480999087,01,02,60.030010695,PLT_learning_01,B,2014_Mrz_07_1053,P18,
stim_fb/ques.jpg,stim_fb/negf.jpg,stim_fb/posf.jpg,stim_01/d.jpg,stim_01/c.jpg,1,2,f,3,35,215,20,f,1,0.716502138698,01,02,60.030010695,PLT_learning_01,B,2014_Mrz_07_1053,P18,
stim_fb/ques.jpg,stim_fb/posf.jpg,stim_fb/negf.jpg,stim_01/e.jpg,stim_01/f.jpg,2,3,j,3,36,216,56,j,1,0.583180282929,01,02,60.030010695,PLT_learning_01,B,2014_Mrz_07_1053,P18,
stim_fb/ques.jpg,stim_fb/posf.jpg,stim_fb/negf.jpg,stim_01/b.jpg,stim_01/a.jpg,1,1,f,3,37,217,9,f,1,0.633139542035,01,02,60.030010695,PLT_learning_01,B,2014_Mrz_07_1053,P18,
stim_fb/ques.jpg,stim_fb/negf.jpg,stim_fb/posf.jpg,stim_01/d.jpg,stim_01/c.jpg,1,2,f,3,38,218,22,f,1,0.81641710507,01,02,60.030010695,PLT_learning_01,B,2014_Mrz_07_1053,P18,
stim_fb/ques.jpg,stim_fb/negf.jpg,stim_fb/posf.jpg,stim_01/e.jpg,stim_01/f.jpg,2,3,j,3,39,219,53,j,1,0.61651213257,01,02,60.030010695,PLT_learning_01,B,2014_Mrz_07_1053,P18,
stim_fb/ques.jpg,stim_fb/posf.jpg,stim_fb/negf.jpg,stim_01/f.jpg,stim_01/e.jpg,1,3,f,3,40,220,46,f,1,0.599801737574,01,02,60.030010695,PLT_learning_01,B,2014_Mrz_07_1053,P18,
stim_fb/ques.jpg,stim_fb/negf.jpg,stim_fb/posf.jpg,stim_01/a.jpg,stim_01/b.jpg,2,1,j,3,41,221,17,j,1,0.666455981323,01,02,60.030010695,PLT_learning_01,B,2014_Mrz_07_1053,P18,
stim_fb/ques.jpg,stim_fb/negf.jpg,stim_fb/posf.jpg,stim_01/d.jpg,stim_01/c.jpg,1,2,f,3,42,222,25,f,1,0.749803832287,01,02,60.030010695,PLT_learning_01,B,2014_Mrz_07_1053,P18,
stim_fb/ques.jpg,stim_fb/negf.jpg,stim_fb/posf.jpg,stim_01/f.jpg,stim_01/e.jpg,1,3,f,3,43,223,43,f,1,0.733119388879,01,02,60.030010695,PLT_learning_01,B,2014_Mrz_07_1053,P18,
stim_fb/ques.jpg,stim_fb/negf.jpg,stim_fb/posf.jpg,stim_01/a.jpg,stim_01/b.jpg,2,1,j,3,44,224,15,j,1,0.599835998842,01,02,60.030010695,PLT_learning_01,B,2014_Mrz_07_1053,P18,
stim_fb/ques.jpg,stim_fb/negf.jpg,stim_fb/posf.jpg,stim_01/b.jpg,stim_01/a.jpg,1,1,f,3,45,225,1,f,1,0.666491319271,01,02,60.030010695,PLT_learning_01,B,2014_Mrz_07_1053,P18,
stim_fb/ques.jpg,stim_fb/negf.jpg,stim_fb/posf.jpg,stim_01/e.jpg,stim_01/f.jpg,2,3,j,3,46,226,50,j,1,0.683120512175,01,02,60.030010695,PLT_learning_01,B,2014_Mrz_07_1053,P18,
stim_fb/ques.jpg,stim_fb/negf.jpg,stim_fb/posf.jpg,stim_01/e.jpg,stim_01/f.jpg,2,3,j,3,47,227,52,j,1,0.483212544219,01,02,60.030010695,PLT_learning_01,B,2014_Mrz_07_1053,P18,
stim_fb/ques.jpg,stim_fb/negf.jpg,stim_fb/posf.jpg,stim_01/c.jpg,stim_01/d.jpg,2,2,j,3,48,228,35,j,1,0.883122506137,01,02,60.030010695,PLT_learning_01,B,2014_Mrz_07_1053,P18,
stim_fb/ques.jpg,stim_fb/negf.jpg,stim_fb/posf.jpg,stim_01/c.jpg,stim_01/d.jpg,2,2,j,3,49,229,30,j,1,0.816461823363,01,02,60.030010695,PLT_learning_01,B,2014_Mrz_07_1053,P18,
stim_fb/ques.jpg,stim_fb/negf.jpg,stim_fb/posf.jpg,stim_01/e.jpg,stim_01/f.jpg,2,3,j,3,50,230,55,f,0,0.683146635188,01,02,60.030010695,PLT_learning_01,B,2014_Mrz_07_1053,P18,
stim_fb/ques.jpg,stim_fb/negf.jpg,stim_fb/posf.jpg,stim_01/f.jpg,stim_01/e.jpg,1,3,f,3,51,231,41,f,1,0.683152725345,01,02,60.030010695,PLT_learning_01,B,2014_Mrz_07_1053,P18,
stim_fb/ques.jpg,stim_fb/posf.jpg,stim_fb/negf.jpg,stim_01/d.jpg,stim_01/c.jpg,1,2,f,3,52,232,29,f,1,0.749759844814,01,02,60.030010695,PLT_learning_01,B,2014_Mrz_07_1053,P18,
stim_fb/ques.jpg,stim_fb/negf.jpg,stim_fb/posf.jpg,stim_01/a.jpg,stim_01/b.jpg,2,1,j,3,53,233,12,j,1,0.683149528389,01,02,60.030010695,PLT_learning_01,B,2014_Mrz_07_1053,P18,
stim_fb/ques.jpg,stim_fb/posf.jpg,stim_fb/negf.jpg,stim_01/a.jpg,stim_01/b.jpg,2,1,j,3,54,234,19,j,1,0.666493334286,01,02,60.030010695,PLT_learning_01,B,2014_Mrz_07_1053,P18,
stim_fb/ques.jpg,stim_fb/negf.jpg,stim_fb/posf.jpg,stim_01/f.jpg,stim_01/e.jpg,1,3,f,3,55,235,44,f,1,0.733129689514,01,02,60.030010695,PLT_learning_01,B,2014_Mrz_07_1053,P18,
stim_fb/ques.jpg,stim_fb/negf.jpg,stim_fb/posf.jpg,stim_01/d.jpg,stim_01/c.jpg,1,2,f,3,56,236,21,f,1,0.683150069736,01,02,60.030010695,PLT_learning_01,B,2014_Mrz_07_1053,P18,
stim_fb/ques.jpg,stim_fb/posf.jpg,stim_fb/negf.jpg,stim_01/e.jpg,stim_01/f.jpg,2,3,j,3,57,237,57,f,0,0.566555032838,01,02,60.030010695,PLT_learning_01,B,2014_Mrz_07_1053,P18,
stim_fb/ques.jpg,stim_fb/negf.jpg,stim_fb/posf.jpg,stim_01/c.jpg,stim_01/d.jpg,2,2,j,3,58,238,36,j,1,0.64983918828,01,02,60.030010695,PLT_learning_01,B,2014_Mrz_07_1053,P18,
stim_fb/ques.jpg,stim_fb/negf.jpg,stim_fb/posf.jpg,stim_01/b.jpg,stim_01/a.jpg,1,1,f,3,59,239,0,f,1,0.716454283599,01,02,60.030010695,PLT_learning_01,B,2014_Mrz_07_1053,P18,
stim_fb/ques.jpg,stim_fb/negf.jpg,stim_fb/posf.jpg,stim_01/d.jpg,stim_01/c.jpg,1,2,f,4,0,240,20,f,1,0.683176553648,01,02,60.030010695,PLT_learning_01,B,2014_Mrz_07_1053,P18,
stim_fb/ques.jpg,stim_fb/posf.jpg,stim_fb/negf.jpg,stim_01/c.jpg,stim_01/d.jpg,2,2,j,4,1,241,39,j,1,0.733161647049,01,02,60.030010695,PLT_learning_01,B,2014_Mrz_07_1053,P18,
stim_fb/ques.jpg,stim_fb/posf.jpg,stim_fb/negf.jpg,stim_01/f.jpg,stim_01/e.jpg,1,3,f,4,2,242,46,f,1,0.583272892411,01,02,60.030010695,PLT_learning_01,B,2014_Mrz_07_1053,P18,
stim_fb/ques.jpg,stim_fb/negf.jpg,stim_fb/posf.jpg,stim_01/d.jpg,stim_01/c.jpg,1,2,f,4,3,243,25,f,1,0.683153684733,01,02,60.030010695,PLT_learning_01,B,2014_Mrz_07_1053,P18,
stim_fb/ques.jpg,stim_fb/negf.jpg,stim_fb/posf.jpg,stim_01/b.jpg,stim_01/a.jpg,1,1,f,4,4,244,7,f,1,0.683154785473,01,02,60.030010695,PLT_learning_01,B,2014_Mrz_07_1053,P18,
stim_fb/ques.jpg,stim_fb/negf.jpg,stim_fb/posf.jpg,stim_01/a.jpg,stim_01/b.jpg,2,1,j,4,5,245,13,j,1,0.983060696308,01,02,60.030010695,PLT_learning_01,B,2014_Mrz_07_1053,P18,
stim_fb/ques.jpg,stim_fb/posf.jpg,stim_fb/negf.jpg,stim_01/e.jpg,stim_01/f.jpg,2,3,j,4,6,246,58,j,1,1.06632462341,01,02,60.030010695,PLT_learning_01,B,2014_Mrz_07_1053,P18,
stim_fb/ques.jpg,stim_fb/posf.jpg,stim_fb/negf.jpg,stim_01/b.jpg,stim_01/a.jpg,1,1,f,4,7,247,8,f,1,0.599828453063,01,02,60.030010695,PLT_learning_01,B,2014_Mrz_07_1053,P18,
stim_fb/ques.jpg,stim_fb/negf.jpg,stim_fb/posf.jpg,stim_01/a.jpg,stim_01/b.jpg,2,1,j,4,8,248,10,j,1,0.599851977609,01,02,60.030010695,PLT_learning_01,B,2014_Mrz_07_1053,P18,
stim_fb/ques.jpg,stim_fb/negf.jpg,stim_fb/posf.jpg,stim_01/a.jpg,stim_01/b.jpg,2,1,j,4,9,249,16,j,1,0.766431341,01,02,60.030010695,PLT_learning_01,B,2014_Mrz_07_1053,P18,
stim_fb/ques.jpg,stim_fb/negf.jpg,stim_fb/posf.jpg,stim_01/a.jpg,stim_01/b.jpg,2,1,j,4,10,250,17,j,1,1.01637106649,01,02,60.030010695,PLT_learning_01,B,2014_Mrz_07_1053,P18,
stim_fb/ques.jpg,stim_fb/negf.jpg,stim_fb/posf.jpg,stim_01/f.jpg,stim_01/e.jpg,1,3,f,4,11,251,41,f,1,1.14969204407,01,02,60.030010695,PLT_learning_01,B,2014_Mrz_07_1053,P18,
stim_fb/ques.jpg,stim_fb/posf.jpg,stim_fb/negf.jpg,stim_01/d.jpg,stim_01/c.jpg,1,2,f,4,12,252,27,f,1,1.01637817619,01,02,60.030010695,PLT_learning_01,B,2014_Mrz_07_1053,P18,
stim_fb/ques.jpg,stim_fb/negf.jpg,stim_fb/posf.jpg,stim_01/a.jpg,stim_01/b.jpg,2,1,j,4,13,253,14,j,1,0.849632670308,01,02,60.030010695,PLT_learning_01,B,2014_Mrz_07_1053,P18,
stim_fb/ques.jpg,stim_fb/negf.jpg,stim_fb/posf.jpg,stim_01/c.jpg,stim_01/d.jpg,2,2,j,4,14,254,32,j,1,0.833125259489,01,02,60.030010695,PLT_learning_01,B,2014_Mrz_07_1053,P18,
stim_fb/ques.jpg,stim_fb/negf.jpg,stim_fb/posf.jpg,stim_01/a.jpg,stim_01/b.jpg,2,1,j,4,15,255,15,j,1,0.983053367067,01,02,60.030010695,PLT_learning_01,B,2014_Mrz_07_1053,P18,
stim_fb/ques.jpg,stim_fb/negf.jpg,stim_fb/posf.jpg,stim_01/e.jpg,stim_01/f.jpg,2,3,j,4,16,256,51,j,1,0.933079834438,01,02,60.030010695,PLT_learning_01,B,2014_Mrz_07_1053,P18,
stim_fb/ques.jpg,stim_fb/posf.jpg,stim_fb/negf.jpg,stim_01/a.jpg,stim_01/b.jpg,2,1,j,4,17,257,18,j,1,1.11628076074,01,02,60.030010695,PLT_learning_01,B,2014_Mrz_07_1053,P18,
stim_fb/ques.jpg,stim_fb/negf.jpg,stim_fb/posf.jpg,stim_01/b.jpg,stim_01/a.jpg,1,1,f,4,18,258,5,f,1,0.933062180502,01,02,60.030010695,PLT_learning_01,B,2014_Mrz_07_1053,P18,
stim_fb/ques.jpg,stim_fb/posf.jpg,stim_fb/negf.jpg,stim_01/e.jpg,stim_01/f.jpg,2,3,j,4,19,259,56,j,1,0.799770922884,01,02,60.030010695,PLT_learning_01,B,2014_Mrz_07_1053,P18,
stim_fb/ques.jpg,stim_fb/posf.jpg,stim_fb/negf.jpg,stim_01/c.jpg,stim_01/d.jpg,2,2,j,4,20,260,37,j,1,0.716432401139,01,02,60.030010695,PLT_learning_01,B,2014_Mrz_07_1053,P18,
stim_fb/ques.jpg,stim_fb/negf.jpg,stim_fb/posf.jpg,stim_01/d.jpg,stim_01/c.jpg,1,2,f,4,21,261,24,f,1,0.799803133047,01,02,60.030010695,PLT_learning_01,B,2014_Mrz_07_1053,P18,
stim_fb/ques.jpg,stim_fb/posf.jpg,stim_fb/negf.jpg,stim_01/d.jpg,stim_01/c.jpg,1,2,f,4,22,262,29,f,1,0.683145299865,01,02,60.030010695,PLT_learning_01,B,2014_Mrz_07_1053,P18,
stim_fb/ques.jpg,stim_fb/negf.jpg,stim_fb/posf.jpg,stim_01/d.jpg,stim_01/c.jpg,1,2,f,4,23,263,26,f,1,0.816487362924,01,02,60.030010695,PLT_learning_01,B,2014_Mrz_07_1053,P18,
stim_fb/ques.jpg,stim_fb/negf.jpg,stim_fb/posf.jpg,stim_01/b.jpg,stim_01/a.jpg,1,1,f,4,24,264,4,f,1,0.866440053684,01,02,60.030010695,PLT_learning_01,B,2014_Mrz_07_1053,P18,
stim_fb/ques.jpg,stim_fb/negf.jpg,stim_fb/posf.jpg,stim_01/f.jpg,stim_01/e.jpg,1,3,f,4,25,265,45,f,1,0.966406273614,01,02,60.030010695,PLT_learning_01,B,2014_Mrz_07_1053,P18,
stim_fb/ques.jpg,stim_fb/negf.jpg,stim_fb/posf.jpg,stim_01/d.jpg,stim_01/c.jpg,1,2,f,4,26,266,21,f,1,1.09967438563,01,02,60.030010695,PLT_learning_01,B,2014_Mrz_07_1053,P18,
stim_fb/ques.jpg,stim_fb/negf.jpg,stim_fb/posf.jpg,stim_01/f.jpg,stim_01/e.jpg,1,3,f,4,27,267,40,f,1,0.74976714398,01,02,60.030010695,PLT_learning_01,B,2014_Mrz_07_1053,P18,
stim_fb/ques.jpg,stim_fb/negf.jpg,stim_fb/posf.jpg,stim_01/a.jpg,stim_01/b.jpg,2,1,j,4,28,268,12,j,1,0.716489125311,01,02,60.030010695,PLT_learning_01,B,2014_Mrz_07_1053,P18,
stim_fb/ques.jpg,stim_fb/posf.jpg,stim_fb/negf.jpg,stim_01/f.jpg,stim_01/e.jpg,1,3,f,4,29,269,47,f,1,0.783140623226,01,02,60.030010695,PLT_learning_01,B,2014_Mrz_07_1053,P18,
stim_fb/ques.jpg,stim_fb/posf.jpg,stim_fb/negf.jpg,stim_01/f.jpg,stim_01/e.jpg,1,3,f,4,30,270,49,f,1,0.633082078022,01,02,60.030010695,PLT_learning_01,B,2014_Mrz_07_1053,P18,
stim_fb/ques.jpg,stim_fb/posf.jpg,stim_fb/negf.jpg,stim_01/f.jpg,stim_01/e.jpg,1,3,f,4,31,271,48,f,1,0.483248089683,01,02,60.030010695,PLT_learning_01,B,2014_Mrz_07_1053,P18,
stim_fb/ques.jpg,stim_fb/negf.jpg,stim_fb/posf.jpg,stim_01/e.jpg,stim_01/f.jpg,2,3,j,4,32,272,52,j,1,0.733108483739,01,02,60.030010695,PLT_learning_01,B,2014_Mrz_07_1053,P18,
stim_fb/ques.jpg,stim_fb/negf.jpg,stim_fb/posf.jpg,stim_01/f.jpg,stim_01/e.jpg,1,3,f,4,33,273,44,f,1,0.666535478171,01,02,60.030010695,PLT_learning_01,B,2014_Mrz_07_1053,P18,
stim_fb/ques.jpg,stim_fb/negf.jpg,stim_fb/posf.jpg,stim_01/b.jpg,stim_01/a.jpg,1,1,f,4,34,274,6,f,1,0.899753551652,01,02,60.030010695,PLT_learning_01,B,2014_Mrz_07_1053,P18,
stim_fb/ques.jpg,stim_fb/posf.jpg,stim_fb/negf.jpg,stim_01/d.jpg,stim_01/c.jpg,1,2,f,4,35,275,28,f,1,0.799781415999,01,02,60.030010695,PLT_learning_01,B,2014_Mrz_07_1053,P18,
stim_fb/ques.jpg,stim_fb/negf.jpg,stim_fb/posf.jpg,stim_01/c.jpg,stim_01/d.jpg,2,2,j,4,36,276,35,j,1,0.583190857246,01,02,60.030010695,PLT_learning_01,B,2014_Mrz_07_1053,P18,
stim_fb/ques.jpg,stim_fb/negf.jpg,stim_fb/posf.jpg,stim_01/c.jpg,stim_01/d.jpg,2,2,j,4,37,277,34,j,1,0.649825389939,01,02,60.030010695,PLT_learning_01,B,2014_Mrz_07_1053,P18,
stim_fb/ques.jpg,stim_fb/negf.jpg,stim_fb/posf.jpg,stim_01/e.jpg,stim_01/f.jpg,2,3,j,4,38,278,50,j,1,0.816397664688,01,02,60.030010695,PLT_learning_01,B,2014_Mrz_07_1053,P18,
stim_fb/ques.jpg,stim_fb/negf.jpg,stim_fb/posf.jpg,stim_01/e.jpg,stim_01/f.jpg,2,3,j,4,39,279,53,j,1,0.549881097581,01,02,60.030010695,PLT_learning_01,B,2014_Mrz_07_1053,P18,
stim_fb/ques.jpg,stim_fb/negf.jpg,stim_fb/posf.jpg,stim_01/c.jpg,stim_01/d.jpg,2,2,j,4,40,280,36,j,1,0.733089001252,01,02,60.030010695,PLT_learning_01,B,2014_Mrz_07_1053,P18,
stim_fb/ques.jpg,stim_fb/posf.jpg,stim_fb/negf.jpg,stim_01/b.jpg,stim_01/a.jpg,1,1,f,4,41,281,9,f,1,0.883108112314,01,02,60.030010695,PLT_learning_01,B,2014_Mrz_07_1053,P18,
stim_fb/ques.jpg,stim_fb/negf.jpg,stim_fb/posf.jpg,stim_01/e.jpg,stim_01/f.jpg,2,3,j,4,42,282,54,j,1,0.666492567377,01,02,60.030010695,PLT_learning_01,B,2014_Mrz_07_1053,P18,
stim_fb/ques.jpg,stim_fb/posf.jpg,stim_fb/negf.jpg,stim_01/a.jpg,stim_01/b.jpg,2,1,j,4,43,283,19,j,1,0.616523651237,01,02,60.030010695,PLT_learning_01,B,2014_Mrz_07_1053,P18,
stim_fb/ques.jpg,stim_fb/negf.jpg,stim_fb/posf.jpg,stim_01/a.jpg,stim_01/b.jpg,2,1,j,4,44,284,11,j,1,0.533204834532,01,02,60.030010695,PLT_learning_01,B,2014_Mrz_07_1053,P18,
stim_fb/ques.jpg,stim_fb/negf.jpg,stim_fb/posf.jpg,stim_01/f.jpg,stim_01/e.jpg,1,3,f,4,45,285,43,f,1,0.716465588734,01,02,60.030010695,PLT_learning_01,B,2014_Mrz_07_1053,P18,
stim_fb/ques.jpg,stim_fb/posf.jpg,stim_fb/negf.jpg,stim_01/e.jpg,stim_01/f.jpg,2,3,j,4,46,286,57,j,1,0.583228787645,01,02,60.030010695,PLT_learning_01,B,2014_Mrz_07_1053,P18,
stim_fb/ques.jpg,stim_fb/negf.jpg,stim_fb/posf.jpg,stim_01/c.jpg,stim_01/d.jpg,2,2,j,4,47,287,30,j,1,0.666523884317,01,02,60.030010695,PLT_learning_01,B,2014_Mrz_07_1053,P18,
stim_fb/ques.jpg,stim_fb/negf.jpg,stim_fb/posf.jpg,stim_01/c.jpg,stim_01/d.jpg,2,2,j,4,48,288,31,j,1,0.549881187806,01,02,60.030010695,PLT_learning_01,B,2014_Mrz_07_1053,P18,
stim_fb/ques.jpg,stim_fb/negf.jpg,stim_fb/posf.jpg,stim_01/f.jpg,stim_01/e.jpg,1,3,f,4,49,289,42,f,1,0.616522451251,01,02,60.030010695,PLT_learning_01,B,2014_Mrz_07_1053,P18,
stim_fb/ques.jpg,stim_fb/posf.jpg,stim_fb/negf.jpg,stim_01/e.jpg,stim_01/f.jpg,2,3,j,4,50,290,59,j,1,0.699959985414,01,02,60.030010695,PLT_learning_01,B,2014_Mrz_07_1053,P18,
stim_fb/ques.jpg,stim_fb/posf.jpg,stim_fb/negf.jpg,stim_01/c.jpg,stim_01/d.jpg,2,2,j,4,51,291,38,j,1,0.83318129194,01,02,60.030010695,PLT_learning_01,B,2014_Mrz_07_1053,P18,
stim_fb/ques.jpg,stim_fb/negf.jpg,stim_fb/posf.jpg,stim_01/d.jpg,stim_01/c.jpg,1,2,f,4,52,292,22,f,1,0.666501454495,01,02,60.030010695,PLT_learning_01,B,2014_Mrz_07_1053,P18,
stim_fb/ques.jpg,stim_fb/negf.jpg,stim_fb/posf.jpg,stim_01/b.jpg,stim_01/a.jpg,1,1,f,4,53,293,1,f,1,0.89973845107,01,02,60.030010695,PLT_learning_01,B,2014_Mrz_07_1053,P18,
stim_fb/ques.jpg,stim_fb/negf.jpg,stim_fb/posf.jpg,stim_01/d.jpg,stim_01/c.jpg,1,2,f,4,54,294,23,f,1,1.44956878832,01,02,60.030010695,PLT_learning_01,B,2014_Mrz_07_1053,P18,
stim_fb/ques.jpg,stim_fb/negf.jpg,stim_fb/posf.jpg,stim_01/e.jpg,stim_01/f.jpg,2,3,j,4,55,295,55,j,1,0.733130306049,01,02,60.030010695,PLT_learning_01,B,2014_Mrz_07_1053,P18,
stim_fb/ques.jpg,stim_fb/negf.jpg,stim_fb/posf.jpg,stim_01/b.jpg,stim_01/a.jpg,1,1,f,4,56,296,2,f,1,0.933082099074,01,02,60.030010695,PLT_learning_01,B,2014_Mrz_07_1053,P18,
stim_fb/ques.jpg,stim_fb/negf.jpg,stim_fb/posf.jpg,stim_01/b.jpg,stim_01/a.jpg,1,1,f,4,57,297,3,f,1,0.966382905456,01,02,60.030010695,PLT_learning_01,B,2014_Mrz_07_1053,P18,
stim_fb/ques.jpg,stim_fb/negf.jpg,stim_fb/posf.jpg,stim_01/c.jpg,stim_01/d.jpg,2,2,j,4,58,298,33,j,1,1.18298135585,01,02,60.030010695,PLT_learning_01,B,2014_Mrz_07_1053,P18,
stim_fb/ques.jpg,stim_fb/negf.jpg,stim_fb/posf.jpg,stim_01/b.jpg,stim_01/a.jpg,1,1,f,4,59,299,0,f,1,0.749774620587,01,02,60.030010695,PLT_learning_01,B,2014_Mrz_07_1053,P18,
stim_fb/ques.jpg,stim_fb/posf.jpg,stim_fb/negf.jpg,stim_01/e.jpg,stim_01/f.jpg,2,3,j,5,0,300,59,j,1,0.783125119641,01,02,60.030010695,PLT_learning_01,B,2014_Mrz_07_1053,P18,
stim_fb/ques.jpg,stim_fb/posf.jpg,stim_fb/negf.jpg,stim_01/c.jpg,stim_01/d.jpg,2,2,j,5,1,301,37,j,1,0.816439853686,01,02,60.030010695,PLT_learning_01,B,2014_Mrz_07_1053,P18,
stim_fb/ques.jpg,stim_fb/negf.jpg,stim_fb/posf.jpg,stim_01/e.jpg,stim_01/f.jpg,2,3,j,5,2,302,52,j,1,0.616511088972,01,02,60.030010695,PLT_learning_01,B,2014_Mrz_07_1053,P18,
stim_fb/ques.jpg,stim_fb/negf.jpg,stim_fb/posf.jpg,stim_01/f.jpg,stim_01/e.jpg,1,3,f,5,3,303,41,f,1,0.649865597004,01,02,60.030010695,PLT_learning_01,B,2014_Mrz_07_1053,P18,
stim_fb/ques.jpg,stim_fb/negf.jpg,stim_fb/posf.jpg,stim_01/e.jpg,stim_01/f.jpg,2,3,j,5,4,304,54,j,1,0.949968071037,01,02,60.030010695,PLT_learning_01,B,2014_Mrz_07_1053,P18,
stim_fb/ques.jpg,stim_fb/negf.jpg,stim_fb/posf.jpg,stim_01/d.jpg,stim_01/c.jpg,1,2,f,5,5,305,25,f,1,0.599867090221,01,02,60.030010695,PLT_learning_01,B,2014_Mrz_07_1053,P18,
stim_fb/ques.jpg,stim_fb/negf.jpg,stim_fb/posf.jpg,stim_01/c.jpg,stim_01/d.jpg,2,2,j,5,6,306,30,j,1,0.816502586813,01,02,60.030010695,PLT_learning_01,B,2014_Mrz_07_1053,P18,
stim_fb/ques.jpg,stim_fb/posf.jpg,stim_fb/negf.jpg,stim_01/f.jpg,stim_01/e.jpg,1,3,f,5,7,307,49,f,1,0.666502227419,01,02,60.030010695,PLT_learning_01,B,2014_Mrz_07_1053,P18,
stim_fb/ques.jpg,stim_fb/posf.jpg,stim_fb/negf.jpg,stim_01/f.jpg,stim_01/e.jpg,1,3,f,5,8,308,47,f,1,0.716523705372,01,02,60.030010695,PLT_learning_01,B,2014_Mrz_07_1053,P18,
stim_fb/ques.jpg,stim_fb/negf.jpg,stim_fb/posf.jpg,stim_01/a.jpg,stim_01/b.jpg,2,1,j,5,9,309,12,j,1,0.549825916249,01,02,60.030010695,PLT_learning_01,B,2014_Mrz_07_1053,P18,
stim_fb/ques.jpg,stim_fb/negf.jpg,stim_fb/posf.jpg,stim_01/d.jpg,stim_01/c.jpg,1,2,f,5,10,310,24,f,1,0.733129091025,01,02,60.030010695,PLT_learning_01,B,2014_Mrz_07_1053,P18,
stim_fb/ques.jpg,stim_fb/negf.jpg,stim_fb/posf.jpg,stim_01/c.jpg,stim_01/d.jpg,2,2,j,5,11,311,36,j,1,0.816521503893,01,02,60.030010695,PLT_learning_01,B,2014_Mrz_07_1053,P18,
stim_fb/ques.jpg,stim_fb/posf.jpg,stim_fb/negf.jpg,stim_01/a.jpg,stim_01/b.jpg,2,1,j,5,12,312,18,j,1,1.11635934632,01,02,60.030010695,PLT_learning_01,B,2014_Mrz_07_1053,P18,
stim_fb/ques.jpg,stim_fb/posf.jpg,stim_fb/negf.jpg,stim_01/e.jpg,stim_01/f.jpg,2,3,j,5,13,313,56,j,1,0.783098100397,01,02,60.030010695,PLT_learning_01,B,2014_Mrz_07_1053,P18,
stim_fb/ques.jpg,stim_fb/negf.jpg,stim_fb/posf.jpg,stim_01/a.jpg,stim_01/b.jpg,2,1,j,5,14,314,15,j,1,0.649804193185,01,02,60.030010695,PLT_learning_01,B,2014_Mrz_07_1053,P18,
stim_fb/ques.jpg,stim_fb/negf.jpg,stim_fb/posf.jpg,stim_01/e.jpg,stim_01/f.jpg,2,3,j,5,15,315,51,j,1,0.766464008301,01,02,60.030010695,PLT_learning_01,B,2014_Mrz_07_1053,P18,
stim_fb/ques.jpg,stim_fb/negf.jpg,stim_fb/posf.jpg,stim_01/d.jpg,stim_01/c.jpg,1,2,f,5,16,316,22,f,1,0.999720697886,01,02,60.030010695,PLT_learning_01,B,2014_Mrz_07_1053,P18,
stim_fb/ques.jpg,stim_fb/negf.jpg,stim_fb/posf.jpg,stim_01/b.jpg,stim_01/a.jpg,1,1,f,5,17,317,7,f,1,1.16633712251,01,02,60.030010695,PLT_learning_01,B,2014_Mrz_07_1053,P18,
stim_fb/ques.jpg,stim_fb/negf.jpg,stim_fb/posf.jpg,stim_01/b.jpg,stim_01/a.jpg,1,1,f,5,18,318,1,f,1,1.13303683643,01,02,60.030010695,PLT_learning_01,B,2014_Mrz_07_1053,P18,
stim_fb/ques.jpg,stim_fb/negf.jpg,stim_fb/posf.jpg,stim_01/c.jpg,stim_01/d.jpg,2,2,j,5,19,319,31,j,1,0.716471203708,01,02,60.030010695,PLT_learning_01,B,2014_Mrz_07_1053,P18,
stim_fb/ques.jpg,stim_fb/posf.jpg,stim_fb/negf.jpg,stim_01/d.jpg,stim_01/c.jpg,1,2,f,5,20,320,28,f,1,0.699829935752,01,02,60.030010695,PLT_learning_01,B,2014_Mrz_07_1053,P18,
stim_fb/ques.jpg,stim_fb/negf.jpg,stim_fb/posf.jpg,stim_01/b.jpg,stim_01/a.jpg,1,1,f,5,21,321,4,f,1,0.799752402792,01,02,60.030010695,PLT_learning_01,B,2014_Mrz_07_1053,P18,
stim_fb/ques.jpg,stim_fb/negf.jpg,stim_fb/posf.jpg,stim_01/a.jpg,stim_01/b.jpg,2,1,j,5,22,322,11,j,1,0.516558526032,01,02,60.030010695,PLT_learning_01,B,2014_Mrz_07_1053,P18,
stim_fb/ques.jpg,stim_fb/negf.jpg,stim_fb/posf.jpg,stim_01/e.jpg,stim_01/f.jpg,2,3,j,5,23,323,55,f,0,0.716436662744,01,02,60.030010695,PLT_learning_01,B,2014_Mrz_07_1053,P18,
stim_fb/ques.jpg,stim_fb/negf.jpg,stim_fb/posf.jpg,stim_01/c.jpg,stim_01/d.jpg,2,2,j,5,24,324,35,j,1,0.933052036256,01,02,60.030010695,PLT_learning_01,B,2014_Mrz_07_1053,P18,
stim_fb/ques.jpg,stim_fb/negf.jpg,stim_fb/posf.jpg,stim_01/f.jpg,stim_01/e.jpg,1,3,f,5,25,325,40,f,1,0.683126331658,01,02,60.030010695,PLT_learning_01,B,2014_Mrz_07_1053,P18,
stim_fb/ques.jpg,stim_fb/negf.jpg,stim_fb/posf.jpg,stim_01/e.jpg,stim_01/f.jpg,2,3,j,5,26,326,50,j,1,0.866426910975,01,02,60.030010695,PLT_learning_01,B,2014_Mrz_07_1053,P18,
stim_fb/ques.jpg,stim_fb/negf.jpg,stim_fb/posf.jpg,stim_01/b.jpg,stim_01/a.jpg,1,1,f,5,27,327,0,f,1,0.799783223497,01,02,60.030010695,PLT_learning_01,B,2014_Mrz_07_1053,P18,
stim_fb/ques.jpg,stim_fb/negf.jpg,stim_fb/posf.jpg,stim_01/a.jpg,stim_01/b.jpg,2,1,j,5,28,328,10,j,1,0.683158024533,01,02,60.030010695,PLT_learning_01,B,2014_Mrz_07_1053,P18,
stim_fb/ques.jpg,stim_fb/negf.jpg,stim_fb/posf.jpg,stim_01/d.jpg,stim_01/c.jpg,1,2,f,5,29,329,20,f,1,0.899742625459,01,02,60.030010695,PLT_learning_01,B,2014_Mrz_07_1053,P18,
stim_fb/ques.jpg,stim_fb/negf.jpg,stim_fb/posf.jpg,stim_01/f.jpg,stim_01/e.jpg,1,3,f,5,30,330,45,f,1,0.716481561486,01,02,60.030010695,PLT_learning_01,B,2014_Mrz_07_1053,P18,
stim_fb/ques.jpg,stim_fb/posf.jpg,stim_fb/negf.jpg,stim_01/f.jpg,stim_01/e.jpg,1,3,f,5,31,331,46,f,1,0.566541911182,01,02,60.030010695,PLT_learning_01,B,2014_Mrz_07_1053,P18,
stim_fb/ques.jpg,stim_fb/negf.jpg,stim_fb/posf.jpg,stim_01/e.jpg,stim_01/f.jpg,2,3,j,5,32,332,53,j,1,0.633171749191,01,02,60.030010695,PLT_learning_01,B,2014_Mrz_07_1053,P18,
stim_fb/ques.jpg,stim_fb/negf.jpg,stim_fb/posf.jpg,stim_01/b.jpg,stim_01/a.jpg,1,1,f,5,33,333,6,f,1,0.666490513265,01,02,60.030010695,PLT_learning_01,B,2014_Mrz_07_1053,P18,
stim_fb/ques.jpg,stim_fb/posf.jpg,stim_fb/negf.jpg,stim_01/d.jpg,stim_01/c.jpg,1,2,f,5,34,334,27,f,1,0.883086720075,01,02,60.030010695,PLT_learning_01,B,2014_Mrz_07_1053,P18,
stim_fb/ques.jpg,stim_fb/posf.jpg,stim_fb/negf.jpg,stim_01/a.jpg,stim_01/b.jpg,2,1,j,5,35,335,19,j,1,0.59981362917,01,02,60.030010695,PLT_learning_01,B,2014_Mrz_07_1053,P18,
stim_fb/ques.jpg,stim_fb/negf.jpg,stim_fb/posf.jpg,stim_01/c.jpg,stim_01/d.jpg,2,2,j,5,36,336,34,j,1,0.899758138066,01,02,60.030010695,PLT_learning_01,B,2014_Mrz_07_1053,P18,
stim_fb/ques.jpg,stim_fb/posf.jpg,stim_fb/negf.jpg,stim_01/c.jpg,stim_01/d.jpg,2,2,j,5,37,337,39,j,1,1.11632272719,01,02,60.030010695,PLT_learning_01,B,2014_Mrz_07_1053,P18,
stim_fb/ques.jpg,stim_fb/negf.jpg,stim_fb/posf.jpg,stim_01/a.jpg,stim_01/b.jpg,2,1,j,5,38,338,16,j,1,0.683157044094,01,02,60.030010695,PLT_learning_01,B,2014_Mrz_07_1053,P18,
stim_fb/ques.jpg,stim_fb/negf.jpg,stim_fb/posf.jpg,stim_01/f.jpg,stim_01/e.jpg,1,3,f,5,39,339,42,f,1,0.666431142506,01,02,60.030010695,PLT_learning_01,B,2014_Mrz_07_1053,P18,
stim_fb/ques.jpg,stim_fb/negf.jpg,stim_fb/posf.jpg,stim_01/c.jpg,stim_01/d.jpg,2,2,j,5,40,340,32,j,1,0.683179347601,01,02,60.030010695,PLT_learning_01,B,2014_Mrz_07_1053,P18,
stim_fb/ques.jpg,stim_fb/negf.jpg,stim_fb/posf.jpg,stim_01/c.jpg,stim_01/d.jpg,2,2,j,5,41,341,33,j,1,0.683263656425,01,02,60.030010695,PLT_learning_01,B,2014_Mrz_07_1053,P18,
stim_fb/ques.jpg,stim_fb/negf.jpg,stim_fb/posf.jpg,stim_01/f.jpg,stim_01/e.jpg,1,3,f,5,42,342,43,f,1,0.633152134375,01,02,60.030010695,PLT_learning_01,B,2014_Mrz_07_1053,P18,
stim_fb/ques.jpg,stim_fb/posf.jpg,stim_fb/negf.jpg,stim_01/e.jpg,stim_01/f.jpg,2,3,j,5,43,343,57,j,1,0.466564909419,01,02,60.030010695,PLT_learning_01,B,2014_Mrz_07_1053,P18,
stim_fb/ques.jpg,stim_fb/negf.jpg,stim_fb/posf.jpg,stim_01/a.jpg,stim_01/b.jpg,2,1,j,5,44,344,17,j,1,0.599762132006,01,02,60.030010695,PLT_learning_01,B,2014_Mrz_07_1053,P18,
stim_fb/ques.jpg,stim_fb/negf.jpg,stim_fb/posf.jpg,stim_01/d.jpg,stim_01/c.jpg,1,2,f,5,45,345,26,f,1,0.666510140111,01,02,60.030010695,PLT_learning_01,B,2014_Mrz_07_1053,P18,
stim_fb/ques.jpg,stim_fb/negf.jpg,stim_fb/posf.jpg,stim_01/a.jpg,stim_01/b.jpg,2,1,j,5,46,346,13,j,1,0.466583396428,01,02,60.030010695,PLT_learning_01,B,2014_Mrz_07_1053,P18,
stim_fb/ques.jpg,stim_fb/negf.jpg,stim_fb/posf.jpg,stim_01/d.jpg,stim_01/c.jpg,1,2,f,5,47,347,21,f,1,0.93306838795,01,02,60.030010695,PLT_learning_01,B,2014_Mrz_07_1053,P18,
stim_fb/ques.jpg,stim_fb/negf.jpg,stim_fb/posf.jpg,stim_01/d.jpg,stim_01/c.jpg,1,2,f,5,48,348,23,j,0,0.79978671218,01,02,60.030010695,PLT_learning_01,B,2014_Mrz_07_1053,P18,
stim_fb/ques.jpg,stim_fb/negf.jpg,stim_fb/posf.jpg,stim_01/a.jpg,stim_01/b.jpg,2,1,j,5,49,349,14,j,1,0.549867912768,01,02,60.030010695,PLT_learning_01,B,2014_Mrz_07_1053,P18,
stim_fb/ques.jpg,stim_fb/negf.jpg,stim_fb/posf.jpg,stim_01/b.jpg,stim_01/a.jpg,1,1,f,5,50,350,2,j,0,0.566530064699,01,02,60.030010695,PLT_learning_01,B,2014_Mrz_07_1053,P18,
stim_fb/ques.jpg,stim_fb/posf.jpg,stim_fb/negf.jpg,stim_01/c.jpg,stim_01/d.jpg,2,2,j,5,51,351,38,j,1,0.966396219591,01,02,60.030010695,PLT_learning_01,B,2014_Mrz_07_1053,P18,
stim_fb/ques.jpg,stim_fb/posf.jpg,stim_fb/negf.jpg,stim_01/b.jpg,stim_01/a.jpg,1,1,f,5,52,352,9,f,1,0.683162980868,01,02,60.030010695,PLT_learning_01,B,2014_Mrz_07_1053,P18,
stim_fb/ques.jpg,stim_fb/negf.jpg,stim_fb/posf.jpg,stim_01/b.jpg,stim_01/a.jpg,1,1,f,5,53,353,3,f,1,0.699798946629,01,02,60.030010695,PLT_learning_01,B,2014_Mrz_07_1053,P18,
stim_fb/ques.jpg,stim_fb/posf.jpg,stim_fb/negf.jpg,stim_01/d.jpg,stim_01/c.jpg,1,2,f,5,54,354,29,f,1,0.983046067901,01,02,60.030010695,PLT_learning_01,B,2014_Mrz_07_1053,P18,
stim_fb/ques.jpg,stim_fb/posf.jpg,stim_fb/negf.jpg,stim_01/e.jpg,stim_01/f.jpg,2,3,j,5,55,355,58,j,1,0.683149417112,01,02,60.030010695,PLT_learning_01,B,2014_Mrz_07_1053,P18,
stim_fb/ques.jpg,stim_fb/negf.jpg,stim_fb/posf.jpg,stim_01/b.jpg,stim_01/a.jpg,1,1,f,5,56,356,5,f,1,0.69982748766,01,02,60.030010695,PLT_learning_01,B,2014_Mrz_07_1053,P18,
stim_fb/ques.jpg,stim_fb/posf.jpg,stim_fb/negf.jpg,stim_01/b.jpg,stim_01/a.jpg,1,1,f,5,57,357,8,f,1,0.666513592704,01,02,60.030010695,PLT_learning_01,B,2014_Mrz_07_1053,P18,
stim_fb/ques.jpg,stim_fb/posf.jpg,stim_fb/negf.jpg,stim_01/f.jpg,stim_01/e.jpg,1,3,f,5,58,358,48,f,1,0.749717252813,01,02,60.030010695,PLT_learning_01,B,2014_Mrz_07_1053,P18,
stim_fb/ques.jpg,stim_fb/negf.jpg,stim_fb/posf.jpg,stim_01/f.jpg,stim_01/e.jpg,1,3,f,5,59,359,44,f,1,0.566521198633,01,02,60.030010695,PLT_learning_01,B,2014_Mrz_07_1053,P18,
