Fb3,Fb2,Fb1,Symbol2,Symbol1,PosCond,Pair,Correct,trials.thisRepN,trials.thisTrialN,trials.thisN,trials.thisIndex,Response.keys,Response.corr,Response.rt,Version,Session Number,frameRate,expName,StimCondition,date,Participant,
stim_fb/ques.jpg,stim_fb/negf.jpg,stim_fb/posf.jpg,stim_01/e.jpg,stim_01/f.jpg,2,3,j,0,0,0,55,None,0,,01,03,60.0214814911,PLT_learning_01,B,2014_Mrz_14_1325,P19,
stim_fb/ques.jpg,stim_fb/negf.jpg,stim_fb/posf.jpg,stim_01/e.jpg,stim_01/f.jpg,2,3,j,0,1,1,50,f,0,1.53288039609,01,03,60.0214814911,PLT_learning_01,B,2014_Mrz_14_1325,P19,
stim_fb/ques.jpg,stim_fb/negf.jpg,stim_fb/posf.jpg,stim_01/b.jpg,stim_01/a.jpg,1,1,f,0,2,2,5,None,0,,01,03,60.0214814911,PLT_learning_01,B,2014_Mrz_14_1325,P19,
stim_fb/ques.jpg,stim_fb/posf.jpg,stim_fb/negf.jpg,stim_01/c.jpg,stim_01/d.jpg,2,2,j,0,3,3,38,j,1,1.3996136224,01,03,60.0214814911,PLT_learning_01,B,2014_Mrz_14_1325,P19,
stim_fb/ques.jpg,stim_fb/posf.jpg,stim_fb/negf.jpg,stim_01/d.jpg,stim_01/c.jpg,1,2,f,0,4,4,28,None,0,,01,03,60.0214814911,PLT_learning_01,B,2014_Mrz_14_1325,P19,
stim_fb/ques.jpg,stim_fb/posf.jpg,stim_fb/negf.jpg,stim_01/e.jpg,stim_01/f.jpg,2,3,j,0,5,5,58,f,0,1.11638943922,01,03,60.0214814911,PLT_learning_01,B,2014_Mrz_14_1325,P19,
stim_fb/ques.jpg,stim_fb/negf.jpg,stim_fb/posf.jpg,stim_01/f.jpg,stim_01/e.jpg,1,3,f,0,6,6,41,j,0,0.916418362199,01,03,60.0214814911,PLT_learning_01,B,2014_Mrz_14_1325,P19,
stim_fb/ques.jpg,stim_fb/posf.jpg,stim_fb/negf.jpg,stim_01/f.jpg,stim_01/e.jpg,1,3,f,0,7,7,47,f,1,0.633192302342,01,03,60.0214814911,PLT_learning_01,B,2014_Mrz_14_1325,P19,
stim_fb/ques.jpg,stim_fb/posf.jpg,stim_fb/negf.jpg,stim_01/f.jpg,stim_01/e.jpg,1,3,f,0,8,8,48,j,0,0.816438307839,01,03,60.0214814911,PLT_learning_01,B,2014_Mrz_14_1325,P19,
stim_fb/ques.jpg,stim_fb/negf.jpg,stim_fb/posf.jpg,stim_01/a.jpg,stim_01/b.jpg,2,1,j,0,9,9,16,f,0,0.766470324019,01,03,60.0214814911,PLT_learning_01,B,2014_Mrz_14_1325,P19,
stim_fb/ques.jpg,stim_fb/negf.jpg,stim_fb/posf.jpg,stim_01/d.jpg,stim_01/c.jpg,1,2,f,0,10,10,23,j,0,0.84974823893,01,03,60.0214814911,PLT_learning_01,B,2014_Mrz_14_1325,P19,
stim_fb/ques.jpg,stim_fb/posf.jpg,stim_fb/negf.jpg,stim_01/c.jpg,stim_01/d.jpg,2,2,j,0,11,11,39,f,0,0.516553467442,01,03,60.0214814911,PLT_learning_01,B,2014_Mrz_14_1325,P19,
stim_fb/ques.jpg,stim_fb/negf.jpg,stim_fb/posf.jpg,stim_01/d.jpg,stim_01/c.jpg,1,2,f,0,12,12,26,f,1,0.949767880813,01,03,60.0214814911,PLT_learning_01,B,2014_Mrz_14_1325,P19,
stim_fb/ques.jpg,stim_fb/negf.jpg,stim_fb/posf.jpg,stim_01/e.jpg,stim_01/f.jpg,2,3,j,0,13,13,54,j,1,1.11613266617,01,03,60.0214814911,PLT_learning_01,B,2014_Mrz_14_1325,P19,
stim_fb/ques.jpg,stim_fb/negf.jpg,stim_fb/posf.jpg,stim_01/a.jpg,stim_01/b.jpg,2,1,j,0,14,14,13,j,1,0.899761488404,01,03,60.0214814911,PLT_learning_01,B,2014_Mrz_14_1325,P19,
stim_fb/ques.jpg,stim_fb/posf.jpg,stim_fb/negf.jpg,stim_01/e.jpg,stim_01/f.jpg,2,3,j,0,15,15,56,j,1,0.999743792363,01,03,60.0214814911,PLT_learning_01,B,2014_Mrz_14_1325,P19,
stim_fb/ques.jpg,stim_fb/negf.jpg,stim_fb/posf.jpg,stim_01/c.jpg,stim_01/d.jpg,2,2,j,0,16,16,32,j,1,1.21629097416,01,03,60.0214814911,PLT_learning_01,B,2014_Mrz_14_1325,P19,
stim_fb/ques.jpg,stim_fb/negf.jpg,stim_fb/posf.jpg,stim_01/c.jpg,stim_01/d.jpg,2,2,j,0,17,17,36,None,0,,01,03,60.0214814911,PLT_learning_01,B,2014_Mrz_14_1325,P19,
stim_fb/ques.jpg,stim_fb/posf.jpg,stim_fb/negf.jpg,stim_01/f.jpg,stim_01/e.jpg,1,3,f,0,18,18,46,j,0,1.43277289955,01,03,60.0214814911,PLT_learning_01,B,2014_Mrz_14_1325,P19,
stim_fb/ques.jpg,stim_fb/negf.jpg,stim_fb/posf.jpg,stim_01/d.jpg,stim_01/c.jpg,1,2,f,0,19,19,22,f,1,1.33295754108,01,03,60.0214814911,PLT_learning_01,B,2014_Mrz_14_1325,P19,
stim_fb/ques.jpg,stim_fb/negf.jpg,stim_fb/posf.jpg,stim_01/f.jpg,stim_01/e.jpg,1,3,f,0,20,20,43,j,0,0.949787552772,01,03,60.0214814911,PLT_learning_01,B,2014_Mrz_14_1325,P19,
stim_fb/ques.jpg,stim_fb/negf.jpg,stim_fb/posf.jpg,stim_01/d.jpg,stim_01/c.jpg,1,2,f,0,21,21,21,f,1,1.0163889099,01,03,60.0214814911,PLT_learning_01,B,2014_Mrz_14_1325,P19,
stim_fb/ques.jpg,stim_fb/negf.jpg,stim_fb/posf.jpg,stim_01/f.jpg,stim_01/e.jpg,1,3,f,0,22,22,40,j,0,0.799819920828,01,03,60.0214814911,PLT_learning_01,B,2014_Mrz_14_1325,P19,
stim_fb/ques.jpg,stim_fb/posf.jpg,stim_fb/negf.jpg,stim_01/e.jpg,stim_01/f.jpg,2,3,j,0,23,23,57,j,1,1.18299509404,01,03,60.0214814911,PLT_learning_01,B,2014_Mrz_14_1325,P19,
stim_fb/ques.jpg,stim_fb/negf.jpg,stim_fb/posf.jpg,stim_01/c.jpg,stim_01/d.jpg,2,2,j,0,24,24,30,j,1,1.48290134171,01,03,60.0214814911,PLT_learning_01,B,2014_Mrz_14_1325,P19,
stim_fb/ques.jpg,stim_fb/negf.jpg,stim_fb/posf.jpg,stim_01/d.jpg,stim_01/c.jpg,1,2,f,0,25,25,24,f,1,1.09968197652,01,03,60.0214814911,PLT_learning_01,B,2014_Mrz_14_1325,P19,
stim_fb/ques.jpg,stim_fb/posf.jpg,stim_fb/negf.jpg,stim_01/c.jpg,stim_01/d.jpg,2,2,j,0,26,26,37,j,1,0.933066039105,01,03,60.0214814911,PLT_learning_01,B,2014_Mrz_14_1325,P19,
stim_fb/ques.jpg,stim_fb/negf.jpg,stim_fb/posf.jpg,stim_01/e.jpg,stim_01/f.jpg,2,3,j,0,27,27,52,j,1,0.749799760153,01,03,60.0214814911,PLT_learning_01,B,2014_Mrz_14_1325,P19,
stim_fb/ques.jpg,stim_fb/negf.jpg,stim_fb/posf.jpg,stim_01/f.jpg,stim_01/e.jpg,1,3,f,0,28,28,42,f,1,1.06635547419,01,03,60.0214814911,PLT_learning_01,B,2014_Mrz_14_1325,P19,
stim_fb/ques.jpg,stim_fb/negf.jpg,stim_fb/posf.jpg,stim_01/b.jpg,stim_01/a.jpg,1,1,f,0,29,29,7,f,1,0.849736227035,01,03,60.0214814911,PLT_learning_01,B,2014_Mrz_14_1325,P19,
stim_fb/ques.jpg,stim_fb/posf.jpg,stim_fb/negf.jpg,stim_01/b.jpg,stim_01/a.jpg,1,1,f,0,30,30,9,f,1,0.73311222505,01,03,60.0214814911,PLT_learning_01,B,2014_Mrz_14_1325,P19,
stim_fb/ques.jpg,stim_fb/posf.jpg,stim_fb/negf.jpg,stim_01/a.jpg,stim_01/b.jpg,2,1,j,0,31,31,18,j,1,0.749794767728,01,03,60.0214814911,PLT_learning_01,B,2014_Mrz_14_1325,P19,
stim_fb/ques.jpg,stim_fb/negf.jpg,stim_fb/posf.jpg,stim_01/e.jpg,stim_01/f.jpg,2,3,j,0,32,32,53,j,1,0.799796943644,01,03,60.0214814911,PLT_learning_01,B,2014_Mrz_14_1325,P19,
stim_fb/ques.jpg,stim_fb/negf.jpg,stim_fb/posf.jpg,stim_01/c.jpg,stim_01/d.jpg,2,2,j,0,33,33,33,f,0,0.866451082131,01,03,60.0214814911,PLT_learning_01,B,2014_Mrz_14_1325,P19,
stim_fb/ques.jpg,stim_fb/negf.jpg,stim_fb/posf.jpg,stim_01/b.jpg,stim_01/a.jpg,1,1,f,0,34,34,3,j,0,1.166331694,01,03,60.0214814911,PLT_learning_01,B,2014_Mrz_14_1325,P19,
stim_fb/ques.jpg,stim_fb/negf.jpg,stim_fb/posf.jpg,stim_01/c.jpg,stim_01/d.jpg,2,2,j,0,35,35,34,f,0,1.23296942666,01,03,60.0214814911,PLT_learning_01,B,2014_Mrz_14_1325,P19,
stim_fb/ques.jpg,stim_fb/posf.jpg,stim_fb/negf.jpg,stim_01/d.jpg,stim_01/c.jpg,1,2,f,0,36,36,29,j,0,0.866406111209,01,03,60.0214814911,PLT_learning_01,B,2014_Mrz_14_1325,P19,
stim_fb/ques.jpg,stim_fb/posf.jpg,stim_fb/negf.jpg,stim_01/a.jpg,stim_01/b.jpg,2,1,j,0,37,37,19,j,1,0.7498044398,01,03,60.0214814911,PLT_learning_01,B,2014_Mrz_14_1325,P19,
stim_fb/ques.jpg,stim_fb/negf.jpg,stim_fb/posf.jpg,stim_01/f.jpg,stim_01/e.jpg,1,3,f,0,38,38,44,f,1,0.866355886212,01,03,60.0214814911,PLT_learning_01,B,2014_Mrz_14_1325,P19,
stim_fb/ques.jpg,stim_fb/negf.jpg,stim_fb/posf.jpg,stim_01/c.jpg,stim_01/d.jpg,2,2,j,0,39,39,31,f,0,0.699824844081,01,03,60.0214814911,PLT_learning_01,B,2014_Mrz_14_1325,P19,
stim_fb/ques.jpg,stim_fb/negf.jpg,stim_fb/posf.jpg,stim_01/c.jpg,stim_01/d.jpg,2,2,j,0,40,40,35,j,1,0.716422921546,01,03,60.0214814911,PLT_learning_01,B,2014_Mrz_14_1325,P19,
stim_fb/ques.jpg,stim_fb/negf.jpg,stim_fb/posf.jpg,stim_01/b.jpg,stim_01/a.jpg,1,1,f,0,41,41,6,f,1,0.799796384251,01,03,60.0214814911,PLT_learning_01,B,2014_Mrz_14_1325,P19,
stim_fb/ques.jpg,stim_fb/negf.jpg,stim_fb/posf.jpg,stim_01/a.jpg,stim_01/b.jpg,2,1,j,0,42,42,10,j,1,0.699809875829,01,03,60.0214814911,PLT_learning_01,B,2014_Mrz_14_1325,P19,
stim_fb/ques.jpg,stim_fb/negf.jpg,stim_fb/posf.jpg,stim_01/d.jpg,stim_01/c.jpg,1,2,f,0,43,43,25,f,1,0.899682003586,01,03,60.0214814911,PLT_learning_01,B,2014_Mrz_14_1325,P19,
stim_fb/ques.jpg,stim_fb/negf.jpg,stim_fb/posf.jpg,stim_01/b.jpg,stim_01/a.jpg,1,1,f,0,44,44,2,f,1,0.849766371056,01,03,60.0214814911,PLT_learning_01,B,2014_Mrz_14_1325,P19,
stim_fb/ques.jpg,stim_fb/posf.jpg,stim_fb/negf.jpg,stim_01/f.jpg,stim_01/e.jpg,1,3,f,0,45,45,49,f,1,0.98302291929,01,03,60.0214814911,PLT_learning_01,B,2014_Mrz_14_1325,P19,
stim_fb/ques.jpg,stim_fb/posf.jpg,stim_fb/negf.jpg,stim_01/d.jpg,stim_01/c.jpg,1,2,f,0,46,46,27,f,1,0.816433249249,01,03,60.0214814911,PLT_learning_01,B,2014_Mrz_14_1325,P19,
stim_fb/ques.jpg,stim_fb/negf.jpg,stim_fb/posf.jpg,stim_01/b.jpg,stim_01/a.jpg,1,1,f,0,47,47,0,j,0,1.03301038259,01,03,60.0214814911,PLT_learning_01,B,2014_Mrz_14_1325,P19,
stim_fb/ques.jpg,stim_fb/posf.jpg,stim_fb/negf.jpg,stim_01/b.jpg,stim_01/a.jpg,1,1,f,0,48,48,8,f,1,0.616455829445,01,03,60.0214814911,PLT_learning_01,B,2014_Mrz_14_1325,P19,
stim_fb/ques.jpg,stim_fb/negf.jpg,stim_fb/posf.jpg,stim_01/a.jpg,stim_01/b.jpg,2,1,j,0,49,49,14,j,1,0.733104432657,01,03,60.0214814911,PLT_learning_01,B,2014_Mrz_14_1325,P19,
stim_fb/ques.jpg,stim_fb/negf.jpg,stim_fb/posf.jpg,stim_01/b.jpg,stim_01/a.jpg,1,1,f,0,50,50,1,f,1,0.783141044274,01,03,60.0214814911,PLT_learning_01,B,2014_Mrz_14_1325,P19,
stim_fb/ques.jpg,stim_fb/negf.jpg,stim_fb/posf.jpg,stim_01/e.jpg,stim_01/f.jpg,2,3,j,0,51,51,51,j,1,0.93308242689,01,03,60.0214814911,PLT_learning_01,B,2014_Mrz_14_1325,P19,
stim_fb/ques.jpg,stim_fb/negf.jpg,stim_fb/posf.jpg,stim_01/a.jpg,stim_01/b.jpg,2,1,j,0,52,52,11,j,1,0.683086118578,01,03,60.0214814911,PLT_learning_01,B,2014_Mrz_14_1325,P19,
stim_fb/ques.jpg,stim_fb/posf.jpg,stim_fb/negf.jpg,stim_01/e.jpg,stim_01/f.jpg,2,3,j,0,53,53,59,j,1,0.866465689485,01,03,60.0214814911,PLT_learning_01,B,2014_Mrz_14_1325,P19,
stim_fb/ques.jpg,stim_fb/negf.jpg,stim_fb/posf.jpg,stim_01/f.jpg,stim_01/e.jpg,1,3,f,0,54,54,45,f,1,1.03306738345,01,03,60.0214814911,PLT_learning_01,B,2014_Mrz_14_1325,P19,
stim_fb/ques.jpg,stim_fb/negf.jpg,stim_fb/posf.jpg,stim_01/a.jpg,stim_01/b.jpg,2,1,j,0,55,55,15,j,1,0.599754062924,01,03,60.0214814911,PLT_learning_01,B,2014_Mrz_14_1325,P19,
stim_fb/ques.jpg,stim_fb/negf.jpg,stim_fb/posf.jpg,stim_01/b.jpg,stim_01/a.jpg,1,1,f,0,56,56,4,f,1,0.949752133622,01,03,60.0214814911,PLT_learning_01,B,2014_Mrz_14_1325,P19,
stim_fb/ques.jpg,stim_fb/negf.jpg,stim_fb/posf.jpg,stim_01/a.jpg,stim_01/b.jpg,2,1,j,0,57,57,12,j,1,0.766483313346,01,03,60.0214814911,PLT_learning_01,B,2014_Mrz_14_1325,P19,
stim_fb/ques.jpg,stim_fb/negf.jpg,stim_fb/posf.jpg,stim_01/d.jpg,stim_01/c.jpg,1,2,f,0,58,58,20,f,1,0.766458955726,01,03,60.0214814911,PLT_learning_01,B,2014_Mrz_14_1325,P19,
stim_fb/ques.jpg,stim_fb/negf.jpg,stim_fb/posf.jpg,stim_01/a.jpg,stim_01/b.jpg,2,1,j,0,59,59,17,j,1,0.616556150119,01,03,60.0214814911,PLT_learning_01,B,2014_Mrz_14_1325,P19,
stim_fb/ques.jpg,stim_fb/negf.jpg,stim_fb/posf.jpg,stim_01/b.jpg,stim_01/a.jpg,1,1,f,1,0,60,5,f,1,0.816532207532,01,03,60.0214814911,PLT_learning_01,B,2014_Mrz_14_1325,P19,
stim_fb/ques.jpg,stim_fb/negf.jpg,stim_fb/posf.jpg,stim_01/d.jpg,stim_01/c.jpg,1,2,f,1,1,61,23,f,1,0.699781470134,01,03,60.0214814911,PLT_learning_01,B,2014_Mrz_14_1325,P19,
stim_fb/ques.jpg,stim_fb/negf.jpg,stim_fb/posf.jpg,stim_01/e.jpg,stim_01/f.jpg,2,3,j,1,2,62,52,j,1,0.766455178325,01,03,60.0214814911,PLT_learning_01,B,2014_Mrz_14_1325,P19,
stim_fb/ques.jpg,stim_fb/posf.jpg,stim_fb/negf.jpg,stim_01/c.jpg,stim_01/d.jpg,2,2,j,1,3,63,38,f,0,0.649845341594,01,03,60.0214814911,PLT_learning_01,B,2014_Mrz_14_1325,P19,
stim_fb/ques.jpg,stim_fb/posf.jpg,stim_fb/negf.jpg,stim_01/d.jpg,stim_01/c.jpg,1,2,f,1,4,64,27,j,0,0.89972754593,01,03,60.0214814911,PLT_learning_01,B,2014_Mrz_14_1325,P19,
stim_fb/ques.jpg,stim_fb/negf.jpg,stim_fb/posf.jpg,stim_01/e.jpg,stim_01/f.jpg,2,3,j,1,5,65,51,f,0,0.966347113379,01,03,60.0214814911,PLT_learning_01,B,2014_Mrz_14_1325,P19,
stim_fb/ques.jpg,stim_fb/posf.jpg,stim_fb/negf.jpg,stim_01/f.jpg,stim_01/e.jpg,1,3,f,1,6,66,48,f,1,0.899709825829,01,03,60.0214814911,PLT_learning_01,B,2014_Mrz_14_1325,P19,
stim_fb/ques.jpg,stim_fb/posf.jpg,stim_fb/negf.jpg,stim_01/c.jpg,stim_01/d.jpg,2,2,j,1,7,67,37,f,0,1.11636906952,01,03,60.0214814911,PLT_learning_01,B,2014_Mrz_14_1325,P19,
stim_fb/ques.jpg,stim_fb/negf.jpg,stim_fb/posf.jpg,stim_01/f.jpg,stim_01/e.jpg,1,3,f,1,8,68,44,f,1,0.783131621824,01,03,60.0214814911,PLT_learning_01,B,2014_Mrz_14_1325,P19,
stim_fb/ques.jpg,stim_fb/posf.jpg,stim_fb/negf.jpg,stim_01/f.jpg,stim_01/e.jpg,1,3,f,1,9,69,47,f,1,0.566530594016,01,03,60.0214814911,PLT_learning_01,B,2014_Mrz_14_1325,P19,
stim_fb/ques.jpg,stim_fb/negf.jpg,stim_fb/posf.jpg,stim_01/d.jpg,stim_01/c.jpg,1,2,f,1,10,70,24,f,1,1.29963619358,01,03,60.0214814911,PLT_learning_01,B,2014_Mrz_14_1325,P19,
stim_fb/ques.jpg,stim_fb/negf.jpg,stim_fb/posf.jpg,stim_01/b.jpg,stim_01/a.jpg,1,1,f,1,11,71,7,f,1,0.733145836701,01,03,60.0214814911,PLT_learning_01,B,2014_Mrz_14_1325,P19,
stim_fb/ques.jpg,stim_fb/negf.jpg,stim_fb/posf.jpg,stim_01/b.jpg,stim_01/a.jpg,1,1,f,1,12,72,1,f,1,0.633177701003,01,03,60.0214814911,PLT_learning_01,B,2014_Mrz_14_1325,P19,
stim_fb/ques.jpg,stim_fb/negf.jpg,stim_fb/posf.jpg,stim_01/c.jpg,stim_01/d.jpg,2,2,j,1,13,73,35,f,0,1.04969255835,01,03,60.0214814911,PLT_learning_01,B,2014_Mrz_14_1325,P19,
stim_fb/ques.jpg,stim_fb/negf.jpg,stim_fb/posf.jpg,stim_01/a.jpg,stim_01/b.jpg,2,1,j,1,14,74,13,j,1,0.683168141713,01,03,60.0214814911,PLT_learning_01,B,2014_Mrz_14_1325,P19,
stim_fb/ques.jpg,stim_fb/negf.jpg,stim_fb/posf.jpg,stim_01/a.jpg,stim_01/b.jpg,2,1,j,1,15,75,14,j,1,0.59983786649,01,03,60.0214814911,PLT_learning_01,B,2014_Mrz_14_1325,P19,
stim_fb/ques.jpg,stim_fb/posf.jpg,stim_fb/negf.jpg,stim_01/b.jpg,stim_01/a.jpg,1,1,f,1,16,76,8,f,1,0.566537475141,01,03,60.0214814911,PLT_learning_01,B,2014_Mrz_14_1325,P19,
stim_fb/ques.jpg,stim_fb/negf.jpg,stim_fb/posf.jpg,stim_01/d.jpg,stim_01/c.jpg,1,2,f,1,17,77,21,f,1,0.816467176686,01,03,60.0214814911,PLT_learning_01,B,2014_Mrz_14_1325,P19,
stim_fb/ques.jpg,stim_fb/negf.jpg,stim_fb/posf.jpg,stim_01/a.jpg,stim_01/b.jpg,2,1,j,1,18,78,15,j,1,1.59946888118,01,03,60.0214814911,PLT_learning_01,B,2014_Mrz_14_1325,P19,
stim_fb/ques.jpg,stim_fb/negf.jpg,stim_fb/posf.jpg,stim_01/e.jpg,stim_01/f.jpg,2,3,j,1,19,79,50,j,1,0.799587700891,01,03,60.0214814911,PLT_learning_01,B,2014_Mrz_14_1325,P19,
stim_fb/ques.jpg,stim_fb/negf.jpg,stim_fb/posf.jpg,stim_01/d.jpg,stim_01/c.jpg,1,2,f,1,20,80,25,f,1,0.7331401706,01,03,60.0214814911,PLT_learning_01,B,2014_Mrz_14_1325,P19,
stim_fb/ques.jpg,stim_fb/negf.jpg,stim_fb/posf.jpg,stim_01/c.jpg,stim_01/d.jpg,2,2,j,1,21,81,33,f,0,0.84981474645,01,03,60.0214814911,PLT_learning_01,B,2014_Mrz_14_1325,P19,
stim_fb/ques.jpg,stim_fb/negf.jpg,stim_fb/posf.jpg,stim_01/c.jpg,stim_01/d.jpg,2,2,j,1,22,82,32,j,1,0.633151214084,01,03,60.0214814911,PLT_learning_01,B,2014_Mrz_14_1325,P19,
stim_fb/ques.jpg,stim_fb/negf.jpg,stim_fb/posf.jpg,stim_01/b.jpg,stim_01/a.jpg,1,1,f,1,23,83,4,f,1,0.61650058082,01,03,60.0214814911,PLT_learning_01,B,2014_Mrz_14_1325,P19,
stim_fb/ques.jpg,stim_fb/negf.jpg,stim_fb/posf.jpg,stim_01/c.jpg,stim_01/d.jpg,2,2,j,1,24,84,34,f,0,0.683149934399,01,03,60.0214814911,PLT_learning_01,B,2014_Mrz_14_1325,P19,
stim_fb/ques.jpg,stim_fb/negf.jpg,stim_fb/posf.jpg,stim_01/e.jpg,stim_01/f.jpg,2,3,j,1,25,85,53,j,1,0.66651634756,01,03,60.0214814911,PLT_learning_01,B,2014_Mrz_14_1325,P19,
stim_fb/ques.jpg,stim_fb/negf.jpg,stim_fb/posf.jpg,stim_01/e.jpg,stim_01/f.jpg,2,3,j,1,26,86,54,j,1,0.799784609948,01,03,60.0214814911,PLT_learning_01,B,2014_Mrz_14_1325,P19,
stim_fb/ques.jpg,stim_fb/negf.jpg,stim_fb/posf.jpg,stim_01/d.jpg,stim_01/c.jpg,1,2,f,1,27,87,22,f,1,0.816414311117,01,03,60.0214814911,PLT_learning_01,B,2014_Mrz_14_1325,P19,
stim_fb/ques.jpg,stim_fb/negf.jpg,stim_fb/posf.jpg,stim_01/f.jpg,stim_01/e.jpg,1,3,f,1,28,88,45,f,1,0.766353976459,01,03,60.0214814911,PLT_learning_01,B,2014_Mrz_14_1325,P19,
stim_fb/ques.jpg,stim_fb/negf.jpg,stim_fb/posf.jpg,stim_01/c.jpg,stim_01/d.jpg,2,2,j,1,29,89,30,f,0,0.716478695353,01,03,60.0214814911,PLT_learning_01,B,2014_Mrz_14_1325,P19,
stim_fb/ques.jpg,stim_fb/posf.jpg,stim_fb/negf.jpg,stim_01/d.jpg,stim_01/c.jpg,1,2,f,1,30,90,28,f,1,0.866443626576,01,03,60.0214814911,PLT_learning_01,B,2014_Mrz_14_1325,P19,
stim_fb/ques.jpg,stim_fb/posf.jpg,stim_fb/negf.jpg,stim_01/b.jpg,stim_01/a.jpg,1,1,f,1,31,91,9,f,1,0.716444193486,01,03,60.0214814911,PLT_learning_01,B,2014_Mrz_14_1325,P19,
stim_fb/ques.jpg,stim_fb/posf.jpg,stim_fb/negf.jpg,stim_01/e.jpg,stim_01/f.jpg,2,3,j,1,32,92,58,j,1,0.816442211554,01,03,60.0214814911,PLT_learning_01,B,2014_Mrz_14_1325,P19,
stim_fb/ques.jpg,stim_fb/negf.jpg,stim_fb/posf.jpg,stim_01/d.jpg,stim_01/c.jpg,1,2,f,1,33,93,26,f,1,0.84977998594,01,03,60.0214814911,PLT_learning_01,B,2014_Mrz_14_1325,P19,
stim_fb/ques.jpg,stim_fb/posf.jpg,stim_fb/negf.jpg,stim_01/e.jpg,stim_01/f.jpg,2,3,j,1,34,94,59,j,1,0.799747284053,01,03,60.0214814911,PLT_learning_01,B,2014_Mrz_14_1325,P19,
stim_fb/ques.jpg,stim_fb/negf.jpg,stim_fb/posf.jpg,stim_01/f.jpg,stim_01/e.jpg,1,3,f,1,35,95,43,f,1,0.666463536126,01,03,60.0214814911,PLT_learning_01,B,2014_Mrz_14_1325,P19,
stim_fb/ques.jpg,stim_fb/posf.jpg,stim_fb/negf.jpg,stim_01/d.jpg,stim_01/c.jpg,1,2,f,1,36,96,29,None,0,,01,03,60.0214814911,PLT_learning_01,B,2014_Mrz_14_1325,P19,
stim_fb/ques.jpg,stim_fb/posf.jpg,stim_fb/negf.jpg,stim_01/e.jpg,stim_01/f.jpg,2,3,j,1,37,97,57,j,1,0.916409598388,01,03,60.0214814911,PLT_learning_01,B,2014_Mrz_14_1325,P19,
stim_fb/ques.jpg,stim_fb/negf.jpg,stim_fb/posf.jpg,stim_01/f.jpg,stim_01/e.jpg,1,3,f,1,38,98,40,f,1,0.699773635636,01,03,60.0214814911,PLT_learning_01,B,2014_Mrz_14_1325,P19,
stim_fb/ques.jpg,stim_fb/negf.jpg,stim_fb/posf.jpg,stim_01/d.jpg,stim_01/c.jpg,1,2,f,1,39,99,20,f,1,0.949737848069,01,03,60.0214814911,PLT_learning_01,B,2014_Mrz_14_1325,P19,
stim_fb/ques.jpg,stim_fb/negf.jpg,stim_fb/posf.jpg,stim_01/b.jpg,stim_01/a.jpg,1,1,f,1,40,100,6,f,1,0.666493117747,01,03,60.0214814911,PLT_learning_01,B,2014_Mrz_14_1325,P19,
stim_fb/ques.jpg,stim_fb/negf.jpg,stim_fb/posf.jpg,stim_01/b.jpg,stim_01/a.jpg,1,1,f,1,41,101,0,f,1,0.649852854291,01,03,60.0214814911,PLT_learning_01,B,2014_Mrz_14_1325,P19,
stim_fb/ques.jpg,stim_fb/posf.jpg,stim_fb/negf.jpg,stim_01/a.jpg,stim_01/b.jpg,2,1,j,1,42,102,19,j,1,0.866472011218,01,03,60.0214814911,PLT_learning_01,B,2014_Mrz_14_1325,P19,
stim_fb/ques.jpg,stim_fb/negf.jpg,stim_fb/posf.jpg,stim_01/f.jpg,stim_01/e.jpg,1,3,f,1,43,103,41,f,1,0.766459193317,01,03,60.0214814911,PLT_learning_01,B,2014_Mrz_14_1325,P19,
stim_fb/ques.jpg,stim_fb/negf.jpg,stim_fb/posf.jpg,stim_01/b.jpg,stim_01/a.jpg,1,1,f,1,44,104,3,f,1,0.733144844231,01,03,60.0214814911,PLT_learning_01,B,2014_Mrz_14_1325,P19,
stim_fb/ques.jpg,stim_fb/posf.jpg,stim_fb/negf.jpg,stim_01/a.jpg,stim_01/b.jpg,2,1,j,1,45,105,18,j,1,0.76649288617,01,03,60.0214814911,PLT_learning_01,B,2014_Mrz_14_1325,P19,
stim_fb/ques.jpg,stim_fb/negf.jpg,stim_fb/posf.jpg,stim_01/c.jpg,stim_01/d.jpg,2,2,j,1,46,106,31,j,1,0.983060816607,01,03,60.0214814911,PLT_learning_01,B,2014_Mrz_14_1325,P19,
stim_fb/ques.jpg,stim_fb/negf.jpg,stim_fb/posf.jpg,stim_01/a.jpg,stim_01/b.jpg,2,1,j,1,47,107,11,j,1,0.666492377906,01,03,60.0214814911,PLT_learning_01,B,2014_Mrz_14_1325,P19,
stim_fb/ques.jpg,stim_fb/negf.jpg,stim_fb/posf.jpg,stim_01/b.jpg,stim_01/a.jpg,1,1,f,1,48,108,2,f,1,0.783116566354,01,03,60.0214814911,PLT_learning_01,B,2014_Mrz_14_1325,P19,
stim_fb/ques.jpg,stim_fb/negf.jpg,stim_fb/posf.jpg,stim_01/a.jpg,stim_01/b.jpg,2,1,j,1,49,109,12,f,0,0.249961755319,01,03,60.0214814911,PLT_learning_01,B,2014_Mrz_14_1325,P19,
stim_fb/ques.jpg,stim_fb/negf.jpg,stim_fb/posf.jpg,stim_01/a.jpg,stim_01/b.jpg,2,1,j,1,50,110,16,j,1,0.61648479754,01,03,60.0214814911,PLT_learning_01,B,2014_Mrz_14_1325,P19,
stim_fb/ques.jpg,stim_fb/negf.jpg,stim_fb/posf.jpg,stim_01/f.jpg,stim_01/e.jpg,1,3,f,1,51,111,42,j,0,0.699828828998,01,03,60.0214814911,PLT_learning_01,B,2014_Mrz_14_1325,P19,
stim_fb/ques.jpg,stim_fb/negf.jpg,stim_fb/posf.jpg,stim_01/a.jpg,stim_01/b.jpg,2,1,j,1,52,112,17,j,1,0.666455049003,01,03,60.0214814911,PLT_learning_01,B,2014_Mrz_14_1325,P19,
stim_fb/ques.jpg,stim_fb/posf.jpg,stim_fb/negf.jpg,stim_01/f.jpg,stim_01/e.jpg,1,3,f,1,53,113,49,f,1,1.11632617076,01,03,60.0214814911,PLT_learning_01,B,2014_Mrz_14_1325,P19,
stim_fb/ques.jpg,stim_fb/posf.jpg,stim_fb/negf.jpg,stim_01/f.jpg,stim_01/e.jpg,1,3,f,1,54,114,46,f,1,1.29961666598,01,03,60.0214814911,PLT_learning_01,B,2014_Mrz_14_1325,P19,
stim_fb/ques.jpg,stim_fb/negf.jpg,stim_fb/posf.jpg,stim_01/e.jpg,stim_01/f.jpg,2,3,j,1,55,115,55,j,1,0.666535860122,01,03,60.0214814911,PLT_learning_01,B,2014_Mrz_14_1325,P19,
stim_fb/ques.jpg,stim_fb/negf.jpg,stim_fb/posf.jpg,stim_01/c.jpg,stim_01/d.jpg,2,2,j,1,56,116,36,j,1,0.633195643658,01,03,60.0214814911,PLT_learning_01,B,2014_Mrz_14_1325,P19,
stim_fb/ques.jpg,stim_fb/posf.jpg,stim_fb/negf.jpg,stim_01/e.jpg,stim_01/f.jpg,2,3,j,1,57,117,56,j,1,0.799794766225,01,03,60.0214814911,PLT_learning_01,B,2014_Mrz_14_1325,P19,
stim_fb/ques.jpg,stim_fb/posf.jpg,stim_fb/negf.jpg,stim_01/c.jpg,stim_01/d.jpg,2,2,j,1,58,118,39,j,1,0.849773802551,01,03,60.0214814911,PLT_learning_01,B,2014_Mrz_14_1325,P19,
stim_fb/ques.jpg,stim_fb/negf.jpg,stim_fb/posf.jpg,stim_01/a.jpg,stim_01/b.jpg,2,1,j,1,59,119,10,j,1,0.599860278267,01,03,60.0214814911,PLT_learning_01,B,2014_Mrz_14_1325,P19,
stim_fb/ques.jpg,stim_fb/posf.jpg,stim_fb/negf.jpg,stim_01/f.jpg,stim_01/e.jpg,1,3,f,2,0,120,48,f,1,0.949724013639,01,03,60.0214814911,PLT_learning_01,B,2014_Mrz_14_1325,P19,
stim_fb/ques.jpg,stim_fb/negf.jpg,stim_fb/posf.jpg,stim_01/d.jpg,stim_01/c.jpg,1,2,f,2,1,121,25,f,1,0.899723161017,01,03,60.0214814911,PLT_learning_01,B,2014_Mrz_14_1325,P19,
stim_fb/ques.jpg,stim_fb/negf.jpg,stim_fb/posf.jpg,stim_01/a.jpg,stim_01/b.jpg,2,1,j,2,2,122,11,j,1,0.666488095247,01,03,60.0214814911,PLT_learning_01,B,2014_Mrz_14_1325,P19,
stim_fb/ques.jpg,stim_fb/posf.jpg,stim_fb/negf.jpg,stim_01/e.jpg,stim_01/f.jpg,2,3,j,2,3,123,56,j,1,0.749815008101,01,03,60.0214814911,PLT_learning_01,B,2014_Mrz_14_1325,P19,
stim_fb/ques.jpg,stim_fb/negf.jpg,stim_fb/posf.jpg,stim_01/d.jpg,stim_01/c.jpg,1,2,f,2,4,124,21,f,1,0.616511070928,01,03,60.0214814911,PLT_learning_01,B,2014_Mrz_14_1325,P19,
stim_fb/ques.jpg,stim_fb/negf.jpg,stim_fb/posf.jpg,stim_01/b.jpg,stim_01/a.jpg,1,1,f,2,5,125,6,f,1,0.566486615565,01,03,60.0214814911,PLT_learning_01,B,2014_Mrz_14_1325,P19,
stim_fb/ques.jpg,stim_fb/posf.jpg,stim_fb/negf.jpg,stim_01/e.jpg,stim_01/f.jpg,2,3,j,2,6,126,59,j,1,0.733107088266,01,03,60.0214814911,PLT_learning_01,B,2014_Mrz_14_1325,P19,
stim_fb/ques.jpg,stim_fb/negf.jpg,stim_fb/posf.jpg,stim_01/b.jpg,stim_01/a.jpg,1,1,f,2,7,127,4,f,1,0.633176134104,01,03,60.0214814911,PLT_learning_01,B,2014_Mrz_14_1325,P19,
stim_fb/ques.jpg,stim_fb/posf.jpg,stim_fb/negf.jpg,stim_01/b.jpg,stim_01/a.jpg,1,1,f,2,8,128,9,f,1,0.633202930794,01,03,60.0214814911,PLT_learning_01,B,2014_Mrz_14_1325,P19,
stim_fb/ques.jpg,stim_fb/negf.jpg,stim_fb/posf.jpg,stim_01/b.jpg,stim_01/a.jpg,1,1,f,2,9,129,0,f,1,0.666537721755,01,03,60.0214814911,PLT_learning_01,B,2014_Mrz_14_1325,P19,
stim_fb/ques.jpg,stim_fb/negf.jpg,stim_fb/posf.jpg,stim_01/e.jpg,stim_01/f.jpg,2,3,j,2,10,130,53,j,1,0.883246468649,01,03,60.0214814911,PLT_learning_01,B,2014_Mrz_14_1325,P19,
stim_fb/ques.jpg,stim_fb/negf.jpg,stim_fb/posf.jpg,stim_01/a.jpg,stim_01/b.jpg,2,1,j,2,11,131,12,j,1,0.649803603719,01,03,60.0214814911,PLT_learning_01,B,2014_Mrz_14_1325,P19,
stim_fb/ques.jpg,stim_fb/negf.jpg,stim_fb/posf.jpg,stim_01/e.jpg,stim_01/f.jpg,2,3,j,2,12,132,51,j,1,0.61650024699,01,03,60.0214814911,PLT_learning_01,B,2014_Mrz_14_1325,P19,
stim_fb/ques.jpg,stim_fb/posf.jpg,stim_fb/negf.jpg,stim_01/a.jpg,stim_01/b.jpg,2,1,j,2,13,133,19,j,1,0.599853914429,01,03,60.0214814911,PLT_learning_01,B,2014_Mrz_14_1325,P19,
stim_fb/ques.jpg,stim_fb/negf.jpg,stim_fb/posf.jpg,stim_01/c.jpg,stim_01/d.jpg,2,2,j,2,14,134,34,j,1,0.833121127205,01,03,60.0214814911,PLT_learning_01,B,2014_Mrz_14_1325,P19,
stim_fb/ques.jpg,stim_fb/negf.jpg,stim_fb/posf.jpg,stim_01/c.jpg,stim_01/d.jpg,2,2,j,2,15,135,36,j,1,0.633170293568,01,03,60.0214814911,PLT_learning_01,B,2014_Mrz_14_1325,P19,
stim_fb/ques.jpg,stim_fb/negf.jpg,stim_fb/posf.jpg,stim_01/f.jpg,stim_01/e.jpg,1,3,f,2,16,136,45,j,0,0.599848082916,01,03,60.0214814911,PLT_learning_01,B,2014_Mrz_14_1325,P19,
stim_fb/ques.jpg,stim_fb/negf.jpg,stim_fb/posf.jpg,stim_01/a.jpg,stim_01/b.jpg,2,1,j,2,17,137,13,j,1,0.633177520554,01,03,60.0214814911,PLT_learning_01,B,2014_Mrz_14_1325,P19,
stim_fb/ques.jpg,stim_fb/posf.jpg,stim_fb/negf.jpg,stim_01/f.jpg,stim_01/e.jpg,1,3,f,2,18,138,47,f,1,0.683107862693,01,03,60.0214814911,PLT_learning_01,B,2014_Mrz_14_1325,P19,
stim_fb/ques.jpg,stim_fb/negf.jpg,stim_fb/posf.jpg,stim_01/f.jpg,stim_01/e.jpg,1,3,f,2,19,139,43,f,1,0.699804044315,01,03,60.0214814911,PLT_learning_01,B,2014_Mrz_14_1325,P19,
stim_fb/ques.jpg,stim_fb/negf.jpg,stim_fb/posf.jpg,stim_01/a.jpg,stim_01/b.jpg,2,1,j,2,20,140,15,j,1,0.633162777863,01,03,60.0214814911,PLT_learning_01,B,2014_Mrz_14_1325,P19,
stim_fb/ques.jpg,stim_fb/posf.jpg,stim_fb/negf.jpg,stim_01/d.jpg,stim_01/c.jpg,1,2,f,2,21,141,29,j,0,0.69978625805,01,03,60.0214814911,PLT_learning_01,B,2014_Mrz_14_1325,P19,
stim_fb/ques.jpg,stim_fb/negf.jpg,stim_fb/posf.jpg,stim_01/c.jpg,stim_01/d.jpg,2,2,j,2,22,142,33,j,1,0.0666753051657,01,03,60.0214814911,PLT_learning_01,B,2014_Mrz_14_1325,P19,
stim_fb/ques.jpg,stim_fb/negf.jpg,stim_fb/posf.jpg,stim_01/c.jpg,stim_01/d.jpg,2,2,j,2,23,143,35,j,1,0.833097945512,01,03,60.0214814911,PLT_learning_01,B,2014_Mrz_14_1325,P19,
stim_fb/ques.jpg,stim_fb/negf.jpg,stim_fb/posf.jpg,stim_01/c.jpg,stim_01/d.jpg,2,2,j,2,24,144,31,j,1,0.833071524757,01,03,60.0214814911,PLT_learning_01,B,2014_Mrz_14_1325,P19,
stim_fb/ques.jpg,stim_fb/negf.jpg,stim_fb/posf.jpg,stim_01/e.jpg,stim_01/f.jpg,2,3,j,2,25,145,50,j,1,0.7997873227,01,03,60.0214814911,PLT_learning_01,B,2014_Mrz_14_1325,P19,
stim_fb/ques.jpg,stim_fb/negf.jpg,stim_fb/posf.jpg,stim_01/e.jpg,stim_01/f.jpg,2,3,j,2,26,146,52,j,1,0.0165659876016,01,03,60.0214814911,PLT_learning_01,B,2014_Mrz_14_1325,P19,
stim_fb/ques.jpg,stim_fb/posf.jpg,stim_fb/negf.jpg,stim_01/e.jpg,stim_01/f.jpg,2,3,j,2,27,147,57,j,1,0.716500574806,01,03,60.0214814911,PLT_learning_01,B,2014_Mrz_14_1325,P19,
stim_fb/ques.jpg,stim_fb/negf.jpg,stim_fb/posf.jpg,stim_01/b.jpg,stim_01/a.jpg,1,1,f,2,28,148,3,f,1,0.633176525077,01,03,60.0214814911,PLT_learning_01,B,2014_Mrz_14_1325,P19,
stim_fb/ques.jpg,stim_fb/posf.jpg,stim_fb/negf.jpg,stim_01/c.jpg,stim_01/d.jpg,2,2,j,2,29,149,38,j,1,0.833083903565,01,03,60.0214814911,PLT_learning_01,B,2014_Mrz_14_1325,P19,
stim_fb/ques.jpg,stim_fb/posf.jpg,stim_fb/negf.jpg,stim_01/e.jpg,stim_01/f.jpg,2,3,j,2,30,150,58,j,1,0.6498252937,01,03,60.0214814911,PLT_learning_01,B,2014_Mrz_14_1325,P19,
stim_fb/ques.jpg,stim_fb/negf.jpg,stim_fb/posf.jpg,stim_01/b.jpg,stim_01/a.jpg,1,1,f,2,31,151,5,f,1,0.58315331782,01,03,60.0214814911,PLT_learning_01,B,2014_Mrz_14_1325,P19,
stim_fb/ques.jpg,stim_fb/negf.jpg,stim_fb/posf.jpg,stim_01/d.jpg,stim_01/c.jpg,1,2,f,2,32,152,20,f,1,1.09966613309,01,03,60.0214814911,PLT_learning_01,B,2014_Mrz_14_1325,P19,
stim_fb/ques.jpg,stim_fb/negf.jpg,stim_fb/posf.jpg,stim_01/b.jpg,stim_01/a.jpg,1,1,f,2,33,153,1,f,1,0.516566381582,01,03,60.0214814911,PLT_learning_01,B,2014_Mrz_14_1325,P19,
stim_fb/ques.jpg,stim_fb/negf.jpg,stim_fb/posf.jpg,stim_01/a.jpg,stim_01/b.jpg,2,1,j,2,34,154,17,j,1,0.999701880054,01,03,60.0214814911,PLT_learning_01,B,2014_Mrz_14_1325,P19,
stim_fb/ques.jpg,stim_fb/posf.jpg,stim_fb/negf.jpg,stim_01/b.jpg,stim_01/a.jpg,1,1,f,2,35,155,8,f,1,0.816423718529,01,03,60.0214814911,PLT_learning_01,B,2014_Mrz_14_1325,P19,
stim_fb/ques.jpg,stim_fb/negf.jpg,stim_fb/posf.jpg,stim_01/f.jpg,stim_01/e.jpg,1,3,f,2,36,156,40,f,1,0.799769873272,01,03,60.0214814911,PLT_learning_01,B,2014_Mrz_14_1325,P19,
stim_fb/ques.jpg,stim_fb/negf.jpg,stim_fb/posf.jpg,stim_01/f.jpg,stim_01/e.jpg,1,3,f,2,37,157,42,f,1,0.733102706361,01,03,60.0214814911,PLT_learning_01,B,2014_Mrz_14_1325,P19,
stim_fb/ques.jpg,stim_fb/negf.jpg,stim_fb/posf.jpg,stim_01/b.jpg,stim_01/a.jpg,1,1,f,2,38,158,2,f,1,0.71648324267,01,03,60.0214814911,PLT_learning_01,B,2014_Mrz_14_1325,P19,
stim_fb/ques.jpg,stim_fb/posf.jpg,stim_fb/negf.jpg,stim_01/d.jpg,stim_01/c.jpg,1,2,f,2,39,159,27,f,1,0.51655298023,01,03,60.0214814911,PLT_learning_01,B,2014_Mrz_14_1325,P19,
stim_fb/ques.jpg,stim_fb/negf.jpg,stim_fb/posf.jpg,stim_01/b.jpg,stim_01/a.jpg,1,1,f,2,40,160,7,f,1,0.66646317222,01,03,60.0214814911,PLT_learning_01,B,2014_Mrz_14_1325,P19,
stim_fb/ques.jpg,stim_fb/posf.jpg,stim_fb/negf.jpg,stim_01/c.jpg,stim_01/d.jpg,2,2,j,2,41,161,37,f,0,0.933073278121,01,03,60.0214814911,PLT_learning_01,B,2014_Mrz_14_1325,P19,
stim_fb/ques.jpg,stim_fb/posf.jpg,stim_fb/negf.jpg,stim_01/f.jpg,stim_01/e.jpg,1,3,f,2,42,162,49,None,0,,01,03,60.0214814911,PLT_learning_01,B,2014_Mrz_14_1325,P19,
stim_fb/ques.jpg,stim_fb/posf.jpg,stim_fb/negf.jpg,stim_01/c.jpg,stim_01/d.jpg,2,2,j,2,43,163,39,f,0,0.699766125946,01,03,60.0214814911,PLT_learning_01,B,2014_Mrz_14_1325,P19,
stim_fb/ques.jpg,stim_fb/posf.jpg,stim_fb/negf.jpg,stim_01/d.jpg,stim_01/c.jpg,1,2,f,2,44,164,28,f,1,1.03302690872,01,03,60.0214814911,PLT_learning_01,B,2014_Mrz_14_1325,P19,
stim_fb/ques.jpg,stim_fb/negf.jpg,stim_fb/posf.jpg,stim_01/f.jpg,stim_01/e.jpg,1,3,f,2,45,165,41,j,0,0.899768089834,01,03,60.0214814911,PLT_learning_01,B,2014_Mrz_14_1325,P19,
stim_fb/ques.jpg,stim_fb/negf.jpg,stim_fb/posf.jpg,stim_01/d.jpg,stim_01/c.jpg,1,2,f,2,46,166,24,f,1,0.633120282102,01,03,60.0214814911,PLT_learning_01,B,2014_Mrz_14_1325,P19,
stim_fb/ques.jpg,stim_fb/negf.jpg,stim_fb/posf.jpg,stim_01/a.jpg,stim_01/b.jpg,2,1,j,2,47,167,10,j,1,0.733058075285,01,03,60.0214814911,PLT_learning_01,B,2014_Mrz_14_1325,P19,
stim_fb/ques.jpg,stim_fb/negf.jpg,stim_fb/posf.jpg,stim_01/a.jpg,stim_01/b.jpg,2,1,j,2,48,168,14,j,1,0.583046828795,01,03,60.0214814911,PLT_learning_01,B,2014_Mrz_14_1325,P19,
stim_fb/ques.jpg,stim_fb/negf.jpg,stim_fb/posf.jpg,stim_01/e.jpg,stim_01/f.jpg,2,3,j,2,49,169,54,j,1,0.183287716304,01,03,60.0214814911,PLT_learning_01,B,2014_Mrz_14_1325,P19,
stim_fb/ques.jpg,stim_fb/negf.jpg,stim_fb/posf.jpg,stim_01/d.jpg,stim_01/c.jpg,1,2,f,2,50,170,23,f,1,0.916398885727,01,03,60.0214814911,PLT_learning_01,B,2014_Mrz_14_1325,P19,
stim_fb/ques.jpg,stim_fb/posf.jpg,stim_fb/negf.jpg,stim_01/a.jpg,stim_01/b.jpg,2,1,j,2,51,171,18,j,1,1.68281581787,01,03,60.0214814911,PLT_learning_01,B,2014_Mrz_14_1325,P19,
stim_fb/ques.jpg,stim_fb/negf.jpg,stim_fb/posf.jpg,stim_01/d.jpg,stim_01/c.jpg,1,2,f,2,52,172,22,f,1,1.03303598531,01,03,60.0214814911,PLT_learning_01,B,2014_Mrz_14_1325,P19,
stim_fb/ques.jpg,stim_fb/posf.jpg,stim_fb/negf.jpg,stim_01/f.jpg,stim_01/e.jpg,1,3,f,2,53,173,46,f,1,0.999671462352,01,03,60.0214814911,PLT_learning_01,B,2014_Mrz_14_1325,P19,
stim_fb/ques.jpg,stim_fb/negf.jpg,stim_fb/posf.jpg,stim_01/c.jpg,stim_01/d.jpg,2,2,j,2,54,174,30,j,1,0.0833177971676,01,03,60.0214814911,PLT_learning_01,B,2014_Mrz_14_1325,P19,
stim_fb/ques.jpg,stim_fb/negf.jpg,stim_fb/posf.jpg,stim_01/a.jpg,stim_01/b.jpg,2,1,j,2,55,175,16,j,1,0.666485638132,01,03,60.0214814911,PLT_learning_01,B,2014_Mrz_14_1325,P19,
stim_fb/ques.jpg,stim_fb/negf.jpg,stim_fb/posf.jpg,stim_01/f.jpg,stim_01/e.jpg,1,3,f,2,56,176,44,f,1,0.783146012639,01,03,60.0214814911,PLT_learning_01,B,2014_Mrz_14_1325,P19,
stim_fb/ques.jpg,stim_fb/negf.jpg,stim_fb/posf.jpg,stim_01/c.jpg,stim_01/d.jpg,2,2,j,2,57,177,32,f,0,0.533148495318,01,03,60.0214814911,PLT_learning_01,B,2014_Mrz_14_1325,P19,
stim_fb/ques.jpg,stim_fb/negf.jpg,stim_fb/posf.jpg,stim_01/e.jpg,stim_01/f.jpg,2,3,j,2,58,178,55,j,1,0.583244285215,01,03,60.0214814911,PLT_learning_01,B,2014_Mrz_14_1325,P19,
stim_fb/ques.jpg,stim_fb/negf.jpg,stim_fb/posf.jpg,stim_01/d.jpg,stim_01/c.jpg,1,2,f,2,59,179,26,f,1,1.01639720755,01,03,60.0214814911,PLT_learning_01,B,2014_Mrz_14_1325,P19,
stim_fb/ques.jpg,stim_fb/posf.jpg,stim_fb/negf.jpg,stim_01/c.jpg,stim_01/d.jpg,2,2,j,3,0,180,39,j,1,1.26630672586,01,03,60.0214814911,PLT_learning_01,B,2014_Mrz_14_1325,P19,
stim_fb/ques.jpg,stim_fb/negf.jpg,stim_fb/posf.jpg,stim_01/f.jpg,stim_01/e.jpg,1,3,f,3,1,181,40,f,1,0.599869646583,01,03,60.0214814911,PLT_learning_01,B,2014_Mrz_14_1325,P19,
stim_fb/ques.jpg,stim_fb/posf.jpg,stim_fb/negf.jpg,stim_01/e.jpg,stim_01/f.jpg,2,3,j,3,2,182,56,j,1,0.649710341613,01,03,60.0214814911,PLT_learning_01,B,2014_Mrz_14_1325,P19,
stim_fb/ques.jpg,stim_fb/negf.jpg,stim_fb/posf.jpg,stim_01/a.jpg,stim_01/b.jpg,2,1,j,3,3,183,11,j,1,0.7497968459,01,03,60.0214814911,PLT_learning_01,B,2014_Mrz_14_1325,P19,
stim_fb/ques.jpg,stim_fb/negf.jpg,stim_fb/posf.jpg,stim_01/c.jpg,stim_01/d.jpg,2,2,j,3,4,184,31,f,0,0.733115337797,01,03,60.0214814911,PLT_learning_01,B,2014_Mrz_14_1325,P19,
stim_fb/ques.jpg,stim_fb/posf.jpg,stim_fb/negf.jpg,stim_01/f.jpg,stim_01/e.jpg,1,3,f,3,5,185,46,None,0,,01,03,60.0214814911,PLT_learning_01,B,2014_Mrz_14_1325,P19,
stim_fb/ques.jpg,stim_fb/posf.jpg,stim_fb/negf.jpg,stim_01/d.jpg,stim_01/c.jpg,1,2,f,3,6,186,28,j,0,0.916385400165,01,03,60.0214814911,PLT_learning_01,B,2014_Mrz_14_1325,P19,
stim_fb/ques.jpg,stim_fb/negf.jpg,stim_fb/posf.jpg,stim_01/a.jpg,stim_01/b.jpg,2,1,j,3,7,187,14,None,0,,01,03,60.0214814911,PLT_learning_01,B,2014_Mrz_14_1325,P19,
stim_fb/ques.jpg,stim_fb/negf.jpg,stim_fb/posf.jpg,stim_01/e.jpg,stim_01/f.jpg,2,3,j,3,8,188,54,j,1,0.816462542152,01,03,60.0214814911,PLT_learning_01,B,2014_Mrz_14_1325,P19,
stim_fb/ques.jpg,stim_fb/negf.jpg,stim_fb/posf.jpg,stim_01/e.jpg,stim_01/f.jpg,2,3,j,3,9,189,53,None,0,,01,03,60.0214814911,PLT_learning_01,B,2014_Mrz_14_1325,P19,
stim_fb/ques.jpg,stim_fb/negf.jpg,stim_fb/posf.jpg,stim_01/b.jpg,stim_01/a.jpg,1,1,f,3,10,190,4,f,1,0.749792539182,01,03,60.0214814911,PLT_learning_01,B,2014_Mrz_14_1325,P19,
stim_fb/ques.jpg,stim_fb/negf.jpg,stim_fb/posf.jpg,stim_01/a.jpg,stim_01/b.jpg,2,1,j,3,11,191,15,j,1,0.566514949079,01,03,60.0214814911,PLT_learning_01,B,2014_Mrz_14_1325,P19,
stim_fb/ques.jpg,stim_fb/negf.jpg,stim_fb/posf.jpg,stim_01/d.jpg,stim_01/c.jpg,1,2,f,3,12,192,20,f,1,0.783115008477,01,03,60.0214814911,PLT_learning_01,B,2014_Mrz_14_1325,P19,
stim_fb/ques.jpg,stim_fb/posf.jpg,stim_fb/negf.jpg,stim_01/a.jpg,stim_01/b.jpg,2,1,j,3,13,193,19,j,1,0.933033140228,01,03,60.0214814911,PLT_learning_01,B,2014_Mrz_14_1325,P19,
stim_fb/ques.jpg,stim_fb/negf.jpg,stim_fb/posf.jpg,stim_01/c.jpg,stim_01/d.jpg,2,2,j,3,14,194,35,f,0,0.983036597332,01,03,60.0214814911,PLT_learning_01,B,2014_Mrz_14_1325,P19,
stim_fb/ques.jpg,stim_fb/negf.jpg,stim_fb/posf.jpg,stim_01/c.jpg,stim_01/d.jpg,2,2,j,3,15,195,30,j,1,0.949740819465,01,03,60.0214814911,PLT_learning_01,B,2014_Mrz_14_1325,P19,
stim_fb/ques.jpg,stim_fb/negf.jpg,stim_fb/posf.jpg,stim_01/e.jpg,stim_01/f.jpg,2,3,j,3,16,196,52,None,0,,01,03,60.0214814911,PLT_learning_01,B,2014_Mrz_14_1325,P19,
stim_fb/ques.jpg,stim_fb/posf.jpg,stim_fb/negf.jpg,stim_01/e.jpg,stim_01/f.jpg,2,3,j,3,17,197,58,j,1,0.766464736112,01,03,60.0214814911,PLT_learning_01,B,2014_Mrz_14_1325,P19,
stim_fb/ques.jpg,stim_fb/negf.jpg,stim_fb/posf.jpg,stim_01/b.jpg,stim_01/a.jpg,1,1,f,3,18,198,1,None,0,,01,03,60.0214814911,PLT_learning_01,B,2014_Mrz_14_1325,P19,
stim_fb/ques.jpg,stim_fb/negf.jpg,stim_fb/posf.jpg,stim_01/d.jpg,stim_01/c.jpg,1,2,f,3,19,199,26,j,0,0.699811749492,01,03,60.0214814911,PLT_learning_01,B,2014_Mrz_14_1325,P19,
stim_fb/ques.jpg,stim_fb/negf.jpg,stim_fb/posf.jpg,stim_01/e.jpg,stim_01/f.jpg,2,3,j,3,20,200,55,f,0,0.783055800123,01,03,60.0214814911,PLT_learning_01,B,2014_Mrz_14_1325,P19,
stim_fb/ques.jpg,stim_fb/negf.jpg,stim_fb/posf.jpg,stim_01/b.jpg,stim_01/a.jpg,1,1,f,3,21,201,3,j,0,0.399895823731,01,03,60.0214814911,PLT_learning_01,B,2014_Mrz_14_1325,P19,
stim_fb/ques.jpg,stim_fb/negf.jpg,stim_fb/posf.jpg,stim_01/e.jpg,stim_01/f.jpg,2,3,j,3,22,202,51,j,1,1.1329293008,01,03,60.0214814911,PLT_learning_01,B,2014_Mrz_14_1325,P19,
stim_fb/ques.jpg,stim_fb/negf.jpg,stim_fb/posf.jpg,stim_01/d.jpg,stim_01/c.jpg,1,2,f,3,23,203,23,f,1,1.21627167513,01,03,60.0214814911,PLT_learning_01,B,2014_Mrz_14_1325,P19,
stim_fb/ques.jpg,stim_fb/negf.jpg,stim_fb/posf.jpg,stim_01/c.jpg,stim_01/d.jpg,2,2,j,3,24,204,34,f,0,0.96637118228,01,03,60.0214814911,PLT_learning_01,B,2014_Mrz_14_1325,P19,
stim_fb/ques.jpg,stim_fb/negf.jpg,stim_fb/posf.jpg,stim_01/f.jpg,stim_01/e.jpg,1,3,f,3,25,205,44,None,0,,01,03,60.0214814911,PLT_learning_01,B,2014_Mrz_14_1325,P19,
stim_fb/ques.jpg,stim_fb/negf.jpg,stim_fb/posf.jpg,stim_01/b.jpg,stim_01/a.jpg,1,1,f,3,26,206,6,f,1,0.74978853622,01,03,60.0214814911,PLT_learning_01,B,2014_Mrz_14_1325,P19,
stim_fb/ques.jpg,stim_fb/posf.jpg,stim_fb/negf.jpg,stim_01/d.jpg,stim_01/c.jpg,1,2,f,3,27,207,27,None,0,,01,03,60.0214814911,PLT_learning_01,B,2014_Mrz_14_1325,P19,
stim_fb/ques.jpg,stim_fb/negf.jpg,stim_fb/posf.jpg,stim_01/a.jpg,stim_01/b.jpg,2,1,j,3,28,208,16,j,1,0.41658470318,01,03,60.0214814911,PLT_learning_01,B,2014_Mrz_14_1325,P19,
stim_fb/ques.jpg,stim_fb/negf.jpg,stim_fb/posf.jpg,stim_01/c.jpg,stim_01/d.jpg,2,2,j,3,29,209,33,f,0,0.883104891298,01,03,60.0214814911,PLT_learning_01,B,2014_Mrz_14_1325,P19,
stim_fb/ques.jpg,stim_fb/negf.jpg,stim_fb/posf.jpg,stim_01/a.jpg,stim_01/b.jpg,2,1,j,3,30,210,10,None,0,,01,03,60.0214814911,PLT_learning_01,B,2014_Mrz_14_1325,P19,
stim_fb/ques.jpg,stim_fb/negf.jpg,stim_fb/posf.jpg,stim_01/d.jpg,stim_01/c.jpg,1,2,f,3,31,211,25,None,0,,01,03,60.0214814911,PLT_learning_01,B,2014_Mrz_14_1325,P19,
stim_fb/ques.jpg,stim_fb/negf.jpg,stim_fb/posf.jpg,stim_01/b.jpg,stim_01/a.jpg,1,1,f,3,32,212,7,j,0,0.0833505907826,01,03,60.0214814911,PLT_learning_01,B,2014_Mrz_14_1325,P19,
stim_fb/ques.jpg,stim_fb/negf.jpg,stim_fb/posf.jpg,stim_01/c.jpg,stim_01/d.jpg,2,2,j,3,33,213,36,f,0,0.58317913407,01,03,60.0214814911,PLT_learning_01,B,2014_Mrz_14_1325,P19,
stim_fb/ques.jpg,stim_fb/negf.jpg,stim_fb/posf.jpg,stim_01/b.jpg,stim_01/a.jpg,1,1,f,3,34,214,0,f,1,0.733153656161,01,03,60.0214814911,PLT_learning_01,B,2014_Mrz_14_1325,P19,
stim_fb/ques.jpg,stim_fb/negf.jpg,stim_fb/posf.jpg,stim_01/d.jpg,stim_01/c.jpg,1,2,f,3,35,215,22,f,1,1.03302828013,01,03,60.0214814911,PLT_learning_01,B,2014_Mrz_14_1325,P19,
stim_fb/ques.jpg,stim_fb/posf.jpg,stim_fb/negf.jpg,stim_01/e.jpg,stim_01/f.jpg,2,3,j,3,36,216,57,j,1,0.783177022815,01,03,60.0214814911,PLT_learning_01,B,2014_Mrz_14_1325,P19,
stim_fb/ques.jpg,stim_fb/posf.jpg,stim_fb/negf.jpg,stim_01/c.jpg,stim_01/d.jpg,2,2,j,3,37,217,38,j,1,0.633184251305,01,03,60.0214814911,PLT_learning_01,B,2014_Mrz_14_1325,P19,
stim_fb/ques.jpg,stim_fb/negf.jpg,stim_fb/posf.jpg,stim_01/f.jpg,stim_01/e.jpg,1,3,f,3,38,218,42,j,0,0.150002714255,01,03,60.0214814911,PLT_learning_01,B,2014_Mrz_14_1325,P19,
stim_fb/ques.jpg,stim_fb/negf.jpg,stim_fb/posf.jpg,stim_01/a.jpg,stim_01/b.jpg,2,1,j,3,39,219,17,j,1,0.6498566347,01,03,60.0214814911,PLT_learning_01,B,2014_Mrz_14_1325,P19,
stim_fb/ques.jpg,stim_fb/negf.jpg,stim_fb/posf.jpg,stim_01/f.jpg,stim_01/e.jpg,1,3,f,3,40,220,45,None,0,,01,03,60.0214814911,PLT_learning_01,B,2014_Mrz_14_1325,P19,
stim_fb/ques.jpg,stim_fb/negf.jpg,stim_fb/posf.jpg,stim_01/d.jpg,stim_01/c.jpg,1,2,f,3,41,221,21,None,0,,01,03,60.0214814911,PLT_learning_01,B,2014_Mrz_14_1325,P19,
stim_fb/ques.jpg,stim_fb/posf.jpg,stim_fb/negf.jpg,stim_01/c.jpg,stim_01/d.jpg,2,2,j,3,42,222,37,f,0,0.816420473453,01,03,60.0214814911,PLT_learning_01,B,2014_Mrz_14_1325,P19,
stim_fb/ques.jpg,stim_fb/negf.jpg,stim_fb/posf.jpg,stim_01/f.jpg,stim_01/e.jpg,1,3,f,3,43,223,41,f,1,0.749784139277,01,03,60.0214814911,PLT_learning_01,B,2014_Mrz_14_1325,P19,
stim_fb/ques.jpg,stim_fb/posf.jpg,stim_fb/negf.jpg,stim_01/b.jpg,stim_01/a.jpg,1,1,f,3,44,224,8,f,1,0.399874034504,01,03,60.0214814911,PLT_learning_01,B,2014_Mrz_14_1325,P19,
stim_fb/ques.jpg,stim_fb/posf.jpg,stim_fb/negf.jpg,stim_01/f.jpg,stim_01/e.jpg,1,3,f,3,45,225,48,j,0,0.533209823949,01,03,60.0214814911,PLT_learning_01,B,2014_Mrz_14_1325,P19,
stim_fb/ques.jpg,stim_fb/negf.jpg,stim_fb/posf.jpg,stim_01/a.jpg,stim_01/b.jpg,2,1,j,3,46,226,13,j,1,0.683146629173,01,03,60.0214814911,PLT_learning_01,B,2014_Mrz_14_1325,P19,
stim_fb/ques.jpg,stim_fb/posf.jpg,stim_fb/negf.jpg,stim_01/f.jpg,stim_01/e.jpg,1,3,f,3,47,227,47,f,1,0.549872005955,01,03,60.0214814911,PLT_learning_01,B,2014_Mrz_14_1325,P19,
stim_fb/ques.jpg,stim_fb/negf.jpg,stim_fb/posf.jpg,stim_01/a.jpg,stim_01/b.jpg,2,1,j,3,48,228,12,None,0,,01,03,60.0214814911,PLT_learning_01,B,2014_Mrz_14_1325,P19,
stim_fb/ques.jpg,stim_fb/posf.jpg,stim_fb/negf.jpg,stim_01/f.jpg,stim_01/e.jpg,1,3,f,3,49,229,49,f,1,0.983037932654,01,03,60.0214814911,PLT_learning_01,B,2014_Mrz_14_1325,P19,
stim_fb/ques.jpg,stim_fb/negf.jpg,stim_fb/posf.jpg,stim_01/b.jpg,stim_01/a.jpg,1,1,f,3,50,230,5,f,1,0.666496326733,01,03,60.0214814911,PLT_learning_01,B,2014_Mrz_14_1325,P19,
stim_fb/ques.jpg,stim_fb/posf.jpg,stim_fb/negf.jpg,stim_01/e.jpg,stim_01/f.jpg,2,3,j,3,51,231,59,j,1,0.699814426153,01,03,60.0214814911,PLT_learning_01,B,2014_Mrz_14_1325,P19,
stim_fb/ques.jpg,stim_fb/negf.jpg,stim_fb/posf.jpg,stim_01/e.jpg,stim_01/f.jpg,2,3,j,3,52,232,50,j,1,0.6831551584,01,03,60.0214814911,PLT_learning_01,B,2014_Mrz_14_1325,P19,
stim_fb/ques.jpg,stim_fb/negf.jpg,stim_fb/posf.jpg,stim_01/b.jpg,stim_01/a.jpg,1,1,f,3,53,233,2,f,1,0.533174648406,01,03,60.0214814911,PLT_learning_01,B,2014_Mrz_14_1325,P19,
stim_fb/ques.jpg,stim_fb/negf.jpg,stim_fb/posf.jpg,stim_01/f.jpg,stim_01/e.jpg,1,3,f,3,54,234,43,f,1,0.833098513926,01,03,60.0214814911,PLT_learning_01,B,2014_Mrz_14_1325,P19,
stim_fb/ques.jpg,stim_fb/negf.jpg,stim_fb/posf.jpg,stim_01/c.jpg,stim_01/d.jpg,2,2,j,3,55,235,32,f,0,0.633173114589,01,03,60.0214814911,PLT_learning_01,B,2014_Mrz_14_1325,P19,
stim_fb/ques.jpg,stim_fb/negf.jpg,stim_fb/posf.jpg,stim_01/d.jpg,stim_01/c.jpg,1,2,f,3,56,236,24,j,0,0.733162308696,01,03,60.0214814911,PLT_learning_01,B,2014_Mrz_14_1325,P19,
stim_fb/ques.jpg,stim_fb/posf.jpg,stim_fb/negf.jpg,stim_01/b.jpg,stim_01/a.jpg,1,1,f,3,57,237,9,f,1,0.483152078736,01,03,60.0214814911,PLT_learning_01,B,2014_Mrz_14_1325,P19,
stim_fb/ques.jpg,stim_fb/posf.jpg,stim_fb/negf.jpg,stim_01/d.jpg,stim_01/c.jpg,1,2,f,3,58,238,29,None,0,,01,03,60.0214814911,PLT_learning_01,B,2014_Mrz_14_1325,P19,
stim_fb/ques.jpg,stim_fb/posf.jpg,stim_fb/negf.jpg,stim_01/a.jpg,stim_01/b.jpg,2,1,j,3,59,239,18,j,1,0.449878640467,01,03,60.0214814911,PLT_learning_01,B,2014_Mrz_14_1325,P19,
stim_fb/ques.jpg,stim_fb/negf.jpg,stim_fb/posf.jpg,stim_01/d.jpg,stim_01/c.jpg,1,2,f,4,0,240,24,None,0,,01,03,60.0214814911,PLT_learning_01,B,2014_Mrz_14_1325,P19,
stim_fb/ques.jpg,stim_fb/posf.jpg,stim_fb/negf.jpg,stim_01/e.jpg,stim_01/f.jpg,2,3,j,4,1,241,57,j,1,0.883074485626,01,03,60.0214814911,PLT_learning_01,B,2014_Mrz_14_1325,P19,
stim_fb/ques.jpg,stim_fb/posf.jpg,stim_fb/negf.jpg,stim_01/d.jpg,stim_01/c.jpg,1,2,f,4,2,242,28,f,1,0.6165042289,01,03,60.0214814911,PLT_learning_01,B,2014_Mrz_14_1325,P19,
stim_fb/ques.jpg,stim_fb/negf.jpg,stim_fb/posf.jpg,stim_01/b.jpg,stim_01/a.jpg,1,1,f,4,3,243,5,j,0,0.0167220489993,01,03,60.0214814911,PLT_learning_01,B,2014_Mrz_14_1325,P19,
stim_fb/ques.jpg,stim_fb/negf.jpg,stim_fb/posf.jpg,stim_01/b.jpg,stim_01/a.jpg,1,1,f,4,4,244,6,f,1,0.61653200603,01,03,60.0214814911,PLT_learning_01,B,2014_Mrz_14_1325,P19,
stim_fb/ques.jpg,stim_fb/negf.jpg,stim_fb/posf.jpg,stim_01/a.jpg,stim_01/b.jpg,2,1,j,4,5,245,15,f,0,0.116616910336,01,03,60.0214814911,PLT_learning_01,B,2014_Mrz_14_1325,P19,
stim_fb/ques.jpg,stim_fb/negf.jpg,stim_fb/posf.jpg,stim_01/c.jpg,stim_01/d.jpg,2,2,j,4,6,246,31,f,0,0.716460653451,01,03,60.0214814911,PLT_learning_01,B,2014_Mrz_14_1325,P19,
stim_fb/ques.jpg,stim_fb/negf.jpg,stim_fb/posf.jpg,stim_01/f.jpg,stim_01/e.jpg,1,3,f,4,7,247,41,f,1,0.0166792284299,01,03,60.0214814911,PLT_learning_01,B,2014_Mrz_14_1325,P19,
stim_fb/ques.jpg,stim_fb/negf.jpg,stim_fb/posf.jpg,stim_01/e.jpg,stim_01/f.jpg,2,3,j,4,8,248,53,None,0,,01,03,60.0214814911,PLT_learning_01,B,2014_Mrz_14_1325,P19,
stim_fb/ques.jpg,stim_fb/negf.jpg,stim_fb/posf.jpg,stim_01/a.jpg,stim_01/b.jpg,2,1,j,4,9,249,13,j,1,0.133316499438,01,03,60.0214814911,PLT_learning_01,B,2014_Mrz_14_1325,P19,
stim_fb/ques.jpg,stim_fb/negf.jpg,stim_fb/posf.jpg,stim_01/d.jpg,stim_01/c.jpg,1,2,f,4,10,250,20,j,0,0.883092903463,01,03,60.0214814911,PLT_learning_01,B,2014_Mrz_14_1325,P19,
stim_fb/ques.jpg,stim_fb/posf.jpg,stim_fb/negf.jpg,stim_01/c.jpg,stim_01/d.jpg,2,2,j,4,11,251,38,None,0,,01,03,60.0214814911,PLT_learning_01,B,2014_Mrz_14_1325,P19,
stim_fb/ques.jpg,stim_fb/posf.jpg,stim_fb/negf.jpg,stim_01/b.jpg,stim_01/a.jpg,1,1,f,4,12,252,9,None,0,,01,03,60.0214814911,PLT_learning_01,B,2014_Mrz_14_1325,P19,
stim_fb/ques.jpg,stim_fb/negf.jpg,stim_fb/posf.jpg,stim_01/c.jpg,stim_01/d.jpg,2,2,j,4,13,253,33,f,0,0.833100553001,01,03,60.0214814911,PLT_learning_01,B,2014_Mrz_14_1325,P19,
stim_fb/ques.jpg,stim_fb/negf.jpg,stim_fb/posf.jpg,stim_01/a.jpg,stim_01/b.jpg,2,1,j,4,14,254,12,j,1,0.54993708492,01,03,60.0214814911,PLT_learning_01,B,2014_Mrz_14_1325,P19,
stim_fb/ques.jpg,stim_fb/negf.jpg,stim_fb/posf.jpg,stim_01/c.jpg,stim_01/d.jpg,2,2,j,4,15,255,35,f,0,0.716432398131,01,03,60.0214814911,PLT_learning_01,B,2014_Mrz_14_1325,P19,
stim_fb/ques.jpg,stim_fb/negf.jpg,stim_fb/posf.jpg,stim_01/b.jpg,stim_01/a.jpg,1,1,f,4,16,256,1,f,1,0.849792848953,01,03,60.0214814911,PLT_learning_01,B,2014_Mrz_14_1325,P19,
stim_fb/ques.jpg,stim_fb/negf.jpg,stim_fb/posf.jpg,stim_01/a.jpg,stim_01/b.jpg,2,1,j,4,17,257,16,j,1,0.583185407684,01,03,60.0214814911,PLT_learning_01,B,2014_Mrz_14_1325,P19,
stim_fb/ques.jpg,stim_fb/negf.jpg,stim_fb/posf.jpg,stim_01/b.jpg,stim_01/a.jpg,1,1,f,4,18,258,7,j,0,0.283258733172,01,03,60.0214814911,PLT_learning_01,B,2014_Mrz_14_1325,P19,
stim_fb/ques.jpg,stim_fb/posf.jpg,stim_fb/negf.jpg,stim_01/f.jpg,stim_01/e.jpg,1,3,f,4,19,259,49,f,1,1.26629517712,01,03,60.0214814911,PLT_learning_01,B,2014_Mrz_14_1325,P19,
stim_fb/ques.jpg,stim_fb/posf.jpg,stim_fb/negf.jpg,stim_01/e.jpg,stim_01/f.jpg,2,3,j,4,20,260,58,j,1,0.266639191287,01,03,60.0214814911,PLT_learning_01,B,2014_Mrz_14_1325,P19,
stim_fb/ques.jpg,stim_fb/posf.jpg,stim_fb/negf.jpg,stim_01/a.jpg,stim_01/b.jpg,2,1,j,4,21,261,18,None,0,,01,03,60.0214814911,PLT_learning_01,B,2014_Mrz_14_1325,P19,
stim_fb/ques.jpg,stim_fb/posf.jpg,stim_fb/negf.jpg,stim_01/f.jpg,stim_01/e.jpg,1,3,f,4,22,262,48,f,1,0.716456743721,01,03,60.0214814911,PLT_learning_01,B,2014_Mrz_14_1325,P19,
stim_fb/ques.jpg,stim_fb/posf.jpg,stim_fb/negf.jpg,stim_01/c.jpg,stim_01/d.jpg,2,2,j,4,23,263,39,f,0,0.316537702206,01,03,60.0214814911,PLT_learning_01,B,2014_Mrz_14_1325,P19,
stim_fb/ques.jpg,stim_fb/negf.jpg,stim_fb/posf.jpg,stim_01/e.jpg,stim_01/f.jpg,2,3,j,4,24,264,54,j,1,1.11631160551,01,03,60.0214814911,PLT_learning_01,B,2014_Mrz_14_1325,P19,
stim_fb/ques.jpg,stim_fb/posf.jpg,stim_fb/negf.jpg,stim_01/f.jpg,stim_01/e.jpg,1,3,f,4,25,265,46,f,1,0.583224123036,01,03,60.0214814911,PLT_learning_01,B,2014_Mrz_14_1325,P19,
stim_fb/ques.jpg,stim_fb/posf.jpg,stim_fb/negf.jpg,stim_01/c.jpg,stim_01/d.jpg,2,2,j,4,26,266,37,None,0,,01,03,60.0214814911,PLT_learning_01,B,2014_Mrz_14_1325,P19,
stim_fb/ques.jpg,stim_fb/negf.jpg,stim_fb/posf.jpg,stim_01/a.jpg,stim_01/b.jpg,2,1,j,4,27,267,17,j,1,0.649812051744,01,03,60.0214814911,PLT_learning_01,B,2014_Mrz_14_1325,P19,
stim_fb/ques.jpg,stim_fb/negf.jpg,stim_fb/posf.jpg,stim_01/c.jpg,stim_01/d.jpg,2,2,j,4,28,268,30,j,1,0.383228453814,01,03,60.0214814911,PLT_learning_01,B,2014_Mrz_14_1325,P19,
stim_fb/ques.jpg,stim_fb/negf.jpg,stim_fb/posf.jpg,stim_01/f.jpg,stim_01/e.jpg,1,3,f,4,29,269,43,None,0,,01,03,60.0214814911,PLT_learning_01,B,2014_Mrz_14_1325,P19,
stim_fb/ques.jpg,stim_fb/negf.jpg,stim_fb/posf.jpg,stim_01/e.jpg,stim_01/f.jpg,2,3,j,4,30,270,55,None,0,,01,03,60.0214814911,PLT_learning_01,B,2014_Mrz_14_1325,P19,
stim_fb/ques.jpg,stim_fb/negf.jpg,stim_fb/posf.jpg,stim_01/c.jpg,stim_01/d.jpg,2,2,j,4,31,271,36,j,1,0.48318514904,01,03,60.0214814911,PLT_learning_01,B,2014_Mrz_14_1325,P19,
stim_fb/ques.jpg,stim_fb/posf.jpg,stim_fb/negf.jpg,stim_01/d.jpg,stim_01/c.jpg,1,2,f,4,32,272,27,j,0,0.149947629162,01,03,60.0214814911,PLT_learning_01,B,2014_Mrz_14_1325,P19,
stim_fb/ques.jpg,stim_fb/negf.jpg,stim_fb/posf.jpg,stim_01/f.jpg,stim_01/e.jpg,1,3,f,4,33,273,40,None,0,,01,03,60.0214814911,PLT_learning_01,B,2014_Mrz_14_1325,P19,
stim_fb/ques.jpg,stim_fb/negf.jpg,stim_fb/posf.jpg,stim_01/f.jpg,stim_01/e.jpg,1,3,f,4,34,274,42,None,0,,01,03,60.0214814911,PLT_learning_01,B,2014_Mrz_14_1325,P19,
stim_fb/ques.jpg,stim_fb/negf.jpg,stim_fb/posf.jpg,stim_01/e.jpg,stim_01/f.jpg,2,3,j,4,35,275,52,None,0,,01,03,60.0214814911,PLT_learning_01,B,2014_Mrz_14_1325,P19,
stim_fb/ques.jpg,stim_fb/negf.jpg,stim_fb/posf.jpg,stim_01/b.jpg,stim_01/a.jpg,1,1,f,4,36,276,2,None,0,,01,03,60.0214814911,PLT_learning_01,B,2014_Mrz_14_1325,P19,
stim_fb/ques.jpg,stim_fb/posf.jpg,stim_fb/negf.jpg,stim_01/d.jpg,stim_01/c.jpg,1,2,f,4,37,277,29,j,0,0.733136814246,01,03,60.0214814911,PLT_learning_01,B,2014_Mrz_14_1325,P19,
stim_fb/ques.jpg,stim_fb/negf.jpg,stim_fb/posf.jpg,stim_01/d.jpg,stim_01/c.jpg,1,2,f,4,38,278,23,None,0,,01,03,60.0214814911,PLT_learning_01,B,2014_Mrz_14_1325,P19,
stim_fb/ques.jpg,stim_fb/negf.jpg,stim_fb/posf.jpg,stim_01/e.jpg,stim_01/f.jpg,2,3,j,4,39,279,50,None,0,,01,03,60.0214814911,PLT_learning_01,B,2014_Mrz_14_1325,P19,
stim_fb/ques.jpg,stim_fb/negf.jpg,stim_fb/posf.jpg,stim_01/a.jpg,stim_01/b.jpg,2,1,j,4,40,280,11,j,1,0.683142148021,01,03,60.0214814911,PLT_learning_01,B,2014_Mrz_14_1325,P19,
stim_fb/ques.jpg,stim_fb/negf.jpg,stim_fb/posf.jpg,stim_01/d.jpg,stim_01/c.jpg,1,2,f,4,41,281,21,None,0,,01,03,60.0214814911,PLT_learning_01,B,2014_Mrz_14_1325,P19,
stim_fb/ques.jpg,stim_fb/negf.jpg,stim_fb/posf.jpg,stim_01/a.jpg,stim_01/b.jpg,2,1,j,4,42,282,10,None,0,,01,03,60.0214814911,PLT_learning_01,B,2014_Mrz_14_1325,P19,
stim_fb/ques.jpg,stim_fb/posf.jpg,stim_fb/negf.jpg,stim_01/a.jpg,stim_01/b.jpg,2,1,j,4,43,283,19,j,1,1.06637640027,01,03,60.0214814911,PLT_learning_01,B,2014_Mrz_14_1325,P19,
stim_fb/ques.jpg,stim_fb/negf.jpg,stim_fb/posf.jpg,stim_01/f.jpg,stim_01/e.jpg,1,3,f,4,44,284,44,None,0,,01,03,60.0214814911,PLT_learning_01,B,2014_Mrz_14_1325,P19,
stim_fb/ques.jpg,stim_fb/negf.jpg,stim_fb/posf.jpg,stim_01/c.jpg,stim_01/d.jpg,2,2,j,4,45,285,34,None,0,,01,03,60.0214814911,PLT_learning_01,B,2014_Mrz_14_1325,P19,
stim_fb/ques.jpg,stim_fb/negf.jpg,stim_fb/posf.jpg,stim_01/d.jpg,stim_01/c.jpg,1,2,f,4,46,286,22,f,1,0.899709347639,01,03,60.0214814911,PLT_learning_01,B,2014_Mrz_14_1325,P19,
stim_fb/ques.jpg,stim_fb/negf.jpg,stim_fb/posf.jpg,stim_01/c.jpg,stim_01/d.jpg,2,2,j,4,47,287,32,None,0,,01,03,60.0214814911,PLT_learning_01,B,2014_Mrz_14_1325,P19,
stim_fb/ques.jpg,stim_fb/negf.jpg,stim_fb/posf.jpg,stim_01/b.jpg,stim_01/a.jpg,1,1,f,4,48,288,0,None,0,,01,03,60.0214814911,PLT_learning_01,B,2014_Mrz_14_1325,P19,
stim_fb/ques.jpg,stim_fb/posf.jpg,stim_fb/negf.jpg,stim_01/f.jpg,stim_01/e.jpg,1,3,f,4,49,289,47,None,0,,01,03,60.0214814911,PLT_learning_01,B,2014_Mrz_14_1325,P19,
stim_fb/ques.jpg,stim_fb/negf.jpg,stim_fb/posf.jpg,stim_01/a.jpg,stim_01/b.jpg,2,1,j,4,50,290,14,j,1,0.183290627549,01,03,60.0214814911,PLT_learning_01,B,2014_Mrz_14_1325,P19,
stim_fb/ques.jpg,stim_fb/negf.jpg,stim_fb/posf.jpg,stim_01/d.jpg,stim_01/c.jpg,1,2,f,4,51,291,26,None,0,,01,03,60.0214814911,PLT_learning_01,B,2014_Mrz_14_1325,P19,
stim_fb/ques.jpg,stim_fb/posf.jpg,stim_fb/negf.jpg,stim_01/b.jpg,stim_01/a.jpg,1,1,f,4,52,292,8,None,0,,01,03,60.0214814911,PLT_learning_01,B,2014_Mrz_14_1325,P19,
stim_fb/ques.jpg,stim_fb/negf.jpg,stim_fb/posf.jpg,stim_01/f.jpg,stim_01/e.jpg,1,3,f,4,53,293,45,None,0,,01,03,60.0214814911,PLT_learning_01,B,2014_Mrz_14_1325,P19,
stim_fb/ques.jpg,stim_fb/negf.jpg,stim_fb/posf.jpg,stim_01/d.jpg,stim_01/c.jpg,1,2,f,4,54,294,25,None,0,,01,03,60.0214814911,PLT_learning_01,B,2014_Mrz_14_1325,P19,
stim_fb/ques.jpg,stim_fb/negf.jpg,stim_fb/posf.jpg,stim_01/e.jpg,stim_01/f.jpg,2,3,j,4,55,295,51,j,1,0.783135907489,01,03,60.0214814911,PLT_learning_01,B,2014_Mrz_14_1325,P19,
stim_fb/ques.jpg,stim_fb/negf.jpg,stim_fb/posf.jpg,stim_01/b.jpg,stim_01/a.jpg,1,1,f,4,56,296,4,f,1,0.866413202858,01,03,60.0214814911,PLT_learning_01,B,2014_Mrz_14_1325,P19,
stim_fb/ques.jpg,stim_fb/posf.jpg,stim_fb/negf.jpg,stim_01/e.jpg,stim_01/f.jpg,2,3,j,4,57,297,56,None,0,,01,03,60.0214814911,PLT_learning_01,B,2014_Mrz_14_1325,P19,
stim_fb/ques.jpg,stim_fb/negf.jpg,stim_fb/posf.jpg,stim_01/b.jpg,stim_01/a.jpg,1,1,f,4,58,298,3,None,0,,01,03,60.0214814911,PLT_learning_01,B,2014_Mrz_14_1325,P19,
stim_fb/ques.jpg,stim_fb/posf.jpg,stim_fb/negf.jpg,stim_01/e.jpg,stim_01/f.jpg,2,3,j,4,59,299,59,None,0,,01,03,60.0214814911,PLT_learning_01,B,2014_Mrz_14_1325,P19,
stim_fb/ques.jpg,stim_fb/negf.jpg,stim_fb/posf.jpg,stim_01/d.jpg,stim_01/c.jpg,1,2,f,5,0,300,23,None,0,,01,03,60.0214814911,PLT_learning_01,B,2014_Mrz_14_1325,P19,
stim_fb/ques.jpg,stim_fb/negf.jpg,stim_fb/posf.jpg,stim_01/c.jpg,stim_01/d.jpg,2,2,j,5,1,301,34,j,1,1.24961758176,01,03,60.0214814911,PLT_learning_01,B,2014_Mrz_14_1325,P19,
stim_fb/ques.jpg,stim_fb/negf.jpg,stim_fb/posf.jpg,stim_01/c.jpg,stim_01/d.jpg,2,2,j,5,2,302,31,j,1,0.399885093025,01,03,60.0214814911,PLT_learning_01,B,2014_Mrz_14_1325,P19,
stim_fb/ques.jpg,stim_fb/negf.jpg,stim_fb/posf.jpg,stim_01/f.jpg,stim_01/e.jpg,1,3,f,5,3,303,40,f,1,0.566480414131,01,03,60.0214814911,PLT_learning_01,B,2014_Mrz_14_1325,P19,
stim_fb/ques.jpg,stim_fb/negf.jpg,stim_fb/posf.jpg,stim_01/e.jpg,stim_01/f.jpg,2,3,j,5,4,304,50,None,0,,01,03,60.0214814911,PLT_learning_01,B,2014_Mrz_14_1325,P19,
stim_fb/ques.jpg,stim_fb/negf.jpg,stim_fb/posf.jpg,stim_01/b.jpg,stim_01/a.jpg,1,1,f,5,5,305,4,j,0,1.06633846686,01,03,60.0214814911,PLT_learning_01,B,2014_Mrz_14_1325,P19,
stim_fb/ques.jpg,stim_fb/posf.jpg,stim_fb/negf.jpg,stim_01/e.jpg,stim_01/f.jpg,2,3,j,5,6,306,58,None,0,,01,03,60.0214814911,PLT_learning_01,B,2014_Mrz_14_1325,P19,
stim_fb/ques.jpg,stim_fb/posf.jpg,stim_fb/negf.jpg,stim_01/f.jpg,stim_01/e.jpg,1,3,f,5,7,307,48,None,0,,01,03,60.0214814911,PLT_learning_01,B,2014_Mrz_14_1325,P19,
stim_fb/ques.jpg,stim_fb/negf.jpg,stim_fb/posf.jpg,stim_01/f.jpg,stim_01/e.jpg,1,3,f,5,8,308,44,f,1,0.749865209039,01,03,60.0214814911,PLT_learning_01,B,2014_Mrz_14_1325,P19,
stim_fb/ques.jpg,stim_fb/negf.jpg,stim_fb/posf.jpg,stim_01/b.jpg,stim_01/a.jpg,1,1,f,5,9,309,0,f,1,0.849779649102,01,03,60.0214814911,PLT_learning_01,B,2014_Mrz_14_1325,P19,
stim_fb/ques.jpg,stim_fb/posf.jpg,stim_fb/negf.jpg,stim_01/c.jpg,stim_01/d.jpg,2,2,j,5,10,310,39,None,0,,01,03,60.0214814911,PLT_learning_01,B,2014_Mrz_14_1325,P19,
stim_fb/ques.jpg,stim_fb/negf.jpg,stim_fb/posf.jpg,stim_01/b.jpg,stim_01/a.jpg,1,1,f,5,11,311,5,None,0,,01,03,60.0214814911,PLT_learning_01,B,2014_Mrz_14_1325,P19,
stim_fb/ques.jpg,stim_fb/negf.jpg,stim_fb/posf.jpg,stim_01/e.jpg,stim_01/f.jpg,2,3,j,5,12,312,55,f,0,1.38292342568,01,03,60.0214814911,PLT_learning_01,B,2014_Mrz_14_1325,P19,
stim_fb/ques.jpg,stim_fb/posf.jpg,stim_fb/negf.jpg,stim_01/f.jpg,stim_01/e.jpg,1,3,f,5,13,313,46,None,0,,01,03,60.0214814911,PLT_learning_01,B,2014_Mrz_14_1325,P19,
stim_fb/ques.jpg,stim_fb/posf.jpg,stim_fb/negf.jpg,stim_01/a.jpg,stim_01/b.jpg,2,1,j,5,14,314,19,None,0,,01,03,60.0214814911,PLT_learning_01,B,2014_Mrz_14_1325,P19,
stim_fb/ques.jpg,stim_fb/posf.jpg,stim_fb/negf.jpg,stim_01/b.jpg,stim_01/a.jpg,1,1,f,5,15,315,8,None,0,,01,03,60.0214814911,PLT_learning_01,B,2014_Mrz_14_1325,P19,
stim_fb/ques.jpg,stim_fb/negf.jpg,stim_fb/posf.jpg,stim_01/d.jpg,stim_01/c.jpg,1,2,f,5,16,316,24,j,0,0.349897695891,01,03,60.0214814911,PLT_learning_01,B,2014_Mrz_14_1325,P19,
stim_fb/ques.jpg,stim_fb/posf.jpg,stim_fb/negf.jpg,stim_01/d.jpg,stim_01/c.jpg,1,2,f,5,17,317,27,j,0,0.899737810476,01,03,60.0214814911,PLT_learning_01,B,2014_Mrz_14_1325,P19,
stim_fb/ques.jpg,stim_fb/negf.jpg,stim_fb/posf.jpg,stim_01/f.jpg,stim_01/e.jpg,1,3,f,5,18,318,41,None,0,,01,03,60.0214814911,PLT_learning_01,B,2014_Mrz_14_1325,P19,
stim_fb/ques.jpg,stim_fb/negf.jpg,stim_fb/posf.jpg,stim_01/e.jpg,stim_01/f.jpg,2,3,j,5,19,319,52,None,0,,01,03,60.0214814911,PLT_learning_01,B,2014_Mrz_14_1325,P19,
stim_fb/ques.jpg,stim_fb/negf.jpg,stim_fb/posf.jpg,stim_01/f.jpg,stim_01/e.jpg,1,3,f,5,20,320,42,None,0,,01,03,60.0214814911,PLT_learning_01,B,2014_Mrz_14_1325,P19,
stim_fb/ques.jpg,stim_fb/posf.jpg,stim_fb/negf.jpg,stim_01/d.jpg,stim_01/c.jpg,1,2,f,5,21,321,29,None,0,,01,03,60.0214814911,PLT_learning_01,B,2014_Mrz_14_1325,P19,
stim_fb/ques.jpg,stim_fb/negf.jpg,stim_fb/posf.jpg,stim_01/d.jpg,stim_01/c.jpg,1,2,f,5,22,322,20,None,0,,01,03,60.0214814911,PLT_learning_01,B,2014_Mrz_14_1325,P19,
stim_fb/ques.jpg,stim_fb/posf.jpg,stim_fb/negf.jpg,stim_01/d.jpg,stim_01/c.jpg,1,2,f,5,23,323,28,None,0,,01,03,60.0214814911,PLT_learning_01,B,2014_Mrz_14_1325,P19,
stim_fb/ques.jpg,stim_fb/negf.jpg,stim_fb/posf.jpg,stim_01/b.jpg,stim_01/a.jpg,1,1,f,5,24,324,2,None,0,,01,03,60.0214814911,PLT_learning_01,B,2014_Mrz_14_1325,P19,
stim_fb/ques.jpg,stim_fb/negf.jpg,stim_fb/posf.jpg,stim_01/a.jpg,stim_01/b.jpg,2,1,j,5,25,325,12,j,1,1.46615576215,01,03,60.0214814911,PLT_learning_01,B,2014_Mrz_14_1325,P19,
stim_fb/ques.jpg,stim_fb/posf.jpg,stim_fb/negf.jpg,stim_01/e.jpg,stim_01/f.jpg,2,3,j,5,26,326,59,j,1,0.333279417149,01,03,60.0214814911,PLT_learning_01,B,2014_Mrz_14_1325,P19,
stim_fb/ques.jpg,stim_fb/negf.jpg,stim_fb/posf.jpg,stim_01/e.jpg,stim_01/f.jpg,2,3,j,5,27,327,51,None,0,,01,03,60.0214814911,PLT_learning_01,B,2014_Mrz_14_1325,P19,
stim_fb/ques.jpg,stim_fb/negf.jpg,stim_fb/posf.jpg,stim_01/f.jpg,stim_01/e.jpg,1,3,f,5,28,328,45,None,0,,01,03,60.0214814911,PLT_learning_01,B,2014_Mrz_14_1325,P19,
stim_fb/ques.jpg,stim_fb/negf.jpg,stim_fb/posf.jpg,stim_01/b.jpg,stim_01/a.jpg,1,1,f,5,29,329,3,None,0,,01,03,60.0214814911,PLT_learning_01,B,2014_Mrz_14_1325,P19,
stim_fb/ques.jpg,stim_fb/negf.jpg,stim_fb/posf.jpg,stim_01/b.jpg,stim_01/a.jpg,1,1,f,5,30,330,7,None,0,,01,03,60.0214814911,PLT_learning_01,B,2014_Mrz_14_1325,P19,
stim_fb/ques.jpg,stim_fb/negf.jpg,stim_fb/posf.jpg,stim_01/d.jpg,stim_01/c.jpg,1,2,f,5,31,331,25,None,0,,01,03,60.0214814911,PLT_learning_01,B,2014_Mrz_14_1325,P19,
stim_fb/ques.jpg,stim_fb/posf.jpg,stim_fb/negf.jpg,stim_01/e.jpg,stim_01/f.jpg,2,3,j,5,32,332,56,None,0,,01,03,60.0214814911,PLT_learning_01,B,2014_Mrz_14_1325,P19,
stim_fb/ques.jpg,stim_fb/posf.jpg,stim_fb/negf.jpg,stim_01/e.jpg,stim_01/f.jpg,2,3,j,5,33,333,57,None,0,,01,03,60.0214814911,PLT_learning_01,B,2014_Mrz_14_1325,P19,
stim_fb/ques.jpg,stim_fb/negf.jpg,stim_fb/posf.jpg,stim_01/a.jpg,stim_01/b.jpg,2,1,j,5,34,334,17,j,1,0.0167023559884,01,03,60.0214814911,PLT_learning_01,B,2014_Mrz_14_1325,P19,
stim_fb/ques.jpg,stim_fb/negf.jpg,stim_fb/posf.jpg,stim_01/c.jpg,stim_01/d.jpg,2,2,j,5,35,335,30,None,0,,01,03,60.0214814911,PLT_learning_01,B,2014_Mrz_14_1325,P19,
stim_fb/ques.jpg,stim_fb/negf.jpg,stim_fb/posf.jpg,stim_01/b.jpg,stim_01/a.jpg,1,1,f,5,36,336,1,None,0,,01,03,60.0214814911,PLT_learning_01,B,2014_Mrz_14_1325,P19,
stim_fb/ques.jpg,stim_fb/negf.jpg,stim_fb/posf.jpg,stim_01/a.jpg,stim_01/b.jpg,2,1,j,5,37,337,15,None,0,,01,03,60.0214814911,PLT_learning_01,B,2014_Mrz_14_1325,P19,
stim_fb/ques.jpg,stim_fb/negf.jpg,stim_fb/posf.jpg,stim_01/e.jpg,stim_01/f.jpg,2,3,j,5,38,338,53,j,1,0.58313326391,01,03,60.0214814911,PLT_learning_01,B,2014_Mrz_14_1325,P19,
stim_fb/ques.jpg,stim_fb/negf.jpg,stim_fb/posf.jpg,stim_01/e.jpg,stim_01/f.jpg,2,3,j,5,39,339,54,None,0,,01,03,60.0214814911,PLT_learning_01,B,2014_Mrz_14_1325,P19,
stim_fb/ques.jpg,stim_fb/negf.jpg,stim_fb/posf.jpg,stim_01/a.jpg,stim_01/b.jpg,2,1,j,5,40,340,11,j,1,0.683145564524,01,03,60.0214814911,PLT_learning_01,B,2014_Mrz_14_1325,P19,
stim_fb/ques.jpg,stim_fb/negf.jpg,stim_fb/posf.jpg,stim_01/a.jpg,stim_01/b.jpg,2,1,j,5,41,341,10,j,1,0.566517418225,01,03,60.0214814911,PLT_learning_01,B,2014_Mrz_14_1325,P19,
stim_fb/ques.jpg,stim_fb/posf.jpg,stim_fb/negf.jpg,stim_01/f.jpg,stim_01/e.jpg,1,3,f,5,42,342,49,f,1,0.749796704548,01,03,60.0214814911,PLT_learning_01,B,2014_Mrz_14_1325,P19,
stim_fb/ques.jpg,stim_fb/negf.jpg,stim_fb/posf.jpg,stim_01/c.jpg,stim_01/d.jpg,2,2,j,5,43,343,35,f,0,0.883101459758,01,03,60.0214814911,PLT_learning_01,B,2014_Mrz_14_1325,P19,
stim_fb/ques.jpg,stim_fb/posf.jpg,stim_fb/negf.jpg,stim_01/c.jpg,stim_01/d.jpg,2,2,j,5,44,344,38,j,1,0.699815448698,01,03,60.0214814911,PLT_learning_01,B,2014_Mrz_14_1325,P19,
stim_fb/ques.jpg,stim_fb/negf.jpg,stim_fb/posf.jpg,stim_01/d.jpg,stim_01/c.jpg,1,2,f,5,45,345,26,j,0,0.949702702601,01,03,60.0214814911,PLT_learning_01,B,2014_Mrz_14_1325,P19,
stim_fb/ques.jpg,stim_fb/posf.jpg,stim_fb/negf.jpg,stim_01/c.jpg,stim_01/d.jpg,2,2,j,5,46,346,37,None,0,,01,03,60.0214814911,PLT_learning_01,B,2014_Mrz_14_1325,P19,
stim_fb/ques.jpg,stim_fb/negf.jpg,stim_fb/posf.jpg,stim_01/c.jpg,stim_01/d.jpg,2,2,j,5,47,347,33,j,1,0.683153552404,01,03,60.0214814911,PLT_learning_01,B,2014_Mrz_14_1325,P19,
stim_fb/ques.jpg,stim_fb/posf.jpg,stim_fb/negf.jpg,stim_01/f.jpg,stim_01/e.jpg,1,3,f,5,48,348,47,None,0,,01,03,60.0214814911,PLT_learning_01,B,2014_Mrz_14_1325,P19,
stim_fb/ques.jpg,stim_fb/posf.jpg,stim_fb/negf.jpg,stim_01/b.jpg,stim_01/a.jpg,1,1,f,5,49,349,9,f,1,1.28297041763,01,03,60.0214814911,PLT_learning_01,B,2014_Mrz_14_1325,P19,
stim_fb/ques.jpg,stim_fb/negf.jpg,stim_fb/posf.jpg,stim_01/d.jpg,stim_01/c.jpg,1,2,f,5,50,350,21,f,1,1.06637981677,01,03,60.0214814911,PLT_learning_01,B,2014_Mrz_14_1325,P19,
stim_fb/ques.jpg,stim_fb/negf.jpg,stim_fb/posf.jpg,stim_01/a.jpg,stim_01/b.jpg,2,1,j,5,51,351,16,j,1,0.633182573129,01,03,60.0214814911,PLT_learning_01,B,2014_Mrz_14_1325,P19,
stim_fb/ques.jpg,stim_fb/negf.jpg,stim_fb/posf.jpg,stim_01/a.jpg,stim_01/b.jpg,2,1,j,5,52,352,14,j,1,0.599867733823,01,03,60.0214814911,PLT_learning_01,B,2014_Mrz_14_1325,P19,
stim_fb/ques.jpg,stim_fb/negf.jpg,stim_fb/posf.jpg,stim_01/a.jpg,stim_01/b.jpg,2,1,j,5,53,353,13,j,1,0.583187031725,01,03,60.0214814911,PLT_learning_01,B,2014_Mrz_14_1325,P19,
stim_fb/ques.jpg,stim_fb/negf.jpg,stim_fb/posf.jpg,stim_01/f.jpg,stim_01/e.jpg,1,3,f,5,54,354,43,None,0,,01,03,60.0214814911,PLT_learning_01,B,2014_Mrz_14_1325,P19,
stim_fb/ques.jpg,stim_fb/negf.jpg,stim_fb/posf.jpg,stim_01/b.jpg,stim_01/a.jpg,1,1,f,5,55,355,6,f,1,0.849763471841,01,03,60.0214814911,PLT_learning_01,B,2014_Mrz_14_1325,P19,
stim_fb/ques.jpg,stim_fb/negf.jpg,stim_fb/posf.jpg,stim_01/c.jpg,stim_01/d.jpg,2,2,j,5,56,356,32,f,0,0.833103274775,01,03,60.0214814911,PLT_learning_01,B,2014_Mrz_14_1325,P19,
stim_fb/ques.jpg,stim_fb/negf.jpg,stim_fb/posf.jpg,stim_01/d.jpg,stim_01/c.jpg,1,2,f,5,57,357,22,None,0,,01,03,60.0214814911,PLT_learning_01,B,2014_Mrz_14_1325,P19,
stim_fb/ques.jpg,stim_fb/posf.jpg,stim_fb/negf.jpg,stim_01/a.jpg,stim_01/b.jpg,2,1,j,5,58,358,18,j,1,0.583057258753,01,03,60.0214814911,PLT_learning_01,B,2014_Mrz_14_1325,P19,
stim_fb/ques.jpg,stim_fb/negf.jpg,stim_fb/posf.jpg,stim_01/c.jpg,stim_01/d.jpg,2,2,j,5,59,359,36,None,0,,01,03,60.0214814911,PLT_learning_01,B,2014_Mrz_14_1325,P19,
