Fb3,Fb2,Fb1,Symbol2,Symbol1,PosCond,Pair,Correct,trials.thisRepN,trials.thisTrialN,trials.thisN,trials.thisIndex,Response.keys,Response.corr,Response.rt,Version,Session Number,frameRate,expName,StimCondition,date,Participant,
stim_fb/ques.jpg,stim_fb/negf.jpg,stim_fb/posf.jpg,stim_02/d.jpg,stim_02/c.jpg,1,2,f,0,0,0,25,f,1,1.08302285547,02,03,60.0226643876,PLT_learning_02,B,2014_Mrz_12_1326,P21,
stim_fb/ques.jpg,stim_fb/negf.jpg,stim_fb/posf.jpg,stim_02/a.jpg,stim_02/b.jpg,2,1,j,0,1,1,17,f,0,0.816432637349,02,03,60.0226643876,PLT_learning_02,B,2014_Mrz_12_1326,P21,
stim_fb/ques.jpg,stim_fb/posf.jpg,stim_fb/negf.jpg,stim_02/d.jpg,stim_02/c.jpg,1,2,f,0,2,2,29,f,1,1.0496996173,02,03,60.0226643876,PLT_learning_02,B,2014_Mrz_12_1326,P21,
stim_fb/ques.jpg,stim_fb/negf.jpg,stim_fb/posf.jpg,stim_02/a.jpg,stim_02/b.jpg,2,1,j,0,3,3,11,j,1,0.949742603439,02,03,60.0226643876,PLT_learning_02,B,2014_Mrz_12_1326,P21,
stim_fb/ques.jpg,stim_fb/negf.jpg,stim_fb/posf.jpg,stim_02/c.jpg,stim_02/d.jpg,2,2,j,0,4,4,33,j,1,1.0829556289,02,03,60.0226643876,PLT_learning_02,B,2014_Mrz_12_1326,P21,
stim_fb/ques.jpg,stim_fb/negf.jpg,stim_fb/posf.jpg,stim_02/f.jpg,stim_02/e.jpg,1,3,f,0,5,5,45,j,0,0.966449313915,02,03,60.0226643876,PLT_learning_02,B,2014_Mrz_12_1326,P21,
stim_fb/ques.jpg,stim_fb/posf.jpg,stim_fb/negf.jpg,stim_02/e.jpg,stim_02/f.jpg,2,3,j,0,6,6,56,j,1,0.949727289268,02,03,60.0226643876,PLT_learning_02,B,2014_Mrz_12_1326,P21,
stim_fb/ques.jpg,stim_fb/posf.jpg,stim_fb/negf.jpg,stim_02/f.jpg,stim_02/e.jpg,1,3,f,0,7,7,48,j,0,0.516548468056,02,03,60.0226643876,PLT_learning_02,B,2014_Mrz_12_1326,P21,
stim_fb/ques.jpg,stim_fb/negf.jpg,stim_fb/posf.jpg,stim_02/e.jpg,stim_02/f.jpg,2,3,j,0,8,8,54,f,0,0.549853760498,02,03,60.0226643876,PLT_learning_02,B,2014_Mrz_12_1326,P21,
stim_fb/ques.jpg,stim_fb/negf.jpg,stim_fb/posf.jpg,stim_02/b.jpg,stim_02/a.jpg,1,1,f,0,9,9,0,j,0,0.816411356305,02,03,60.0226643876,PLT_learning_02,B,2014_Mrz_12_1326,P21,
stim_fb/ques.jpg,stim_fb/negf.jpg,stim_fb/posf.jpg,stim_02/c.jpg,stim_02/d.jpg,2,2,j,0,10,10,30,j,1,0.98309355268,02,03,60.0226643876,PLT_learning_02,B,2014_Mrz_12_1326,P21,
stim_fb/ques.jpg,stim_fb/negf.jpg,stim_fb/posf.jpg,stim_02/d.jpg,stim_02/c.jpg,1,2,f,0,11,11,22,f,1,0.783137949339,02,03,60.0226643876,PLT_learning_02,B,2014_Mrz_12_1326,P21,
stim_fb/ques.jpg,stim_fb/negf.jpg,stim_fb/posf.jpg,stim_02/a.jpg,stim_02/b.jpg,2,1,j,0,12,12,15,f,0,0.999677966331,02,03,60.0226643876,PLT_learning_02,B,2014_Mrz_12_1326,P21,
stim_fb/ques.jpg,stim_fb/negf.jpg,stim_fb/posf.jpg,stim_02/b.jpg,stim_02/a.jpg,1,1,f,0,13,13,1,j,0,1.16631842467,02,03,60.0226643876,PLT_learning_02,B,2014_Mrz_12_1326,P21,
stim_fb/ques.jpg,stim_fb/negf.jpg,stim_fb/posf.jpg,stim_02/b.jpg,stim_02/a.jpg,1,1,f,0,14,14,4,f,1,0.749789132412,02,03,60.0226643876,PLT_learning_02,B,2014_Mrz_12_1326,P21,
stim_fb/ques.jpg,stim_fb/negf.jpg,stim_fb/posf.jpg,stim_02/e.jpg,stim_02/f.jpg,2,3,j,0,15,15,50,f,0,0.883127191525,02,03,60.0226643876,PLT_learning_02,B,2014_Mrz_12_1326,P21,
stim_fb/ques.jpg,stim_fb/negf.jpg,stim_fb/posf.jpg,stim_02/c.jpg,stim_02/d.jpg,2,2,j,0,16,16,34,j,1,0.816462384493,02,03,60.0226643876,PLT_learning_02,B,2014_Mrz_12_1326,P21,
stim_fb/ques.jpg,stim_fb/negf.jpg,stim_fb/posf.jpg,stim_02/d.jpg,stim_02/c.jpg,1,2,f,0,17,17,20,f,1,0.999678351291,02,03,60.0226643876,PLT_learning_02,B,2014_Mrz_12_1326,P21,
stim_fb/ques.jpg,stim_fb/negf.jpg,stim_fb/posf.jpg,stim_02/d.jpg,stim_02/c.jpg,1,2,f,0,18,18,21,j,0,0.699787472275,02,03,60.0226643876,PLT_learning_02,B,2014_Mrz_12_1326,P21,
stim_fb/ques.jpg,stim_fb/posf.jpg,stim_fb/negf.jpg,stim_02/c.jpg,stim_02/d.jpg,2,2,j,0,19,19,37,j,1,0.849793715837,02,03,60.0226643876,PLT_learning_02,B,2014_Mrz_12_1326,P21,
stim_fb/ques.jpg,stim_fb/negf.jpg,stim_fb/posf.jpg,stim_02/e.jpg,stim_02/f.jpg,2,3,j,0,20,20,51,f,0,1.51624287637,02,03,60.0226643876,PLT_learning_02,B,2014_Mrz_12_1326,P21,
stim_fb/ques.jpg,stim_fb/posf.jpg,stim_fb/negf.jpg,stim_02/a.jpg,stim_02/b.jpg,2,1,j,0,21,21,18,j,1,0.88308584146,02,03,60.0226643876,PLT_learning_02,B,2014_Mrz_12_1326,P21,
stim_fb/ques.jpg,stim_fb/negf.jpg,stim_fb/posf.jpg,stim_02/f.jpg,stim_02/e.jpg,1,3,f,0,22,22,42,f,1,1.14965987925,02,03,60.0226643876,PLT_learning_02,B,2014_Mrz_12_1326,P21,
stim_fb/ques.jpg,stim_fb/negf.jpg,stim_fb/posf.jpg,stim_02/a.jpg,stim_02/b.jpg,2,1,j,0,23,23,16,j,1,0.833112021714,02,03,60.0226643876,PLT_learning_02,B,2014_Mrz_12_1326,P21,
stim_fb/ques.jpg,stim_fb/negf.jpg,stim_fb/posf.jpg,stim_02/f.jpg,stim_02/e.jpg,1,3,f,0,24,24,41,f,1,1.14972278103,02,03,60.0226643876,PLT_learning_02,B,2014_Mrz_12_1326,P21,
stim_fb/ques.jpg,stim_fb/posf.jpg,stim_fb/negf.jpg,stim_02/c.jpg,stim_02/d.jpg,2,2,j,0,25,25,39,j,1,1.19964072451,02,03,60.0226643876,PLT_learning_02,B,2014_Mrz_12_1326,P21,
stim_fb/ques.jpg,stim_fb/posf.jpg,stim_fb/negf.jpg,stim_02/e.jpg,stim_02/f.jpg,2,3,j,0,26,26,59,j,1,1.33295656123,02,03,60.0226643876,PLT_learning_02,B,2014_Mrz_12_1326,P21,
stim_fb/ques.jpg,stim_fb/negf.jpg,stim_fb/posf.jpg,stim_02/a.jpg,stim_02/b.jpg,2,1,j,0,27,27,13,j,1,1.06633946512,02,03,60.0226643876,PLT_learning_02,B,2014_Mrz_12_1326,P21,
stim_fb/ques.jpg,stim_fb/posf.jpg,stim_fb/negf.jpg,stim_02/b.jpg,stim_02/a.jpg,1,1,f,0,28,28,8,f,1,0.966356189803,02,03,60.0226643876,PLT_learning_02,B,2014_Mrz_12_1326,P21,
stim_fb/ques.jpg,stim_fb/negf.jpg,stim_fb/posf.jpg,stim_02/e.jpg,stim_02/f.jpg,2,3,j,0,29,29,53,j,1,0.94975005,02,03,60.0226643876,PLT_learning_02,B,2014_Mrz_12_1326,P21,
stim_fb/ques.jpg,stim_fb/negf.jpg,stim_fb/posf.jpg,stim_02/b.jpg,stim_02/a.jpg,1,1,f,0,30,30,5,f,1,0.883049673311,02,03,60.0226643876,PLT_learning_02,B,2014_Mrz_12_1326,P21,
stim_fb/ques.jpg,stim_fb/posf.jpg,stim_fb/negf.jpg,stim_02/e.jpg,stim_02/f.jpg,2,3,j,0,31,31,58,j,1,0.499885477553,02,03,60.0226643876,PLT_learning_02,B,2014_Mrz_12_1326,P21,
stim_fb/ques.jpg,stim_fb/negf.jpg,stim_fb/posf.jpg,stim_02/a.jpg,stim_02/b.jpg,2,1,j,0,32,32,10,j,1,0.649813120202,02,03,60.0226643876,PLT_learning_02,B,2014_Mrz_12_1326,P21,
stim_fb/ques.jpg,stim_fb/negf.jpg,stim_fb/posf.jpg,stim_02/b.jpg,stim_02/a.jpg,1,1,f,0,33,33,7,f,1,0.949706333035,02,03,60.0226643876,PLT_learning_02,B,2014_Mrz_12_1326,P21,
stim_fb/ques.jpg,stim_fb/posf.jpg,stim_fb/negf.jpg,stim_02/f.jpg,stim_02/e.jpg,1,3,f,0,34,34,46,f,1,0.933048295878,02,03,60.0226643876,PLT_learning_02,B,2014_Mrz_12_1326,P21,
stim_fb/ques.jpg,stim_fb/posf.jpg,stim_fb/negf.jpg,stim_02/d.jpg,stim_02/c.jpg,1,2,f,0,35,35,27,f,1,1.2163242141,02,03,60.0226643876,PLT_learning_02,B,2014_Mrz_12_1326,P21,
stim_fb/ques.jpg,stim_fb/posf.jpg,stim_fb/negf.jpg,stim_02/f.jpg,stim_02/e.jpg,1,3,f,0,36,36,47,f,1,1.43290692852,02,03,60.0226643876,PLT_learning_02,B,2014_Mrz_12_1326,P21,
stim_fb/ques.jpg,stim_fb/negf.jpg,stim_fb/posf.jpg,stim_02/c.jpg,stim_02/d.jpg,2,2,j,0,37,37,36,f,0,1.56620498492,02,03,60.0226643876,PLT_learning_02,B,2014_Mrz_12_1326,P21,
stim_fb/ques.jpg,stim_fb/negf.jpg,stim_fb/posf.jpg,stim_02/c.jpg,stim_02/d.jpg,2,2,j,0,38,38,32,j,1,0.599866668672,02,03,60.0226643876,PLT_learning_02,B,2014_Mrz_12_1326,P21,
stim_fb/ques.jpg,stim_fb/posf.jpg,stim_fb/negf.jpg,stim_02/e.jpg,stim_02/f.jpg,2,3,j,0,39,39,57,j,1,1.06634967256,02,03,60.0226643876,PLT_learning_02,B,2014_Mrz_12_1326,P21,
stim_fb/ques.jpg,stim_fb/negf.jpg,stim_fb/posf.jpg,stim_02/f.jpg,stim_02/e.jpg,1,3,f,0,40,40,40,f,1,0.799772103969,02,03,60.0226643876,PLT_learning_02,B,2014_Mrz_12_1326,P21,
stim_fb/ques.jpg,stim_fb/posf.jpg,stim_fb/negf.jpg,stim_02/a.jpg,stim_02/b.jpg,2,1,j,0,41,41,19,j,1,0.866447106413,02,03,60.0226643876,PLT_learning_02,B,2014_Mrz_12_1326,P21,
stim_fb/ques.jpg,stim_fb/negf.jpg,stim_fb/posf.jpg,stim_02/e.jpg,stim_02/f.jpg,2,3,j,0,42,42,52,j,1,0.583163699521,02,03,60.0226643876,PLT_learning_02,B,2014_Mrz_12_1326,P21,
stim_fb/ques.jpg,stim_fb/negf.jpg,stim_fb/posf.jpg,stim_02/b.jpg,stim_02/a.jpg,1,1,f,0,43,43,2,j,0,0.816426201307,02,03,60.0226643876,PLT_learning_02,B,2014_Mrz_12_1326,P21,
stim_fb/ques.jpg,stim_fb/negf.jpg,stim_fb/posf.jpg,stim_02/d.jpg,stim_02/c.jpg,1,2,f,0,44,44,26,f,1,1.09970900369,02,03,60.0226643876,PLT_learning_02,B,2014_Mrz_12_1326,P21,
stim_fb/ques.jpg,stim_fb/negf.jpg,stim_fb/posf.jpg,stim_02/c.jpg,stim_02/d.jpg,2,2,j,0,45,45,31,j,1,0.766438923016,02,03,60.0226643876,PLT_learning_02,B,2014_Mrz_12_1326,P21,
stim_fb/ques.jpg,stim_fb/posf.jpg,stim_fb/negf.jpg,stim_02/f.jpg,stim_02/e.jpg,1,3,f,0,46,46,49,j,0,1.08297433553,02,03,60.0226643876,PLT_learning_02,B,2014_Mrz_12_1326,P21,
stim_fb/ques.jpg,stim_fb/negf.jpg,stim_fb/posf.jpg,stim_02/c.jpg,stim_02/d.jpg,2,2,j,0,47,47,35,j,1,0.816457449192,02,03,60.0226643876,PLT_learning_02,B,2014_Mrz_12_1326,P21,
stim_fb/ques.jpg,stim_fb/negf.jpg,stim_fb/posf.jpg,stim_02/a.jpg,stim_02/b.jpg,2,1,j,0,48,48,12,j,1,1.03303801926,02,03,60.0226643876,PLT_learning_02,B,2014_Mrz_12_1326,P21,
stim_fb/ques.jpg,stim_fb/negf.jpg,stim_fb/posf.jpg,stim_02/d.jpg,stim_02/c.jpg,1,2,f,0,49,49,24,f,1,0.866271480666,02,03,60.0226643876,PLT_learning_02,B,2014_Mrz_12_1326,P21,
stim_fb/ques.jpg,stim_fb/negf.jpg,stim_fb/posf.jpg,stim_02/a.jpg,stim_02/b.jpg,2,1,j,0,50,50,14,j,1,0.683151233449,02,03,60.0226643876,PLT_learning_02,B,2014_Mrz_12_1326,P21,
stim_fb/ques.jpg,stim_fb/negf.jpg,stim_fb/posf.jpg,stim_02/d.jpg,stim_02/c.jpg,1,2,f,0,51,51,23,f,1,0.899748555274,02,03,60.0226643876,PLT_learning_02,B,2014_Mrz_12_1326,P21,
stim_fb/ques.jpg,stim_fb/negf.jpg,stim_fb/posf.jpg,stim_02/f.jpg,stim_02/e.jpg,1,3,f,0,52,52,44,j,0,0.983057228141,02,03,60.0226643876,PLT_learning_02,B,2014_Mrz_12_1326,P21,
stim_fb/ques.jpg,stim_fb/negf.jpg,stim_fb/posf.jpg,stim_02/b.jpg,stim_02/a.jpg,1,1,f,0,53,53,3,f,1,0.666475400937,02,03,60.0226643876,PLT_learning_02,B,2014_Mrz_12_1326,P21,
stim_fb/ques.jpg,stim_fb/posf.jpg,stim_fb/negf.jpg,stim_02/d.jpg,stim_02/c.jpg,1,2,f,0,54,54,28,f,1,1.14969127149,02,03,60.0226643876,PLT_learning_02,B,2014_Mrz_12_1326,P21,
stim_fb/ques.jpg,stim_fb/negf.jpg,stim_fb/posf.jpg,stim_02/b.jpg,stim_02/a.jpg,1,1,f,0,55,55,6,j,0,0.566478170841,02,03,60.0226643876,PLT_learning_02,B,2014_Mrz_12_1326,P21,
stim_fb/ques.jpg,stim_fb/posf.jpg,stim_fb/negf.jpg,stim_02/c.jpg,stim_02/d.jpg,2,2,j,0,56,56,38,j,1,1.13297597161,02,03,60.0226643876,PLT_learning_02,B,2014_Mrz_12_1326,P21,
stim_fb/ques.jpg,stim_fb/negf.jpg,stim_fb/posf.jpg,stim_02/f.jpg,stim_02/e.jpg,1,3,f,0,57,57,43,f,1,1.31609218878,02,03,60.0226643876,PLT_learning_02,B,2014_Mrz_12_1326,P21,
stim_fb/ques.jpg,stim_fb/negf.jpg,stim_fb/posf.jpg,stim_02/e.jpg,stim_02/f.jpg,2,3,j,0,58,58,55,j,1,1.39956118225,02,03,60.0226643876,PLT_learning_02,B,2014_Mrz_12_1326,P21,
stim_fb/ques.jpg,stim_fb/posf.jpg,stim_fb/negf.jpg,stim_02/b.jpg,stim_02/a.jpg,1,1,f,0,59,59,9,f,1,0.933075564845,02,03,60.0226643876,PLT_learning_02,B,2014_Mrz_12_1326,P21,
stim_fb/ques.jpg,stim_fb/negf.jpg,stim_fb/posf.jpg,stim_02/e.jpg,stim_02/f.jpg,2,3,j,1,0,60,52,f,0,0.766499906016,02,03,60.0226643876,PLT_learning_02,B,2014_Mrz_12_1326,P21,
stim_fb/ques.jpg,stim_fb/negf.jpg,stim_fb/posf.jpg,stim_02/e.jpg,stim_02/f.jpg,2,3,j,1,1,61,54,f,0,0.866441365102,02,03,60.0226643876,PLT_learning_02,B,2014_Mrz_12_1326,P21,
stim_fb/ques.jpg,stim_fb/negf.jpg,stim_fb/posf.jpg,stim_02/a.jpg,stim_02/b.jpg,2,1,j,1,2,62,11,j,1,0.716473301704,02,03,60.0226643876,PLT_learning_02,B,2014_Mrz_12_1326,P21,
stim_fb/ques.jpg,stim_fb/negf.jpg,stim_fb/posf.jpg,stim_02/a.jpg,stim_02/b.jpg,2,1,j,1,3,63,14,j,1,1.48289116022,02,03,60.0226643876,PLT_learning_02,B,2014_Mrz_12_1326,P21,
stim_fb/ques.jpg,stim_fb/negf.jpg,stim_fb/posf.jpg,stim_02/c.jpg,stim_02/d.jpg,2,2,j,1,4,64,35,j,1,1.24964988233,02,03,60.0226643876,PLT_learning_02,B,2014_Mrz_12_1326,P21,
stim_fb/ques.jpg,stim_fb/negf.jpg,stim_fb/posf.jpg,stim_02/c.jpg,stim_02/d.jpg,2,2,j,1,5,65,31,j,1,0.616494504553,02,03,60.0226643876,PLT_learning_02,B,2014_Mrz_12_1326,P21,
stim_fb/ques.jpg,stim_fb/negf.jpg,stim_fb/posf.jpg,stim_02/c.jpg,stim_02/d.jpg,2,2,j,1,6,66,34,j,1,0.483213175841,02,03,60.0226643876,PLT_learning_02,B,2014_Mrz_12_1326,P21,
stim_fb/ques.jpg,stim_fb/negf.jpg,stim_fb/posf.jpg,stim_02/f.jpg,stim_02/e.jpg,1,3,f,1,7,67,45,f,1,0.583188748957,02,03,60.0226643876,PLT_learning_02,B,2014_Mrz_12_1326,P21,
stim_fb/ques.jpg,stim_fb/negf.jpg,stim_fb/posf.jpg,stim_02/a.jpg,stim_02/b.jpg,2,1,j,1,8,68,17,j,1,0.549857366486,02,03,60.0226643876,PLT_learning_02,B,2014_Mrz_12_1326,P21,
stim_fb/ques.jpg,stim_fb/negf.jpg,stim_fb/posf.jpg,stim_02/a.jpg,stim_02/b.jpg,2,1,j,1,9,69,15,j,1,0.583469591958,02,03,60.0226643876,PLT_learning_02,B,2014_Mrz_12_1326,P21,
stim_fb/ques.jpg,stim_fb/negf.jpg,stim_fb/posf.jpg,stim_02/b.jpg,stim_02/a.jpg,1,1,f,1,10,70,5,f,1,0.71633728769,02,03,60.0226643876,PLT_learning_02,B,2014_Mrz_12_1326,P21,
stim_fb/ques.jpg,stim_fb/negf.jpg,stim_fb/posf.jpg,stim_02/b.jpg,stim_02/a.jpg,1,1,f,1,11,71,2,f,1,0.616513051782,02,03,60.0226643876,PLT_learning_02,B,2014_Mrz_12_1326,P21,
stim_fb/ques.jpg,stim_fb/negf.jpg,stim_fb/posf.jpg,stim_02/a.jpg,stim_02/b.jpg,2,1,j,1,12,72,16,j,1,0.48323984331,02,03,60.0226643876,PLT_learning_02,B,2014_Mrz_12_1326,P21,
stim_fb/ques.jpg,stim_fb/posf.jpg,stim_fb/negf.jpg,stim_02/c.jpg,stim_02/d.jpg,2,2,j,1,13,73,39,j,1,0.666485331689,02,03,60.0226643876,PLT_learning_02,B,2014_Mrz_12_1326,P21,
stim_fb/ques.jpg,stim_fb/posf.jpg,stim_fb/negf.jpg,stim_02/f.jpg,stim_02/e.jpg,1,3,f,1,14,74,46,j,0,0.733149564289,02,03,60.0226643876,PLT_learning_02,B,2014_Mrz_12_1326,P21,
stim_fb/ques.jpg,stim_fb/posf.jpg,stim_fb/negf.jpg,stim_02/a.jpg,stim_02/b.jpg,2,1,j,1,15,75,19,j,1,0.749810834505,02,03,60.0226643876,PLT_learning_02,B,2014_Mrz_12_1326,P21,
stim_fb/ques.jpg,stim_fb/negf.jpg,stim_fb/posf.jpg,stim_02/d.jpg,stim_02/c.jpg,1,2,f,1,16,76,25,f,1,0.799790311351,02,03,60.0226643876,PLT_learning_02,B,2014_Mrz_12_1326,P21,
stim_fb/ques.jpg,stim_fb/negf.jpg,stim_fb/posf.jpg,stim_02/d.jpg,stim_02/c.jpg,1,2,f,1,17,77,21,j,0,0.649816031458,02,03,60.0226643876,PLT_learning_02,B,2014_Mrz_12_1326,P21,
stim_fb/ques.jpg,stim_fb/negf.jpg,stim_fb/posf.jpg,stim_02/e.jpg,stim_02/f.jpg,2,3,j,1,18,78,50,j,1,0.78314334178,02,03,60.0226643876,PLT_learning_02,B,2014_Mrz_12_1326,P21,
stim_fb/ques.jpg,stim_fb/negf.jpg,stim_fb/posf.jpg,stim_02/b.jpg,stim_02/a.jpg,1,1,f,1,19,79,1,f,1,0.883084722671,02,03,60.0226643876,PLT_learning_02,B,2014_Mrz_12_1326,P21,
stim_fb/ques.jpg,stim_fb/posf.jpg,stim_fb/negf.jpg,stim_02/f.jpg,stim_02/e.jpg,1,3,f,1,20,80,49,f,1,0.866359828874,02,03,60.0226643876,PLT_learning_02,B,2014_Mrz_12_1326,P21,
stim_fb/ques.jpg,stim_fb/posf.jpg,stim_fb/negf.jpg,stim_02/d.jpg,stim_02/c.jpg,1,2,f,1,21,81,27,f,1,0.916408381892,02,03,60.0226643876,PLT_learning_02,B,2014_Mrz_12_1326,P21,
stim_fb/ques.jpg,stim_fb/negf.jpg,stim_fb/posf.jpg,stim_02/e.jpg,stim_02/f.jpg,2,3,j,1,22,82,55,j,1,0.716446721453,02,03,60.0226643876,PLT_learning_02,B,2014_Mrz_12_1326,P21,
stim_fb/ques.jpg,stim_fb/posf.jpg,stim_fb/negf.jpg,stim_02/e.jpg,stim_02/f.jpg,2,3,j,1,23,83,59,j,1,0.566536101232,02,03,60.0226643876,PLT_learning_02,B,2014_Mrz_12_1326,P21,
stim_fb/ques.jpg,stim_fb/negf.jpg,stim_fb/posf.jpg,stim_02/b.jpg,stim_02/a.jpg,1,1,f,1,24,84,0,f,1,0.88307379343,02,03,60.0226643876,PLT_learning_02,B,2014_Mrz_12_1326,P21,
stim_fb/ques.jpg,stim_fb/negf.jpg,stim_fb/posf.jpg,stim_02/c.jpg,stim_02/d.jpg,2,2,j,1,25,85,36,j,1,0.783131943369,02,03,60.0226643876,PLT_learning_02,B,2014_Mrz_12_1326,P21,
stim_fb/ques.jpg,stim_fb/posf.jpg,stim_fb/negf.jpg,stim_02/f.jpg,stim_02/e.jpg,1,3,f,1,26,86,47,f,1,0.63314654777,02,03,60.0226643876,PLT_learning_02,B,2014_Mrz_12_1326,P21,
stim_fb/ques.jpg,stim_fb/negf.jpg,stim_fb/posf.jpg,stim_02/d.jpg,stim_02/c.jpg,1,2,f,1,27,87,24,f,1,1.34961727205,02,03,60.0226643876,PLT_learning_02,B,2014_Mrz_12_1326,P21,
stim_fb/ques.jpg,stim_fb/negf.jpg,stim_fb/posf.jpg,stim_02/b.jpg,stim_02/a.jpg,1,1,f,1,28,88,4,f,1,1.0829981549,02,03,60.0226643876,PLT_learning_02,B,2014_Mrz_12_1326,P21,
stim_fb/ques.jpg,stim_fb/negf.jpg,stim_fb/posf.jpg,stim_02/b.jpg,stim_02/a.jpg,1,1,f,1,29,89,7,f,1,0.633161994271,02,03,60.0226643876,PLT_learning_02,B,2014_Mrz_12_1326,P21,
stim_fb/ques.jpg,stim_fb/negf.jpg,stim_fb/posf.jpg,stim_02/f.jpg,stim_02/e.jpg,1,3,f,1,30,90,44,f,1,0.783127768964,02,03,60.0226643876,PLT_learning_02,B,2014_Mrz_12_1326,P21,
stim_fb/ques.jpg,stim_fb/posf.jpg,stim_fb/negf.jpg,stim_02/e.jpg,stim_02/f.jpg,2,3,j,1,31,91,56,j,1,0.949732341862,02,03,60.0226643876,PLT_learning_02,B,2014_Mrz_12_1326,P21,
stim_fb/ques.jpg,stim_fb/negf.jpg,stim_fb/posf.jpg,stim_02/a.jpg,stim_02/b.jpg,2,1,j,1,32,92,13,j,1,1.1996620266,02,03,60.0226643876,PLT_learning_02,B,2014_Mrz_12_1326,P21,
stim_fb/ques.jpg,stim_fb/negf.jpg,stim_fb/posf.jpg,stim_02/a.jpg,stim_02/b.jpg,2,1,j,1,33,93,10,f,0,0.566527403553,02,03,60.0226643876,PLT_learning_02,B,2014_Mrz_12_1326,P21,
stim_fb/ques.jpg,stim_fb/posf.jpg,stim_fb/negf.jpg,stim_02/b.jpg,stim_02/a.jpg,1,1,f,1,34,94,9,f,1,0.933070193457,02,03,60.0226643876,PLT_learning_02,B,2014_Mrz_12_1326,P21,
stim_fb/ques.jpg,stim_fb/posf.jpg,stim_fb/negf.jpg,stim_02/f.jpg,stim_02/e.jpg,1,3,f,1,35,95,48,f,1,0.683145062067,02,03,60.0226643876,PLT_learning_02,B,2014_Mrz_12_1326,P21,
stim_fb/ques.jpg,stim_fb/negf.jpg,stim_fb/posf.jpg,stim_02/c.jpg,stim_02/d.jpg,2,2,j,1,36,96,33,j,1,0.799795760934,02,03,60.0226643876,PLT_learning_02,B,2014_Mrz_12_1326,P21,
stim_fb/ques.jpg,stim_fb/negf.jpg,stim_fb/posf.jpg,stim_02/c.jpg,stim_02/d.jpg,2,2,j,1,37,97,32,j,1,1.3995720754,02,03,60.0226643876,PLT_learning_02,B,2014_Mrz_12_1326,P21,
stim_fb/ques.jpg,stim_fb/negf.jpg,stim_fb/posf.jpg,stim_02/d.jpg,stim_02/c.jpg,1,2,f,1,38,98,20,f,1,0.949701725551,02,03,60.0226643876,PLT_learning_02,B,2014_Mrz_12_1326,P21,
stim_fb/ques.jpg,stim_fb/posf.jpg,stim_fb/negf.jpg,stim_02/b.jpg,stim_02/a.jpg,1,1,f,1,39,99,8,f,1,1.21631397057,02,03,60.0226643876,PLT_learning_02,B,2014_Mrz_12_1326,P21,
stim_fb/ques.jpg,stim_fb/posf.jpg,stim_fb/negf.jpg,stim_02/d.jpg,stim_02/c.jpg,1,2,f,1,40,100,29,f,1,0.816460763453,02,03,60.0226643876,PLT_learning_02,B,2014_Mrz_12_1326,P21,
stim_fb/ques.jpg,stim_fb/negf.jpg,stim_fb/posf.jpg,stim_02/b.jpg,stim_02/a.jpg,1,1,f,1,41,101,3,f,1,1.08302954715,02,03,60.0226643876,PLT_learning_02,B,2014_Mrz_12_1326,P21,
stim_fb/ques.jpg,stim_fb/negf.jpg,stim_fb/posf.jpg,stim_02/f.jpg,stim_02/e.jpg,1,3,f,1,42,102,40,f,1,0.749806239051,02,03,60.0226643876,PLT_learning_02,B,2014_Mrz_12_1326,P21,
stim_fb/ques.jpg,stim_fb/negf.jpg,stim_fb/posf.jpg,stim_02/c.jpg,stim_02/d.jpg,2,2,j,1,43,103,30,j,1,0.799781300892,02,03,60.0226643876,PLT_learning_02,B,2014_Mrz_12_1326,P21,
stim_fb/ques.jpg,stim_fb/negf.jpg,stim_fb/posf.jpg,stim_02/f.jpg,stim_02/e.jpg,1,3,f,1,44,104,41,f,1,0.999748392869,02,03,60.0226643876,PLT_learning_02,B,2014_Mrz_12_1326,P21,
stim_fb/ques.jpg,stim_fb/negf.jpg,stim_fb/posf.jpg,stim_02/d.jpg,stim_02/c.jpg,1,2,f,1,45,105,26,f,1,0.899757890542,02,03,60.0226643876,PLT_learning_02,B,2014_Mrz_12_1326,P21,
stim_fb/ques.jpg,stim_fb/negf.jpg,stim_fb/posf.jpg,stim_02/e.jpg,stim_02/f.jpg,2,3,j,1,46,106,51,j,1,0.633039288426,02,03,60.0226643876,PLT_learning_02,B,2014_Mrz_12_1326,P21,
stim_fb/ques.jpg,stim_fb/negf.jpg,stim_fb/posf.jpg,stim_02/f.jpg,stim_02/e.jpg,1,3,f,1,47,107,43,f,1,0.61648700085,02,03,60.0226643876,PLT_learning_02,B,2014_Mrz_12_1326,P21,
stim_fb/ques.jpg,stim_fb/posf.jpg,stim_fb/negf.jpg,stim_02/c.jpg,stim_02/d.jpg,2,2,j,1,48,108,38,j,1,0.783065222066,02,03,60.0226643876,PLT_learning_02,B,2014_Mrz_12_1326,P21,
stim_fb/ques.jpg,stim_fb/negf.jpg,stim_fb/posf.jpg,stim_02/e.jpg,stim_02/f.jpg,2,3,j,1,49,109,53,j,1,0.733133979444,02,03,60.0226643876,PLT_learning_02,B,2014_Mrz_12_1326,P21,
stim_fb/ques.jpg,stim_fb/posf.jpg,stim_fb/negf.jpg,stim_02/c.jpg,stim_02/d.jpg,2,2,j,1,50,110,37,j,1,1.03296452809,02,03,60.0226643876,PLT_learning_02,B,2014_Mrz_12_1326,P21,
stim_fb/ques.jpg,stim_fb/posf.jpg,stim_fb/negf.jpg,stim_02/a.jpg,stim_02/b.jpg,2,1,j,1,51,111,18,j,1,0.999777036263,02,03,60.0226643876,PLT_learning_02,B,2014_Mrz_12_1326,P21,
stim_fb/ques.jpg,stim_fb/negf.jpg,stim_fb/posf.jpg,stim_02/a.jpg,stim_02/b.jpg,2,1,j,1,52,112,12,j,1,0.566525815595,02,03,60.0226643876,PLT_learning_02,B,2014_Mrz_12_1326,P21,
stim_fb/ques.jpg,stim_fb/negf.jpg,stim_fb/posf.jpg,stim_02/f.jpg,stim_02/e.jpg,1,3,f,1,53,113,42,f,1,0.649897736107,02,03,60.0226643876,PLT_learning_02,B,2014_Mrz_12_1326,P21,
stim_fb/ques.jpg,stim_fb/negf.jpg,stim_fb/posf.jpg,stim_02/d.jpg,stim_02/c.jpg,1,2,f,1,54,114,23,None,0,,02,03,60.0226643876,PLT_learning_02,B,2014_Mrz_12_1326,P21,
stim_fb/ques.jpg,stim_fb/negf.jpg,stim_fb/posf.jpg,stim_02/b.jpg,stim_02/a.jpg,1,1,f,1,55,115,6,f,1,1.09969004444,02,03,60.0226643876,PLT_learning_02,B,2014_Mrz_12_1326,P21,
stim_fb/ques.jpg,stim_fb/negf.jpg,stim_fb/posf.jpg,stim_02/d.jpg,stim_02/c.jpg,1,2,f,1,56,116,22,f,1,1.11630661123,02,03,60.0226643876,PLT_learning_02,B,2014_Mrz_12_1326,P21,
stim_fb/ques.jpg,stim_fb/posf.jpg,stim_fb/negf.jpg,stim_02/e.jpg,stim_02/f.jpg,2,3,j,1,57,117,57,j,1,0.716337501222,02,03,60.0226643876,PLT_learning_02,B,2014_Mrz_12_1326,P21,
stim_fb/ques.jpg,stim_fb/posf.jpg,stim_fb/negf.jpg,stim_02/d.jpg,stim_02/c.jpg,1,2,f,1,58,118,28,f,1,0.599853366516,02,03,60.0226643876,PLT_learning_02,B,2014_Mrz_12_1326,P21,
stim_fb/ques.jpg,stim_fb/posf.jpg,stim_fb/negf.jpg,stim_02/e.jpg,stim_02/f.jpg,2,3,j,1,59,119,58,j,1,0.716467358892,02,03,60.0226643876,PLT_learning_02,B,2014_Mrz_12_1326,P21,
stim_fb/ques.jpg,stim_fb/negf.jpg,stim_fb/posf.jpg,stim_02/a.jpg,stim_02/b.jpg,2,1,j,2,0,120,16,j,1,0.866426270479,02,03,60.0226643876,PLT_learning_02,B,2014_Mrz_12_1326,P21,
stim_fb/ques.jpg,stim_fb/negf.jpg,stim_fb/posf.jpg,stim_02/e.jpg,stim_02/f.jpg,2,3,j,2,1,121,50,j,1,0.749808563846,02,03,60.0226643876,PLT_learning_02,B,2014_Mrz_12_1326,P21,
stim_fb/ques.jpg,stim_fb/negf.jpg,stim_fb/posf.jpg,stim_02/b.jpg,stim_02/a.jpg,1,1,f,2,2,122,0,f,1,1.29961615326,02,03,60.0226643876,PLT_learning_02,B,2014_Mrz_12_1326,P21,
stim_fb/ques.jpg,stim_fb/negf.jpg,stim_fb/posf.jpg,stim_02/c.jpg,stim_02/d.jpg,2,2,j,2,3,123,34,j,1,0.933070181427,02,03,60.0226643876,PLT_learning_02,B,2014_Mrz_12_1326,P21,
stim_fb/ques.jpg,stim_fb/posf.jpg,stim_fb/negf.jpg,stim_02/e.jpg,stim_02/f.jpg,2,3,j,2,4,124,57,j,1,0.683163389749,02,03,60.0226643876,PLT_learning_02,B,2014_Mrz_12_1326,P21,
stim_fb/ques.jpg,stim_fb/negf.jpg,stim_fb/posf.jpg,stim_02/d.jpg,stim_02/c.jpg,1,2,f,2,5,125,24,j,0,0.666481268562,02,03,60.0226643876,PLT_learning_02,B,2014_Mrz_12_1326,P21,
stim_fb/ques.jpg,stim_fb/negf.jpg,stim_fb/posf.jpg,stim_02/a.jpg,stim_02/b.jpg,2,1,j,2,6,126,12,j,1,1.19966473034,02,03,60.0226643876,PLT_learning_02,B,2014_Mrz_12_1326,P21,
stim_fb/ques.jpg,stim_fb/negf.jpg,stim_fb/posf.jpg,stim_02/c.jpg,stim_02/d.jpg,2,2,j,2,7,127,33,j,1,1.13298691589,02,03,60.0226643876,PLT_learning_02,B,2014_Mrz_12_1326,P21,
stim_fb/ques.jpg,stim_fb/posf.jpg,stim_fb/negf.jpg,stim_02/c.jpg,stim_02/d.jpg,2,2,j,2,8,128,37,j,1,0.633165985218,02,03,60.0226643876,PLT_learning_02,B,2014_Mrz_12_1326,P21,
stim_fb/ques.jpg,stim_fb/negf.jpg,stim_fb/posf.jpg,stim_02/f.jpg,stim_02/e.jpg,1,3,f,2,9,129,43,f,1,0.666514369065,02,03,60.0226643876,PLT_learning_02,B,2014_Mrz_12_1326,P21,
stim_fb/ques.jpg,stim_fb/negf.jpg,stim_fb/posf.jpg,stim_02/c.jpg,stim_02/d.jpg,2,2,j,2,10,130,36,j,1,0.766638903467,02,03,60.0226643876,PLT_learning_02,B,2014_Mrz_12_1326,P21,
stim_fb/ques.jpg,stim_fb/posf.jpg,stim_fb/negf.jpg,stim_02/c.jpg,stim_02/d.jpg,2,2,j,2,11,131,39,j,1,0.549863185991,02,03,60.0226643876,PLT_learning_02,B,2014_Mrz_12_1326,P21,
stim_fb/ques.jpg,stim_fb/posf.jpg,stim_fb/negf.jpg,stim_02/a.jpg,stim_02/b.jpg,2,1,j,2,12,132,18,j,1,0.666480579845,02,03,60.0226643876,PLT_learning_02,B,2014_Mrz_12_1326,P21,
stim_fb/ques.jpg,stim_fb/negf.jpg,stim_fb/posf.jpg,stim_02/b.jpg,stim_02/a.jpg,1,1,f,2,13,133,7,f,1,0.982939247073,02,03,60.0226643876,PLT_learning_02,B,2014_Mrz_12_1326,P21,
stim_fb/ques.jpg,stim_fb/negf.jpg,stim_fb/posf.jpg,stim_02/b.jpg,stim_02/a.jpg,1,1,f,2,14,134,6,f,1,1.31628997677,02,03,60.0226643876,PLT_learning_02,B,2014_Mrz_12_1326,P21,
stim_fb/ques.jpg,stim_fb/negf.jpg,stim_fb/posf.jpg,stim_02/b.jpg,stim_02/a.jpg,1,1,f,2,15,135,1,f,1,0.566513111931,02,03,60.0226643876,PLT_learning_02,B,2014_Mrz_12_1326,P21,
stim_fb/ques.jpg,stim_fb/negf.jpg,stim_fb/posf.jpg,stim_02/f.jpg,stim_02/e.jpg,1,3,f,2,16,136,44,f,1,0.733254213126,02,03,60.0226643876,PLT_learning_02,B,2014_Mrz_12_1326,P21,
stim_fb/ques.jpg,stim_fb/negf.jpg,stim_fb/posf.jpg,stim_02/a.jpg,stim_02/b.jpg,2,1,j,2,17,137,10,j,1,1.26629897219,02,03,60.0226643876,PLT_learning_02,B,2014_Mrz_12_1326,P21,
stim_fb/ques.jpg,stim_fb/negf.jpg,stim_fb/posf.jpg,stim_02/e.jpg,stim_02/f.jpg,2,3,j,2,18,138,51,j,1,1.18298518658,02,03,60.0226643876,PLT_learning_02,B,2014_Mrz_12_1326,P21,
stim_fb/ques.jpg,stim_fb/posf.jpg,stim_fb/negf.jpg,stim_02/e.jpg,stim_02/f.jpg,2,3,j,2,19,139,59,j,1,0.933098812791,02,03,60.0226643876,PLT_learning_02,B,2014_Mrz_12_1326,P21,
stim_fb/ques.jpg,stim_fb/negf.jpg,stim_fb/posf.jpg,stim_02/e.jpg,stim_02/f.jpg,2,3,j,2,20,140,52,f,0,0.766468892715,02,03,60.0226643876,PLT_learning_02,B,2014_Mrz_12_1326,P21,
stim_fb/ques.jpg,stim_fb/posf.jpg,stim_fb/negf.jpg,stim_02/f.jpg,stim_02/e.jpg,1,3,f,2,21,141,47,f,1,0.599859050684,02,03,60.0226643876,PLT_learning_02,B,2014_Mrz_12_1326,P21,
stim_fb/ques.jpg,stim_fb/negf.jpg,stim_fb/posf.jpg,stim_02/c.jpg,stim_02/d.jpg,2,2,j,2,22,142,32,j,1,0.849762185247,02,03,60.0226643876,PLT_learning_02,B,2014_Mrz_12_1326,P21,
stim_fb/ques.jpg,stim_fb/negf.jpg,stim_fb/posf.jpg,stim_02/a.jpg,stim_02/b.jpg,2,1,j,2,23,143,13,j,1,0.616563854407,02,03,60.0226643876,PLT_learning_02,B,2014_Mrz_12_1326,P21,
stim_fb/ques.jpg,stim_fb/posf.jpg,stim_fb/negf.jpg,stim_02/f.jpg,stim_02/e.jpg,1,3,f,2,24,144,46,f,1,0.749757397313,02,03,60.0226643876,PLT_learning_02,B,2014_Mrz_12_1326,P21,
stim_fb/ques.jpg,stim_fb/negf.jpg,stim_fb/posf.jpg,stim_02/f.jpg,stim_02/e.jpg,1,3,f,2,25,145,42,f,1,0.849784988083,02,03,60.0226643876,PLT_learning_02,B,2014_Mrz_12_1326,P21,
stim_fb/ques.jpg,stim_fb/negf.jpg,stim_fb/posf.jpg,stim_02/c.jpg,stim_02/d.jpg,2,2,j,2,26,146,30,j,1,0.73315636123,02,03,60.0226643876,PLT_learning_02,B,2014_Mrz_12_1326,P21,
stim_fb/ques.jpg,stim_fb/negf.jpg,stim_fb/posf.jpg,stim_02/d.jpg,stim_02/c.jpg,1,2,f,2,27,147,20,f,1,0.766479599401,02,03,60.0226643876,PLT_learning_02,B,2014_Mrz_12_1326,P21,
stim_fb/ques.jpg,stim_fb/negf.jpg,stim_fb/posf.jpg,stim_02/b.jpg,stim_02/a.jpg,1,1,f,2,28,148,3,f,1,0.783106403711,02,03,60.0226643876,PLT_learning_02,B,2014_Mrz_12_1326,P21,
stim_fb/ques.jpg,stim_fb/posf.jpg,stim_fb/negf.jpg,stim_02/d.jpg,stim_02/c.jpg,1,2,f,2,29,149,27,f,1,0.933053210126,02,03,60.0226643876,PLT_learning_02,B,2014_Mrz_12_1326,P21,
stim_fb/ques.jpg,stim_fb/negf.jpg,stim_fb/posf.jpg,stim_02/b.jpg,stim_02/a.jpg,1,1,f,2,30,150,2,f,1,0.749810557815,02,03,60.0226643876,PLT_learning_02,B,2014_Mrz_12_1326,P21,
stim_fb/ques.jpg,stim_fb/negf.jpg,stim_fb/posf.jpg,stim_02/c.jpg,stim_02/d.jpg,2,2,j,2,31,151,31,f,0,0.71645358456,02,03,60.0226643876,PLT_learning_02,B,2014_Mrz_12_1326,P21,
stim_fb/ques.jpg,stim_fb/posf.jpg,stim_fb/negf.jpg,stim_02/b.jpg,stim_02/a.jpg,1,1,f,2,32,152,8,f,1,0.549879880602,02,03,60.0226643876,PLT_learning_02,B,2014_Mrz_12_1326,P21,
stim_fb/ques.jpg,stim_fb/posf.jpg,stim_fb/negf.jpg,stim_02/b.jpg,stim_02/a.jpg,1,1,f,2,33,153,9,f,1,0.533213242006,02,03,60.0226643876,PLT_learning_02,B,2014_Mrz_12_1326,P21,
stim_fb/ques.jpg,stim_fb/posf.jpg,stim_fb/negf.jpg,stim_02/a.jpg,stim_02/b.jpg,2,1,j,2,34,154,19,j,1,0.61652823663,02,03,60.0226643876,PLT_learning_02,B,2014_Mrz_12_1326,P21,
stim_fb/ques.jpg,stim_fb/posf.jpg,stim_fb/negf.jpg,stim_02/f.jpg,stim_02/e.jpg,1,3,f,2,35,155,48,f,1,1.5661981128,02,03,60.0226643876,PLT_learning_02,B,2014_Mrz_12_1326,P21,
stim_fb/ques.jpg,stim_fb/negf.jpg,stim_fb/posf.jpg,stim_02/a.jpg,stim_02/b.jpg,2,1,j,2,36,156,14,j,1,0.899743785385,02,03,60.0226643876,PLT_learning_02,B,2014_Mrz_12_1326,P21,
stim_fb/ques.jpg,stim_fb/negf.jpg,stim_fb/posf.jpg,stim_02/d.jpg,stim_02/c.jpg,1,2,f,2,37,157,26,f,1,0.749856987541,02,03,60.0226643876,PLT_learning_02,B,2014_Mrz_12_1326,P21,
stim_fb/ques.jpg,stim_fb/negf.jpg,stim_fb/posf.jpg,stim_02/a.jpg,stim_02/b.jpg,2,1,j,2,38,158,15,j,1,1.26630877362,02,03,60.0226643876,PLT_learning_02,B,2014_Mrz_12_1326,P21,
stim_fb/ques.jpg,stim_fb/negf.jpg,stim_fb/posf.jpg,stim_02/c.jpg,stim_02/d.jpg,2,2,j,2,39,159,35,j,1,1.03304859963,02,03,60.0226643876,PLT_learning_02,B,2014_Mrz_12_1326,P21,
stim_fb/ques.jpg,stim_fb/negf.jpg,stim_fb/posf.jpg,stim_02/a.jpg,stim_02/b.jpg,2,1,j,2,40,160,17,f,0,0.666494408313,02,03,60.0226643876,PLT_learning_02,B,2014_Mrz_12_1326,P21,
stim_fb/ques.jpg,stim_fb/negf.jpg,stim_fb/posf.jpg,stim_02/f.jpg,stim_02/e.jpg,1,3,f,2,41,161,41,f,1,1.5328955662,02,03,60.0226643876,PLT_learning_02,B,2014_Mrz_12_1326,P21,
stim_fb/ques.jpg,stim_fb/negf.jpg,stim_fb/posf.jpg,stim_02/a.jpg,stim_02/b.jpg,2,1,j,2,42,162,11,j,1,0.699863552906,02,03,60.0226643876,PLT_learning_02,B,2014_Mrz_12_1326,P21,
stim_fb/ques.jpg,stim_fb/posf.jpg,stim_fb/negf.jpg,stim_02/e.jpg,stim_02/f.jpg,2,3,j,2,43,163,58,j,1,0.649860199547,02,03,60.0226643876,PLT_learning_02,B,2014_Mrz_12_1326,P21,
stim_fb/ques.jpg,stim_fb/posf.jpg,stim_fb/negf.jpg,stim_02/c.jpg,stim_02/d.jpg,2,2,j,2,44,164,38,j,1,0.899738585424,02,03,60.0226643876,PLT_learning_02,B,2014_Mrz_12_1326,P21,
stim_fb/ques.jpg,stim_fb/posf.jpg,stim_fb/negf.jpg,stim_02/d.jpg,stim_02/c.jpg,1,2,f,2,45,165,28,f,1,0.749841050819,02,03,60.0226643876,PLT_learning_02,B,2014_Mrz_12_1326,P21,
stim_fb/ques.jpg,stim_fb/negf.jpg,stim_fb/posf.jpg,stim_02/f.jpg,stim_02/e.jpg,1,3,f,2,46,166,45,f,1,0.599827541146,02,03,60.0226643876,PLT_learning_02,B,2014_Mrz_12_1326,P21,
stim_fb/ques.jpg,stim_fb/negf.jpg,stim_fb/posf.jpg,stim_02/d.jpg,stim_02/c.jpg,1,2,f,2,47,167,21,f,1,0.649846825212,02,03,60.0226643876,PLT_learning_02,B,2014_Mrz_12_1326,P21,
stim_fb/ques.jpg,stim_fb/posf.jpg,stim_fb/negf.jpg,stim_02/f.jpg,stim_02/e.jpg,1,3,f,2,48,168,49,f,1,0.799797664679,02,03,60.0226643876,PLT_learning_02,B,2014_Mrz_12_1326,P21,
stim_fb/ques.jpg,stim_fb/negf.jpg,stim_fb/posf.jpg,stim_02/e.jpg,stim_02/f.jpg,2,3,j,2,49,169,55,None,0,,02,03,60.0226643876,PLT_learning_02,B,2014_Mrz_12_1326,P21,
stim_fb/ques.jpg,stim_fb/posf.jpg,stim_fb/negf.jpg,stim_02/e.jpg,stim_02/f.jpg,2,3,j,2,50,170,56,j,1,0.533234649364,02,03,60.0226643876,PLT_learning_02,B,2014_Mrz_12_1326,P21,
stim_fb/ques.jpg,stim_fb/negf.jpg,stim_fb/posf.jpg,stim_02/b.jpg,stim_02/a.jpg,1,1,f,2,51,171,5,f,1,0.699773180653,02,03,60.0226643876,PLT_learning_02,B,2014_Mrz_12_1326,P21,
stim_fb/ques.jpg,stim_fb/negf.jpg,stim_fb/posf.jpg,stim_02/e.jpg,stim_02/f.jpg,2,3,j,2,52,172,54,f,0,0.633193293284,02,03,60.0226643876,PLT_learning_02,B,2014_Mrz_12_1326,P21,
stim_fb/ques.jpg,stim_fb/posf.jpg,stim_fb/negf.jpg,stim_02/d.jpg,stim_02/c.jpg,1,2,f,2,53,173,29,f,1,0.749786245216,02,03,60.0226643876,PLT_learning_02,B,2014_Mrz_12_1326,P21,
stim_fb/ques.jpg,stim_fb/negf.jpg,stim_fb/posf.jpg,stim_02/d.jpg,stim_02/c.jpg,1,2,f,2,54,174,23,f,1,0.633165564169,02,03,60.0226643876,PLT_learning_02,B,2014_Mrz_12_1326,P21,
stim_fb/ques.jpg,stim_fb/negf.jpg,stim_fb/posf.jpg,stim_02/e.jpg,stim_02/f.jpg,2,3,j,2,55,175,53,j,1,0.799799766919,02,03,60.0226643876,PLT_learning_02,B,2014_Mrz_12_1326,P21,
stim_fb/ques.jpg,stim_fb/negf.jpg,stim_fb/posf.jpg,stim_02/b.jpg,stim_02/a.jpg,1,1,f,2,56,176,4,f,1,0.916441031271,02,03,60.0226643876,PLT_learning_02,B,2014_Mrz_12_1326,P21,
stim_fb/ques.jpg,stim_fb/negf.jpg,stim_fb/posf.jpg,stim_02/f.jpg,stim_02/e.jpg,1,3,f,2,57,177,40,f,1,1.09967894978,02,03,60.0226643876,PLT_learning_02,B,2014_Mrz_12_1326,P21,
stim_fb/ques.jpg,stim_fb/negf.jpg,stim_fb/posf.jpg,stim_02/d.jpg,stim_02/c.jpg,1,2,f,2,58,178,22,f,1,0.849662949903,02,03,60.0226643876,PLT_learning_02,B,2014_Mrz_12_1326,P21,
stim_fb/ques.jpg,stim_fb/negf.jpg,stim_fb/posf.jpg,stim_02/d.jpg,stim_02/c.jpg,1,2,f,2,59,179,25,f,1,1.16634667409,02,03,60.0226643876,PLT_learning_02,B,2014_Mrz_12_1326,P21,
stim_fb/ques.jpg,stim_fb/negf.jpg,stim_fb/posf.jpg,stim_02/f.jpg,stim_02/e.jpg,1,3,f,3,0,180,42,f,1,0.616480023459,02,03,60.0226643876,PLT_learning_02,B,2014_Mrz_12_1326,P21,
stim_fb/ques.jpg,stim_fb/negf.jpg,stim_fb/posf.jpg,stim_02/f.jpg,stim_02/e.jpg,1,3,f,3,1,181,41,f,1,0.583186971526,02,03,60.0226643876,PLT_learning_02,B,2014_Mrz_12_1326,P21,
stim_fb/ques.jpg,stim_fb/posf.jpg,stim_fb/negf.jpg,stim_02/a.jpg,stim_02/b.jpg,2,1,j,3,2,182,18,j,1,0.799805390937,02,03,60.0226643876,PLT_learning_02,B,2014_Mrz_12_1326,P21,
stim_fb/ques.jpg,stim_fb/negf.jpg,stim_fb/posf.jpg,stim_02/d.jpg,stim_02/c.jpg,1,2,f,3,3,183,23,f,1,0.666478059563,02,03,60.0226643876,PLT_learning_02,B,2014_Mrz_12_1326,P21,
stim_fb/ques.jpg,stim_fb/negf.jpg,stim_fb/posf.jpg,stim_02/a.jpg,stim_02/b.jpg,2,1,j,3,4,184,12,j,1,1.34962208104,02,03,60.0226643876,PLT_learning_02,B,2014_Mrz_12_1326,P21,
stim_fb/ques.jpg,stim_fb/negf.jpg,stim_fb/posf.jpg,stim_02/d.jpg,stim_02/c.jpg,1,2,f,3,5,185,20,f,1,0.633162030361,02,03,60.0226643876,PLT_learning_02,B,2014_Mrz_12_1326,P21,
stim_fb/ques.jpg,stim_fb/negf.jpg,stim_fb/posf.jpg,stim_02/e.jpg,stim_02/f.jpg,2,3,j,3,6,186,54,j,1,0.766461370967,02,03,60.0226643876,PLT_learning_02,B,2014_Mrz_12_1326,P21,
stim_fb/ques.jpg,stim_fb/posf.jpg,stim_fb/negf.jpg,stim_02/d.jpg,stim_02/c.jpg,1,2,f,3,7,187,28,j,0,1.08301937279,02,03,60.0226643876,PLT_learning_02,B,2014_Mrz_12_1326,P21,
stim_fb/ques.jpg,stim_fb/negf.jpg,stim_fb/posf.jpg,stim_02/a.jpg,stim_02/b.jpg,2,1,j,3,8,188,13,j,1,0.816449608649,02,03,60.0226643876,PLT_learning_02,B,2014_Mrz_12_1326,P21,
stim_fb/ques.jpg,stim_fb/negf.jpg,stim_fb/posf.jpg,stim_02/c.jpg,stim_02/d.jpg,2,2,j,3,9,189,35,j,1,1.03303188397,02,03,60.0226643876,PLT_learning_02,B,2014_Mrz_12_1326,P21,
stim_fb/ques.jpg,stim_fb/posf.jpg,stim_fb/negf.jpg,stim_02/b.jpg,stim_02/a.jpg,1,1,f,3,10,190,8,f,1,0.799829607296,02,03,60.0226643876,PLT_learning_02,B,2014_Mrz_12_1326,P21,
stim_fb/ques.jpg,stim_fb/negf.jpg,stim_fb/posf.jpg,stim_02/b.jpg,stim_02/a.jpg,1,1,f,3,11,191,4,f,1,0.566552837949,02,03,60.0226643876,PLT_learning_02,B,2014_Mrz_12_1326,P21,
stim_fb/ques.jpg,stim_fb/negf.jpg,stim_fb/posf.jpg,stim_02/b.jpg,stim_02/a.jpg,1,1,f,3,12,192,7,f,1,0.633162568703,02,03,60.0226643876,PLT_learning_02,B,2014_Mrz_12_1326,P21,
stim_fb/ques.jpg,stim_fb/posf.jpg,stim_fb/negf.jpg,stim_02/d.jpg,stim_02/c.jpg,1,2,f,3,13,193,29,None,0,,02,03,60.0226643876,PLT_learning_02,B,2014_Mrz_12_1326,P21,
stim_fb/ques.jpg,stim_fb/negf.jpg,stim_fb/posf.jpg,stim_02/d.jpg,stim_02/c.jpg,1,2,f,3,14,194,22,f,1,0.533172725017,02,03,60.0226643876,PLT_learning_02,B,2014_Mrz_12_1326,P21,
stim_fb/ques.jpg,stim_fb/negf.jpg,stim_fb/posf.jpg,stim_02/b.jpg,stim_02/a.jpg,1,1,f,3,15,195,2,f,1,0.733123928392,02,03,60.0226643876,PLT_learning_02,B,2014_Mrz_12_1326,P21,
stim_fb/ques.jpg,stim_fb/negf.jpg,stim_fb/posf.jpg,stim_02/b.jpg,stim_02/a.jpg,1,1,f,3,16,196,0,f,1,0.516540534282,02,03,60.0226643876,PLT_learning_02,B,2014_Mrz_12_1326,P21,
stim_fb/ques.jpg,stim_fb/negf.jpg,stim_fb/posf.jpg,stim_02/a.jpg,stim_02/b.jpg,2,1,j,3,17,197,11,f,0,0.599795929354,02,03,60.0226643876,PLT_learning_02,B,2014_Mrz_12_1326,P21,
stim_fb/ques.jpg,stim_fb/posf.jpg,stim_fb/negf.jpg,stim_02/f.jpg,stim_02/e.jpg,1,3,f,3,18,198,49,f,1,0.983022900579,02,03,60.0226643876,PLT_learning_02,B,2014_Mrz_12_1326,P21,
stim_fb/ques.jpg,stim_fb/posf.jpg,stim_fb/negf.jpg,stim_02/e.jpg,stim_02/f.jpg,2,3,j,3,19,199,59,f,0,0.999708206705,02,03,60.0226643876,PLT_learning_02,B,2014_Mrz_12_1326,P21,
stim_fb/ques.jpg,stim_fb/posf.jpg,stim_fb/negf.jpg,stim_02/e.jpg,stim_02/f.jpg,2,3,j,3,20,200,58,f,0,0.533206854084,02,03,60.0226643876,PLT_learning_02,B,2014_Mrz_12_1326,P21,
stim_fb/ques.jpg,stim_fb/posf.jpg,stim_fb/negf.jpg,stim_02/f.jpg,stim_02/e.jpg,1,3,f,3,21,201,46,j,0,1.16631992541,02,03,60.0226643876,PLT_learning_02,B,2014_Mrz_12_1326,P21,
stim_fb/ques.jpg,stim_fb/negf.jpg,stim_fb/posf.jpg,stim_02/b.jpg,stim_02/a.jpg,1,1,f,3,22,202,5,f,1,1.16630286088,02,03,60.0226643876,PLT_learning_02,B,2014_Mrz_12_1326,P21,
stim_fb/ques.jpg,stim_fb/negf.jpg,stim_fb/posf.jpg,stim_02/c.jpg,stim_02/d.jpg,2,2,j,3,23,203,30,j,1,1.19968830911,02,03,60.0226643876,PLT_learning_02,B,2014_Mrz_12_1326,P21,
stim_fb/ques.jpg,stim_fb/negf.jpg,stim_fb/posf.jpg,stim_02/a.jpg,stim_02/b.jpg,2,1,j,3,24,204,14,j,1,0.766449136473,02,03,60.0226643876,PLT_learning_02,B,2014_Mrz_12_1326,P21,
stim_fb/ques.jpg,stim_fb/negf.jpg,stim_fb/posf.jpg,stim_02/e.jpg,stim_02/f.jpg,2,3,j,3,25,205,55,j,1,0.916419632935,02,03,60.0226643876,PLT_learning_02,B,2014_Mrz_12_1326,P21,
stim_fb/ques.jpg,stim_fb/negf.jpg,stim_fb/posf.jpg,stim_02/c.jpg,stim_02/d.jpg,2,2,j,3,26,206,31,j,1,0.783124018616,02,03,60.0226643876,PLT_learning_02,B,2014_Mrz_12_1326,P21,
stim_fb/ques.jpg,stim_fb/negf.jpg,stim_fb/posf.jpg,stim_02/c.jpg,stim_02/d.jpg,2,2,j,3,27,207,36,j,1,0.699800789468,02,03,60.0226643876,PLT_learning_02,B,2014_Mrz_12_1326,P21,
stim_fb/ques.jpg,stim_fb/negf.jpg,stim_fb/posf.jpg,stim_02/d.jpg,stim_02/c.jpg,1,2,f,3,28,208,25,f,1,0.883087489568,02,03,60.0226643876,PLT_learning_02,B,2014_Mrz_12_1326,P21,
stim_fb/ques.jpg,stim_fb/negf.jpg,stim_fb/posf.jpg,stim_02/f.jpg,stim_02/e.jpg,1,3,f,3,29,209,44,f,1,0.733128033624,02,03,60.0226643876,PLT_learning_02,B,2014_Mrz_12_1326,P21,
stim_fb/ques.jpg,stim_fb/negf.jpg,stim_fb/posf.jpg,stim_02/e.jpg,stim_02/f.jpg,2,3,j,3,30,210,53,j,1,0.783116066797,02,03,60.0226643876,PLT_learning_02,B,2014_Mrz_12_1326,P21,
stim_fb/ques.jpg,stim_fb/negf.jpg,stim_fb/posf.jpg,stim_02/d.jpg,stim_02/c.jpg,1,2,f,3,31,211,26,f,1,0.816440423756,02,03,60.0226643876,PLT_learning_02,B,2014_Mrz_12_1326,P21,
stim_fb/ques.jpg,stim_fb/negf.jpg,stim_fb/posf.jpg,stim_02/f.jpg,stim_02/e.jpg,1,3,f,3,32,212,43,f,1,1.23294917783,02,03,60.0226643876,PLT_learning_02,B,2014_Mrz_12_1326,P21,
stim_fb/ques.jpg,stim_fb/posf.jpg,stim_fb/negf.jpg,stim_02/c.jpg,stim_02/d.jpg,2,2,j,3,33,213,39,j,1,0.983053002609,02,03,60.0226643876,PLT_learning_02,B,2014_Mrz_12_1326,P21,
stim_fb/ques.jpg,stim_fb/posf.jpg,stim_fb/negf.jpg,stim_02/f.jpg,stim_02/e.jpg,1,3,f,3,34,214,48,f,1,0.916367353629,02,03,60.0226643876,PLT_learning_02,B,2014_Mrz_12_1326,P21,
stim_fb/ques.jpg,stim_fb/negf.jpg,stim_fb/posf.jpg,stim_02/e.jpg,stim_02/f.jpg,2,3,j,3,35,215,50,j,1,0.616495190262,02,03,60.0226643876,PLT_learning_02,B,2014_Mrz_12_1326,P21,
stim_fb/ques.jpg,stim_fb/negf.jpg,stim_fb/posf.jpg,stim_02/c.jpg,stim_02/d.jpg,2,2,j,3,36,216,32,j,1,0.966353750724,02,03,60.0226643876,PLT_learning_02,B,2014_Mrz_12_1326,P21,
stim_fb/ques.jpg,stim_fb/negf.jpg,stim_fb/posf.jpg,stim_02/a.jpg,stim_02/b.jpg,2,1,j,3,37,217,17,j,1,0.899773703957,02,03,60.0226643876,PLT_learning_02,B,2014_Mrz_12_1326,P21,
stim_fb/ques.jpg,stim_fb/negf.jpg,stim_fb/posf.jpg,stim_02/b.jpg,stim_02/a.jpg,1,1,f,3,38,218,1,f,1,0.683145732738,02,03,60.0226643876,PLT_learning_02,B,2014_Mrz_12_1326,P21,
stim_fb/ques.jpg,stim_fb/posf.jpg,stim_fb/negf.jpg,stim_02/b.jpg,stim_02/a.jpg,1,1,f,3,39,219,9,f,1,0.89973611627,02,03,60.0226643876,PLT_learning_02,B,2014_Mrz_12_1326,P21,
stim_fb/ques.jpg,stim_fb/posf.jpg,stim_fb/negf.jpg,stim_02/c.jpg,stim_02/d.jpg,2,2,j,3,40,220,38,j,1,0.949580712927,02,03,60.0226643876,PLT_learning_02,B,2014_Mrz_12_1326,P21,
stim_fb/ques.jpg,stim_fb/negf.jpg,stim_fb/posf.jpg,stim_02/e.jpg,stim_02/f.jpg,2,3,j,3,41,221,51,j,1,0.866407551823,02,03,60.0226643876,PLT_learning_02,B,2014_Mrz_12_1326,P21,
stim_fb/ques.jpg,stim_fb/posf.jpg,stim_fb/negf.jpg,stim_02/a.jpg,stim_02/b.jpg,2,1,j,3,42,222,19,j,1,0.633162809302,02,03,60.0226643876,PLT_learning_02,B,2014_Mrz_12_1326,P21,
stim_fb/ques.jpg,stim_fb/negf.jpg,stim_fb/posf.jpg,stim_02/a.jpg,stim_02/b.jpg,2,1,j,3,43,223,15,j,1,0.666533704258,02,03,60.0226643876,PLT_learning_02,B,2014_Mrz_12_1326,P21,
stim_fb/ques.jpg,stim_fb/negf.jpg,stim_fb/posf.jpg,stim_02/d.jpg,stim_02/c.jpg,1,2,f,3,44,224,21,f,1,0.666508471365,02,03,60.0226643876,PLT_learning_02,B,2014_Mrz_12_1326,P21,
stim_fb/ques.jpg,stim_fb/negf.jpg,stim_fb/posf.jpg,stim_02/a.jpg,stim_02/b.jpg,2,1,j,3,45,225,10,j,1,0.566532573439,02,03,60.0226643876,PLT_learning_02,B,2014_Mrz_12_1326,P21,
stim_fb/ques.jpg,stim_fb/negf.jpg,stim_fb/posf.jpg,stim_02/b.jpg,stim_02/a.jpg,1,1,f,3,46,226,3,f,1,1.31630203081,02,03,60.0226643876,PLT_learning_02,B,2014_Mrz_12_1326,P21,
stim_fb/ques.jpg,stim_fb/posf.jpg,stim_fb/negf.jpg,stim_02/e.jpg,stim_02/f.jpg,2,3,j,3,47,227,56,j,1,0.833129188502,02,03,60.0226643876,PLT_learning_02,B,2014_Mrz_12_1326,P21,
stim_fb/ques.jpg,stim_fb/negf.jpg,stim_fb/posf.jpg,stim_02/f.jpg,stim_02/e.jpg,1,3,f,3,48,228,45,f,1,0.716462113819,02,03,60.0226643876,PLT_learning_02,B,2014_Mrz_12_1326,P21,
stim_fb/ques.jpg,stim_fb/negf.jpg,stim_fb/posf.jpg,stim_02/b.jpg,stim_02/a.jpg,1,1,f,3,49,229,6,f,1,0.98306991376,02,03,60.0226643876,PLT_learning_02,B,2014_Mrz_12_1326,P21,
stim_fb/ques.jpg,stim_fb/negf.jpg,stim_fb/posf.jpg,stim_02/c.jpg,stim_02/d.jpg,2,2,j,3,50,230,33,j,1,0.633205085676,02,03,60.0226643876,PLT_learning_02,B,2014_Mrz_12_1326,P21,
stim_fb/ques.jpg,stim_fb/posf.jpg,stim_fb/negf.jpg,stim_02/f.jpg,stim_02/e.jpg,1,3,f,3,51,231,47,f,1,0.649816007398,02,03,60.0226643876,PLT_learning_02,B,2014_Mrz_12_1326,P21,
stim_fb/ques.jpg,stim_fb/posf.jpg,stim_fb/negf.jpg,stim_02/d.jpg,stim_02/c.jpg,1,2,f,3,52,232,27,f,1,1.04972527425,02,03,60.0226643876,PLT_learning_02,B,2014_Mrz_12_1326,P21,
stim_fb/ques.jpg,stim_fb/negf.jpg,stim_fb/posf.jpg,stim_02/e.jpg,stim_02/f.jpg,2,3,j,3,53,233,52,j,1,0.916413924707,02,03,60.0226643876,PLT_learning_02,B,2014_Mrz_12_1326,P21,
stim_fb/ques.jpg,stim_fb/negf.jpg,stim_fb/posf.jpg,stim_02/f.jpg,stim_02/e.jpg,1,3,f,3,54,234,40,f,1,0.599823772754,02,03,60.0226643876,PLT_learning_02,B,2014_Mrz_12_1326,P21,
stim_fb/ques.jpg,stim_fb/negf.jpg,stim_fb/posf.jpg,stim_02/a.jpg,stim_02/b.jpg,2,1,j,3,55,235,16,f,0,0.58317443929,02,03,60.0226643876,PLT_learning_02,B,2014_Mrz_12_1326,P21,
stim_fb/ques.jpg,stim_fb/negf.jpg,stim_fb/posf.jpg,stim_02/c.jpg,stim_02/d.jpg,2,2,j,3,56,236,34,j,1,0.816480005413,02,03,60.0226643876,PLT_learning_02,B,2014_Mrz_12_1326,P21,
stim_fb/ques.jpg,stim_fb/negf.jpg,stim_fb/posf.jpg,stim_02/d.jpg,stim_02/c.jpg,1,2,f,3,57,237,24,f,1,0.583168911512,02,03,60.0226643876,PLT_learning_02,B,2014_Mrz_12_1326,P21,
stim_fb/ques.jpg,stim_fb/posf.jpg,stim_fb/negf.jpg,stim_02/e.jpg,stim_02/f.jpg,2,3,j,3,58,238,57,j,1,0.933061676228,02,03,60.0226643876,PLT_learning_02,B,2014_Mrz_12_1326,P21,
stim_fb/ques.jpg,stim_fb/posf.jpg,stim_fb/negf.jpg,stim_02/c.jpg,stim_02/d.jpg,2,2,j,3,59,239,37,j,1,0.69981290667,02,03,60.0226643876,PLT_learning_02,B,2014_Mrz_12_1326,P21,
stim_fb/ques.jpg,stim_fb/negf.jpg,stim_fb/posf.jpg,stim_02/f.jpg,stim_02/e.jpg,1,3,f,4,0,240,44,f,1,1.59952087879,02,03,60.0226643876,PLT_learning_02,B,2014_Mrz_12_1326,P21,
stim_fb/ques.jpg,stim_fb/negf.jpg,stim_fb/posf.jpg,stim_02/a.jpg,stim_02/b.jpg,2,1,j,4,1,241,12,j,1,0.649829318577,02,03,60.0226643876,PLT_learning_02,B,2014_Mrz_12_1326,P21,
stim_fb/ques.jpg,stim_fb/negf.jpg,stim_fb/posf.jpg,stim_02/a.jpg,stim_02/b.jpg,2,1,j,4,2,242,16,j,1,0.766475752814,02,03,60.0226643876,PLT_learning_02,B,2014_Mrz_12_1326,P21,
stim_fb/ques.jpg,stim_fb/negf.jpg,stim_fb/posf.jpg,stim_02/a.jpg,stim_02/b.jpg,2,1,j,4,3,243,10,j,1,0.766485241465,02,03,60.0226643876,PLT_learning_02,B,2014_Mrz_12_1326,P21,
stim_fb/ques.jpg,stim_fb/posf.jpg,stim_fb/negf.jpg,stim_02/f.jpg,stim_02/e.jpg,1,3,f,4,4,244,48,f,1,0.616466020556,02,03,60.0226643876,PLT_learning_02,B,2014_Mrz_12_1326,P21,
stim_fb/ques.jpg,stim_fb/negf.jpg,stim_fb/posf.jpg,stim_02/d.jpg,stim_02/c.jpg,1,2,f,4,5,245,24,f,1,0.666488342193,02,03,60.0226643876,PLT_learning_02,B,2014_Mrz_12_1326,P21,
stim_fb/ques.jpg,stim_fb/negf.jpg,stim_fb/posf.jpg,stim_02/f.jpg,stim_02/e.jpg,1,3,f,4,6,246,43,f,1,0.699821222397,02,03,60.0226643876,PLT_learning_02,B,2014_Mrz_12_1326,P21,
stim_fb/ques.jpg,stim_fb/negf.jpg,stim_fb/posf.jpg,stim_02/a.jpg,stim_02/b.jpg,2,1,j,4,7,247,11,j,1,0.566524663725,02,03,60.0226643876,PLT_learning_02,B,2014_Mrz_12_1326,P21,
stim_fb/ques.jpg,stim_fb/negf.jpg,stim_fb/posf.jpg,stim_02/e.jpg,stim_02/f.jpg,2,3,j,4,8,248,52,j,1,0.799801493222,02,03,60.0226643876,PLT_learning_02,B,2014_Mrz_12_1326,P21,
stim_fb/ques.jpg,stim_fb/negf.jpg,stim_fb/posf.jpg,stim_02/f.jpg,stim_02/e.jpg,1,3,f,4,9,249,42,f,1,0.699829231359,02,03,60.0226643876,PLT_learning_02,B,2014_Mrz_12_1326,P21,
stim_fb/ques.jpg,stim_fb/negf.jpg,stim_fb/posf.jpg,stim_02/b.jpg,stim_02/a.jpg,1,1,f,4,10,250,1,j,0,0.699826004316,02,03,60.0226643876,PLT_learning_02,B,2014_Mrz_12_1326,P21,
stim_fb/ques.jpg,stim_fb/negf.jpg,stim_fb/posf.jpg,stim_02/c.jpg,stim_02/d.jpg,2,2,j,4,11,251,32,j,1,0.766477328742,02,03,60.0226643876,PLT_learning_02,B,2014_Mrz_12_1326,P21,
stim_fb/ques.jpg,stim_fb/negf.jpg,stim_fb/posf.jpg,stim_02/b.jpg,stim_02/a.jpg,1,1,f,4,12,252,7,f,1,0.983068223547,02,03,60.0226643876,PLT_learning_02,B,2014_Mrz_12_1326,P21,
stim_fb/ques.jpg,stim_fb/negf.jpg,stim_fb/posf.jpg,stim_02/b.jpg,stim_02/a.jpg,1,1,f,4,13,253,4,f,1,0.899682146751,02,03,60.0226643876,PLT_learning_02,B,2014_Mrz_12_1326,P21,
stim_fb/ques.jpg,stim_fb/negf.jpg,stim_fb/posf.jpg,stim_02/b.jpg,stim_02/a.jpg,1,1,f,4,14,254,5,f,1,1.13301702995,02,03,60.0226643876,PLT_learning_02,B,2014_Mrz_12_1326,P21,
stim_fb/ques.jpg,stim_fb/negf.jpg,stim_fb/posf.jpg,stim_02/d.jpg,stim_02/c.jpg,1,2,f,4,15,255,25,f,1,0.699805306727,02,03,60.0226643876,PLT_learning_02,B,2014_Mrz_12_1326,P21,
stim_fb/ques.jpg,stim_fb/negf.jpg,stim_fb/posf.jpg,stim_02/c.jpg,stim_02/d.jpg,2,2,j,4,16,256,31,j,1,0.899745397403,02,03,60.0226643876,PLT_learning_02,B,2014_Mrz_12_1326,P21,
stim_fb/ques.jpg,stim_fb/negf.jpg,stim_fb/posf.jpg,stim_02/c.jpg,stim_02/d.jpg,2,2,j,4,17,257,33,j,1,0.766456261231,02,03,60.0226643876,PLT_learning_02,B,2014_Mrz_12_1326,P21,
stim_fb/ques.jpg,stim_fb/posf.jpg,stim_fb/negf.jpg,stim_02/a.jpg,stim_02/b.jpg,2,1,j,4,18,258,19,j,1,0.999725168984,02,03,60.0226643876,PLT_learning_02,B,2014_Mrz_12_1326,P21,
stim_fb/ques.jpg,stim_fb/negf.jpg,stim_fb/posf.jpg,stim_02/a.jpg,stim_02/b.jpg,2,1,j,4,19,259,15,j,1,1.08303373358,02,03,60.0226643876,PLT_learning_02,B,2014_Mrz_12_1326,P21,
stim_fb/ques.jpg,stim_fb/negf.jpg,stim_fb/posf.jpg,stim_02/f.jpg,stim_02/e.jpg,1,3,f,4,20,260,40,f,1,1.01640327817,02,03,60.0226643876,PLT_learning_02,B,2014_Mrz_12_1326,P21,
stim_fb/ques.jpg,stim_fb/negf.jpg,stim_fb/posf.jpg,stim_02/b.jpg,stim_02/a.jpg,1,1,f,4,21,261,0,j,0,0.883093645913,02,03,60.0226643876,PLT_learning_02,B,2014_Mrz_12_1326,P21,
stim_fb/ques.jpg,stim_fb/negf.jpg,stim_fb/posf.jpg,stim_02/c.jpg,stim_02/d.jpg,2,2,j,4,22,262,36,j,1,0.983087645958,02,03,60.0226643876,PLT_learning_02,B,2014_Mrz_12_1326,P21,
stim_fb/ques.jpg,stim_fb/posf.jpg,stim_fb/negf.jpg,stim_02/d.jpg,stim_02/c.jpg,1,2,f,4,23,263,29,f,1,0.649841959083,02,03,60.0226643876,PLT_learning_02,B,2014_Mrz_12_1326,P21,
stim_fb/ques.jpg,stim_fb/posf.jpg,stim_fb/negf.jpg,stim_02/f.jpg,stim_02/e.jpg,1,3,f,4,24,264,47,f,1,1.18302342088,02,03,60.0226643876,PLT_learning_02,B,2014_Mrz_12_1326,P21,
stim_fb/ques.jpg,stim_fb/negf.jpg,stim_fb/posf.jpg,stim_02/d.jpg,stim_02/c.jpg,1,2,f,4,25,265,26,f,1,1.23296008601,02,03,60.0226643876,PLT_learning_02,B,2014_Mrz_12_1326,P21,
stim_fb/ques.jpg,stim_fb/negf.jpg,stim_fb/posf.jpg,stim_02/d.jpg,stim_02/c.jpg,1,2,f,4,26,266,20,f,1,0.783120175036,02,03,60.0226643876,PLT_learning_02,B,2014_Mrz_12_1326,P21,
stim_fb/ques.jpg,stim_fb/negf.jpg,stim_fb/posf.jpg,stim_02/c.jpg,stim_02/d.jpg,2,2,j,4,27,267,30,f,0,0.716494074481,02,03,60.0226643876,PLT_learning_02,B,2014_Mrz_12_1326,P21,
stim_fb/ques.jpg,stim_fb/posf.jpg,stim_fb/negf.jpg,stim_02/e.jpg,stim_02/f.jpg,2,3,j,4,28,268,58,j,1,0.816470691198,02,03,60.0226643876,PLT_learning_02,B,2014_Mrz_12_1326,P21,
stim_fb/ques.jpg,stim_fb/posf.jpg,stim_fb/negf.jpg,stim_02/d.jpg,stim_02/c.jpg,1,2,f,4,29,269,28,f,1,0.699825893038,02,03,60.0226643876,PLT_learning_02,B,2014_Mrz_12_1326,P21,
stim_fb/ques.jpg,stim_fb/posf.jpg,stim_fb/negf.jpg,stim_02/c.jpg,stim_02/d.jpg,2,2,j,4,30,270,39,j,1,0.716474080646,02,03,60.0226643876,PLT_learning_02,B,2014_Mrz_12_1326,P21,
stim_fb/ques.jpg,stim_fb/negf.jpg,stim_fb/posf.jpg,stim_02/e.jpg,stim_02/f.jpg,2,3,j,4,31,271,50,j,1,0.899765078458,02,03,60.0226643876,PLT_learning_02,B,2014_Mrz_12_1326,P21,
stim_fb/ques.jpg,stim_fb/negf.jpg,stim_fb/posf.jpg,stim_02/c.jpg,stim_02/d.jpg,2,2,j,4,32,272,35,j,1,0.699777764077,02,03,60.0226643876,PLT_learning_02,B,2014_Mrz_12_1326,P21,
stim_fb/ques.jpg,stim_fb/posf.jpg,stim_fb/negf.jpg,stim_02/e.jpg,stim_02/f.jpg,2,3,j,4,33,273,57,j,1,0.833063336366,02,03,60.0226643876,PLT_learning_02,B,2014_Mrz_12_1326,P21,
stim_fb/ques.jpg,stim_fb/negf.jpg,stim_fb/posf.jpg,stim_02/b.jpg,stim_02/a.jpg,1,1,f,4,34,274,6,f,1,0.74980461801,02,03,60.0226643876,PLT_learning_02,B,2014_Mrz_12_1326,P21,
stim_fb/ques.jpg,stim_fb/negf.jpg,stim_fb/posf.jpg,stim_02/a.jpg,stim_02/b.jpg,2,1,j,4,35,275,17,j,1,0.683207236036,02,03,60.0226643876,PLT_learning_02,B,2014_Mrz_12_1326,P21,
stim_fb/ques.jpg,stim_fb/negf.jpg,stim_fb/posf.jpg,stim_02/a.jpg,stim_02/b.jpg,2,1,j,4,36,276,14,j,1,0.816466188976,02,03,60.0226643876,PLT_learning_02,B,2014_Mrz_12_1326,P21,
stim_fb/ques.jpg,stim_fb/posf.jpg,stim_fb/negf.jpg,stim_02/e.jpg,stim_02/f.jpg,2,3,j,4,37,277,56,j,1,0.733157492049,02,03,60.0226643876,PLT_learning_02,B,2014_Mrz_12_1326,P21,
stim_fb/ques.jpg,stim_fb/negf.jpg,stim_fb/posf.jpg,stim_02/e.jpg,stim_02/f.jpg,2,3,j,4,38,278,51,j,1,0.583197371448,02,03,60.0226643876,PLT_learning_02,B,2014_Mrz_12_1326,P21,
stim_fb/ques.jpg,stim_fb/negf.jpg,stim_fb/posf.jpg,stim_02/b.jpg,stim_02/a.jpg,1,1,f,4,39,279,3,f,1,0.799797457162,02,03,60.0226643876,PLT_learning_02,B,2014_Mrz_12_1326,P21,
stim_fb/ques.jpg,stim_fb/negf.jpg,stim_fb/posf.jpg,stim_02/c.jpg,stim_02/d.jpg,2,2,j,4,40,280,34,j,1,0.599845760558,02,03,60.0226643876,PLT_learning_02,B,2014_Mrz_12_1326,P21,
stim_fb/ques.jpg,stim_fb/negf.jpg,stim_fb/posf.jpg,stim_02/e.jpg,stim_02/f.jpg,2,3,j,4,41,281,53,j,1,0.599803938316,02,03,60.0226643876,PLT_learning_02,B,2014_Mrz_12_1326,P21,
stim_fb/ques.jpg,stim_fb/posf.jpg,stim_fb/negf.jpg,stim_02/a.jpg,stim_02/b.jpg,2,1,j,4,42,282,18,j,1,0.583216457019,02,03,60.0226643876,PLT_learning_02,B,2014_Mrz_12_1326,P21,
stim_fb/ques.jpg,stim_fb/posf.jpg,stim_fb/negf.jpg,stim_02/d.jpg,stim_02/c.jpg,1,2,f,4,43,283,27,f,1,0.749793718844,02,03,60.0226643876,PLT_learning_02,B,2014_Mrz_12_1326,P21,
stim_fb/ques.jpg,stim_fb/posf.jpg,stim_fb/negf.jpg,stim_02/e.jpg,stim_02/f.jpg,2,3,j,4,44,284,59,j,1,0.566467870166,02,03,60.0226643876,PLT_learning_02,B,2014_Mrz_12_1326,P21,
stim_fb/ques.jpg,stim_fb/negf.jpg,stim_fb/posf.jpg,stim_02/d.jpg,stim_02/c.jpg,1,2,f,4,45,285,22,f,1,0.666481500139,02,03,60.0226643876,PLT_learning_02,B,2014_Mrz_12_1326,P21,
stim_fb/ques.jpg,stim_fb/negf.jpg,stim_fb/posf.jpg,stim_02/e.jpg,stim_02/f.jpg,2,3,j,4,46,286,55,j,1,0.899755403343,02,03,60.0226643876,PLT_learning_02,B,2014_Mrz_12_1326,P21,
stim_fb/ques.jpg,stim_fb/negf.jpg,stim_fb/posf.jpg,stim_02/d.jpg,stim_02/c.jpg,1,2,f,4,47,287,21,f,1,0.483269816016,02,03,60.0226643876,PLT_learning_02,B,2014_Mrz_12_1326,P21,
stim_fb/ques.jpg,stim_fb/posf.jpg,stim_fb/negf.jpg,stim_02/b.jpg,stim_02/a.jpg,1,1,f,4,48,288,9,f,1,0.783165582214,02,03,60.0226643876,PLT_learning_02,B,2014_Mrz_12_1326,P21,
stim_fb/ques.jpg,stim_fb/negf.jpg,stim_fb/posf.jpg,stim_02/b.jpg,stim_02/a.jpg,1,1,f,4,49,289,2,f,1,0.916387293329,02,03,60.0226643876,PLT_learning_02,B,2014_Mrz_12_1326,P21,
stim_fb/ques.jpg,stim_fb/posf.jpg,stim_fb/negf.jpg,stim_02/f.jpg,stim_02/e.jpg,1,3,f,4,50,290,49,f,1,0.749823345689,02,03,60.0226643876,PLT_learning_02,B,2014_Mrz_12_1326,P21,
stim_fb/ques.jpg,stim_fb/negf.jpg,stim_fb/posf.jpg,stim_02/f.jpg,stim_02/e.jpg,1,3,f,4,51,291,41,f,1,0.883173278396,02,03,60.0226643876,PLT_learning_02,B,2014_Mrz_12_1326,P21,
stim_fb/ques.jpg,stim_fb/posf.jpg,stim_fb/negf.jpg,stim_02/f.jpg,stim_02/e.jpg,1,3,f,4,52,292,46,f,1,0.583193368471,02,03,60.0226643876,PLT_learning_02,B,2014_Mrz_12_1326,P21,
stim_fb/ques.jpg,stim_fb/posf.jpg,stim_fb/negf.jpg,stim_02/c.jpg,stim_02/d.jpg,2,2,j,4,53,293,37,j,1,0.94974358689,02,03,60.0226643876,PLT_learning_02,B,2014_Mrz_12_1326,P21,
stim_fb/ques.jpg,stim_fb/negf.jpg,stim_fb/posf.jpg,stim_02/f.jpg,stim_02/e.jpg,1,3,f,4,54,294,45,f,1,0.749798765423,02,03,60.0226643876,PLT_learning_02,B,2014_Mrz_12_1326,P21,
stim_fb/ques.jpg,stim_fb/negf.jpg,stim_fb/posf.jpg,stim_02/a.jpg,stim_02/b.jpg,2,1,j,4,55,295,13,j,1,0.649844404177,02,03,60.0226643876,PLT_learning_02,B,2014_Mrz_12_1326,P21,
stim_fb/ques.jpg,stim_fb/posf.jpg,stim_fb/negf.jpg,stim_02/b.jpg,stim_02/a.jpg,1,1,f,4,56,296,8,f,1,0.533174325005,02,03,60.0226643876,PLT_learning_02,B,2014_Mrz_12_1326,P21,
stim_fb/ques.jpg,stim_fb/posf.jpg,stim_fb/negf.jpg,stim_02/c.jpg,stim_02/d.jpg,2,2,j,4,57,297,38,f,0,0.6831468004,02,03,60.0226643876,PLT_learning_02,B,2014_Mrz_12_1326,P21,
stim_fb/ques.jpg,stim_fb/negf.jpg,stim_fb/posf.jpg,stim_02/d.jpg,stim_02/c.jpg,1,2,f,4,58,298,23,f,1,0.649831514048,02,03,60.0226643876,PLT_learning_02,B,2014_Mrz_12_1326,P21,
stim_fb/ques.jpg,stim_fb/negf.jpg,stim_fb/posf.jpg,stim_02/e.jpg,stim_02/f.jpg,2,3,j,4,59,299,54,j,1,0.61651825475,02,03,60.0226643876,PLT_learning_02,B,2014_Mrz_12_1326,P21,
stim_fb/ques.jpg,stim_fb/negf.jpg,stim_fb/posf.jpg,stim_02/a.jpg,stim_02/b.jpg,2,1,j,5,0,300,12,None,0,,02,03,60.0226643876,PLT_learning_02,B,2014_Mrz_12_1326,P21,
stim_fb/ques.jpg,stim_fb/negf.jpg,stim_fb/posf.jpg,stim_02/e.jpg,stim_02/f.jpg,2,3,j,5,1,301,51,j,1,0.699816247998,02,03,60.0226643876,PLT_learning_02,B,2014_Mrz_12_1326,P21,
stim_fb/ques.jpg,stim_fb/negf.jpg,stim_fb/posf.jpg,stim_02/a.jpg,stim_02/b.jpg,2,1,j,5,2,302,16,j,1,0.649842464342,02,03,60.0226643876,PLT_learning_02,B,2014_Mrz_12_1326,P21,
stim_fb/ques.jpg,stim_fb/negf.jpg,stim_fb/posf.jpg,stim_02/a.jpg,stim_02/b.jpg,2,1,j,5,3,303,14,j,1,0.88307427463,02,03,60.0226643876,PLT_learning_02,B,2014_Mrz_12_1326,P21,
stim_fb/ques.jpg,stim_fb/posf.jpg,stim_fb/negf.jpg,stim_02/c.jpg,stim_02/d.jpg,2,2,j,5,4,304,39,j,1,0.733446404163,02,03,60.0226643876,PLT_learning_02,B,2014_Mrz_12_1326,P21,
stim_fb/ques.jpg,stim_fb/negf.jpg,stim_fb/posf.jpg,stim_02/d.jpg,stim_02/c.jpg,1,2,f,5,5,305,22,j,0,0.599836157623,02,03,60.0226643876,PLT_learning_02,B,2014_Mrz_12_1326,P21,
stim_fb/ques.jpg,stim_fb/negf.jpg,stim_fb/posf.jpg,stim_02/d.jpg,stim_02/c.jpg,1,2,f,5,6,306,23,f,1,0.516546459049,02,03,60.0226643876,PLT_learning_02,B,2014_Mrz_12_1326,P21,
stim_fb/ques.jpg,stim_fb/negf.jpg,stim_fb/posf.jpg,stim_02/a.jpg,stim_02/b.jpg,2,1,j,5,7,307,17,j,1,0.733140583905,02,03,60.0226643876,PLT_learning_02,B,2014_Mrz_12_1326,P21,
stim_fb/ques.jpg,stim_fb/negf.jpg,stim_fb/posf.jpg,stim_02/b.jpg,stim_02/a.jpg,1,1,f,5,8,308,7,f,1,1.38292176149,02,03,60.0226643876,PLT_learning_02,B,2014_Mrz_12_1326,P21,
stim_fb/ques.jpg,stim_fb/negf.jpg,stim_fb/posf.jpg,stim_02/b.jpg,stim_02/a.jpg,1,1,f,5,9,309,4,f,1,0.983057880768,02,03,60.0226643876,PLT_learning_02,B,2014_Mrz_12_1326,P21,
stim_fb/ques.jpg,stim_fb/negf.jpg,stim_fb/posf.jpg,stim_02/a.jpg,stim_02/b.jpg,2,1,j,5,10,310,10,j,1,1.06635274321,02,03,60.0226643876,PLT_learning_02,B,2014_Mrz_12_1326,P21,
stim_fb/ques.jpg,stim_fb/negf.jpg,stim_fb/posf.jpg,stim_02/f.jpg,stim_02/e.jpg,1,3,f,5,11,311,45,f,1,1.51619050082,02,03,60.0226643876,PLT_learning_02,B,2014_Mrz_12_1326,P21,
stim_fb/ques.jpg,stim_fb/posf.jpg,stim_fb/negf.jpg,stim_02/b.jpg,stim_02/a.jpg,1,1,f,5,12,312,9,f,1,1.11633033737,02,03,60.0226643876,PLT_learning_02,B,2014_Mrz_12_1326,P21,
stim_fb/ques.jpg,stim_fb/negf.jpg,stim_fb/posf.jpg,stim_02/c.jpg,stim_02/d.jpg,2,2,j,5,13,313,33,j,1,0.966402421034,02,03,60.0226643876,PLT_learning_02,B,2014_Mrz_12_1326,P21,
stim_fb/ques.jpg,stim_fb/negf.jpg,stim_fb/posf.jpg,stim_02/d.jpg,stim_02/c.jpg,1,2,f,5,14,314,24,f,1,0.683174532523,02,03,60.0226643876,PLT_learning_02,B,2014_Mrz_12_1326,P21,
stim_fb/ques.jpg,stim_fb/negf.jpg,stim_fb/posf.jpg,stim_02/a.jpg,stim_02/b.jpg,2,1,j,5,15,315,11,j,1,0.616453340952,02,03,60.0226643876,PLT_learning_02,B,2014_Mrz_12_1326,P21,
stim_fb/ques.jpg,stim_fb/posf.jpg,stim_fb/negf.jpg,stim_02/f.jpg,stim_02/e.jpg,1,3,f,5,16,316,48,f,1,0.716465094248,02,03,60.0226643876,PLT_learning_02,B,2014_Mrz_12_1326,P21,
stim_fb/ques.jpg,stim_fb/negf.jpg,stim_fb/posf.jpg,stim_02/f.jpg,stim_02/e.jpg,1,3,f,5,17,317,44,f,1,0.683172273893,02,03,60.0226643876,PLT_learning_02,B,2014_Mrz_12_1326,P21,
stim_fb/ques.jpg,stim_fb/posf.jpg,stim_fb/negf.jpg,stim_02/d.jpg,stim_02/c.jpg,1,2,f,5,18,318,28,f,1,0.766462354418,02,03,60.0226643876,PLT_learning_02,B,2014_Mrz_12_1326,P21,
stim_fb/ques.jpg,stim_fb/negf.jpg,stim_fb/posf.jpg,stim_02/c.jpg,stim_02/d.jpg,2,2,j,5,19,319,36,f,0,0.866417085586,02,03,60.0226643876,PLT_learning_02,B,2014_Mrz_12_1326,P21,
stim_fb/ques.jpg,stim_fb/negf.jpg,stim_fb/posf.jpg,stim_02/e.jpg,stim_02/f.jpg,2,3,j,5,20,320,53,j,1,0.816487948211,02,03,60.0226643876,PLT_learning_02,B,2014_Mrz_12_1326,P21,
stim_fb/ques.jpg,stim_fb/posf.jpg,stim_fb/negf.jpg,stim_02/e.jpg,stim_02/f.jpg,2,3,j,5,21,321,58,j,1,0.733133913279,02,03,60.0226643876,PLT_learning_02,B,2014_Mrz_12_1326,P21,
stim_fb/ques.jpg,stim_fb/posf.jpg,stim_fb/negf.jpg,stim_02/f.jpg,stim_02/e.jpg,1,3,f,5,22,322,47,f,1,0.79979530981,02,03,60.0226643876,PLT_learning_02,B,2014_Mrz_12_1326,P21,
stim_fb/ques.jpg,stim_fb/posf.jpg,stim_fb/negf.jpg,stim_02/b.jpg,stim_02/a.jpg,1,1,f,5,23,323,8,f,1,0.983082527199,02,03,60.0226643876,PLT_learning_02,B,2014_Mrz_12_1326,P21,
stim_fb/ques.jpg,stim_fb/negf.jpg,stim_fb/posf.jpg,stim_02/b.jpg,stim_02/a.jpg,1,1,f,5,24,324,3,f,1,0.799782810656,02,03,60.0226643876,PLT_learning_02,B,2014_Mrz_12_1326,P21,
stim_fb/ques.jpg,stim_fb/negf.jpg,stim_fb/posf.jpg,stim_02/a.jpg,stim_02/b.jpg,2,1,j,5,25,325,15,f,0,0.516522756971,02,03,60.0226643876,PLT_learning_02,B,2014_Mrz_12_1326,P21,
stim_fb/ques.jpg,stim_fb/negf.jpg,stim_fb/posf.jpg,stim_02/f.jpg,stim_02/e.jpg,1,3,f,5,26,326,41,f,1,1.06638375651,02,03,60.0226643876,PLT_learning_02,B,2014_Mrz_12_1326,P21,
stim_fb/ques.jpg,stim_fb/negf.jpg,stim_fb/posf.jpg,stim_02/c.jpg,stim_02/d.jpg,2,2,j,5,27,327,32,j,1,0.949732089232,02,03,60.0226643876,PLT_learning_02,B,2014_Mrz_12_1326,P21,
stim_fb/ques.jpg,stim_fb/negf.jpg,stim_fb/posf.jpg,stim_02/c.jpg,stim_02/d.jpg,2,2,j,5,28,328,30,j,1,0.799781355027,02,03,60.0226643876,PLT_learning_02,B,2014_Mrz_12_1326,P21,
stim_fb/ques.jpg,stim_fb/negf.jpg,stim_fb/posf.jpg,stim_02/d.jpg,stim_02/c.jpg,1,2,f,5,29,329,25,f,1,0.666557565733,02,03,60.0226643876,PLT_learning_02,B,2014_Mrz_12_1326,P21,
stim_fb/ques.jpg,stim_fb/posf.jpg,stim_fb/negf.jpg,stim_02/e.jpg,stim_02/f.jpg,2,3,j,5,30,330,57,j,1,0.683144574853,02,03,60.0226643876,PLT_learning_02,B,2014_Mrz_12_1326,P21,
stim_fb/ques.jpg,stim_fb/negf.jpg,stim_fb/posf.jpg,stim_02/b.jpg,stim_02/a.jpg,1,1,f,5,31,331,5,f,1,0.733122331411,02,03,60.0226643876,PLT_learning_02,B,2014_Mrz_12_1326,P21,
stim_fb/ques.jpg,stim_fb/negf.jpg,stim_fb/posf.jpg,stim_02/c.jpg,stim_02/d.jpg,2,2,j,5,32,332,31,j,1,0.849772789678,02,03,60.0226643876,PLT_learning_02,B,2014_Mrz_12_1326,P21,
stim_fb/ques.jpg,stim_fb/negf.jpg,stim_fb/posf.jpg,stim_02/d.jpg,stim_02/c.jpg,1,2,f,5,33,333,20,f,1,0.499890473004,02,03,60.0226643876,PLT_learning_02,B,2014_Mrz_12_1326,P21,
stim_fb/ques.jpg,stim_fb/posf.jpg,stim_fb/negf.jpg,stim_02/c.jpg,stim_02/d.jpg,2,2,j,5,34,334,37,j,1,0.516625968226,02,03,60.0226643876,PLT_learning_02,B,2014_Mrz_12_1326,P21,
stim_fb/ques.jpg,stim_fb/posf.jpg,stim_fb/negf.jpg,stim_02/f.jpg,stim_02/e.jpg,1,3,f,5,35,335,46,f,1,0.833125140412,02,03,60.0226643876,PLT_learning_02,B,2014_Mrz_12_1326,P21,
stim_fb/ques.jpg,stim_fb/negf.jpg,stim_fb/posf.jpg,stim_02/b.jpg,stim_02/a.jpg,1,1,f,5,36,336,0,f,1,0.599838061368,02,03,60.0226643876,PLT_learning_02,B,2014_Mrz_12_1326,P21,
stim_fb/ques.jpg,stim_fb/posf.jpg,stim_fb/negf.jpg,stim_02/d.jpg,stim_02/c.jpg,1,2,f,5,37,337,27,f,1,0.766461169465,02,03,60.0226643876,PLT_learning_02,B,2014_Mrz_12_1326,P21,
stim_fb/ques.jpg,stim_fb/negf.jpg,stim_fb/posf.jpg,stim_02/a.jpg,stim_02/b.jpg,2,1,j,5,38,338,13,j,1,0.566562449906,02,03,60.0226643876,PLT_learning_02,B,2014_Mrz_12_1326,P21,
stim_fb/ques.jpg,stim_fb/negf.jpg,stim_fb/posf.jpg,stim_02/b.jpg,stim_02/a.jpg,1,1,f,5,39,339,1,f,1,0.483207678138,02,03,60.0226643876,PLT_learning_02,B,2014_Mrz_12_1326,P21,
stim_fb/ques.jpg,stim_fb/negf.jpg,stim_fb/posf.jpg,stim_02/e.jpg,stim_02/f.jpg,2,3,j,5,40,340,52,j,1,0.966406661604,02,03,60.0226643876,PLT_learning_02,B,2014_Mrz_12_1326,P21,
stim_fb/ques.jpg,stim_fb/posf.jpg,stim_fb/negf.jpg,stim_02/a.jpg,stim_02/b.jpg,2,1,j,5,41,341,18,j,1,0.866381464801,02,03,60.0226643876,PLT_learning_02,B,2014_Mrz_12_1326,P21,
stim_fb/ques.jpg,stim_fb/negf.jpg,stim_fb/posf.jpg,stim_02/b.jpg,stim_02/a.jpg,1,1,f,5,42,342,2,f,1,0.849786906866,02,03,60.0226643876,PLT_learning_02,B,2014_Mrz_12_1326,P21,
stim_fb/ques.jpg,stim_fb/negf.jpg,stim_fb/posf.jpg,stim_02/e.jpg,stim_02/f.jpg,2,3,j,5,43,343,54,j,1,0.666537009496,02,03,60.0226643876,PLT_learning_02,B,2014_Mrz_12_1326,P21,
stim_fb/ques.jpg,stim_fb/negf.jpg,stim_fb/posf.jpg,stim_02/b.jpg,stim_02/a.jpg,1,1,f,5,44,344,6,f,1,0.566509948045,02,03,60.0226643876,PLT_learning_02,B,2014_Mrz_12_1326,P21,
stim_fb/ques.jpg,stim_fb/negf.jpg,stim_fb/posf.jpg,stim_02/d.jpg,stim_02/c.jpg,1,2,f,5,45,345,26,f,1,0.816469984436,02,03,60.0226643876,PLT_learning_02,B,2014_Mrz_12_1326,P21,
stim_fb/ques.jpg,stim_fb/negf.jpg,stim_fb/posf.jpg,stim_02/f.jpg,stim_02/e.jpg,1,3,f,5,46,346,43,f,1,0.866413807415,02,03,60.0226643876,PLT_learning_02,B,2014_Mrz_12_1326,P21,
stim_fb/ques.jpg,stim_fb/negf.jpg,stim_fb/posf.jpg,stim_02/e.jpg,stim_02/f.jpg,2,3,j,5,47,347,55,j,1,0.849732681709,02,03,60.0226643876,PLT_learning_02,B,2014_Mrz_12_1326,P21,
stim_fb/ques.jpg,stim_fb/posf.jpg,stim_fb/negf.jpg,stim_02/e.jpg,stim_02/f.jpg,2,3,j,5,48,348,56,j,1,0.699796566943,02,03,60.0226643876,PLT_learning_02,B,2014_Mrz_12_1326,P21,
stim_fb/ques.jpg,stim_fb/posf.jpg,stim_fb/negf.jpg,stim_02/c.jpg,stim_02/d.jpg,2,2,j,5,49,349,38,j,1,0.816409091661,02,03,60.0226643876,PLT_learning_02,B,2014_Mrz_12_1326,P21,
stim_fb/ques.jpg,stim_fb/negf.jpg,stim_fb/posf.jpg,stim_02/c.jpg,stim_02/d.jpg,2,2,j,5,50,350,35,j,1,0.883142078631,02,03,60.0226643876,PLT_learning_02,B,2014_Mrz_12_1326,P21,
stim_fb/ques.jpg,stim_fb/negf.jpg,stim_fb/posf.jpg,stim_02/c.jpg,stim_02/d.jpg,2,2,j,5,51,351,34,j,1,0.549828175728,02,03,60.0226643876,PLT_learning_02,B,2014_Mrz_12_1326,P21,
stim_fb/ques.jpg,stim_fb/negf.jpg,stim_fb/posf.jpg,stim_02/e.jpg,stim_02/f.jpg,2,3,j,5,52,352,50,j,1,0.949732399004,02,03,60.0226643876,PLT_learning_02,B,2014_Mrz_12_1326,P21,
stim_fb/ques.jpg,stim_fb/negf.jpg,stim_fb/posf.jpg,stim_02/f.jpg,stim_02/e.jpg,1,3,f,5,53,353,42,f,1,0.599849047751,02,03,60.0226643876,PLT_learning_02,B,2014_Mrz_12_1326,P21,
stim_fb/ques.jpg,stim_fb/posf.jpg,stim_fb/negf.jpg,stim_02/f.jpg,stim_02/e.jpg,1,3,f,5,54,354,49,f,1,0.683129399027,02,03,60.0226643876,PLT_learning_02,B,2014_Mrz_12_1326,P21,
stim_fb/ques.jpg,stim_fb/negf.jpg,stim_fb/posf.jpg,stim_02/f.jpg,stim_02/e.jpg,1,3,f,5,55,355,40,f,1,0.599851907881,02,03,60.0226643876,PLT_learning_02,B,2014_Mrz_12_1326,P21,
stim_fb/ques.jpg,stim_fb/negf.jpg,stim_fb/posf.jpg,stim_02/d.jpg,stim_02/c.jpg,1,2,f,5,56,356,21,j,0,0.816441602694,02,03,60.0226643876,PLT_learning_02,B,2014_Mrz_12_1326,P21,
stim_fb/ques.jpg,stim_fb/posf.jpg,stim_fb/negf.jpg,stim_02/a.jpg,stim_02/b.jpg,2,1,j,5,57,357,19,j,1,1.36626683709,02,03,60.0226643876,PLT_learning_02,B,2014_Mrz_12_1326,P21,
stim_fb/ques.jpg,stim_fb/posf.jpg,stim_fb/negf.jpg,stim_02/d.jpg,stim_02/c.jpg,1,2,f,5,58,358,29,f,1,0.616557499568,02,03,60.0226643876,PLT_learning_02,B,2014_Mrz_12_1326,P21,
stim_fb/ques.jpg,stim_fb/posf.jpg,stim_fb/negf.jpg,stim_02/e.jpg,stim_02/f.jpg,2,3,j,5,59,359,59,j,1,0.633168700987,02,03,60.0226643876,PLT_learning_02,B,2014_Mrz_12_1326,P21,
