Fb3,Fb2,Fb1,Symbol2,Symbol1,PosCond,Pair,Correct,trials.thisRepN,trials.thisTrialN,trials.thisN,trials.thisIndex,Response.keys,Response.corr,Response.rt,Version,Session Number,frameRate,expName,StimCondition,date,Participant,
stim_fb/ques.jpg,stim_fb/negf.jpg,stim_fb/posf.jpg,stim_01/f.jpg,stim_01/e.jpg,1,3,f,0,0,0,40,f,1,1.16634825001,01,02,60.0200413082,PLT_learning_01,B,2014_Mrz_10_0859,P22,
stim_fb/ques.jpg,stim_fb/negf.jpg,stim_fb/posf.jpg,stim_01/c.jpg,stim_01/d.jpg,2,2,j,0,1,1,33,f,0,0.883101639837,01,02,60.0200413082,PLT_learning_01,B,2014_Mrz_10_0859,P22,
stim_fb/ques.jpg,stim_fb/negf.jpg,stim_fb/posf.jpg,stim_01/a.jpg,stim_01/b.jpg,2,1,j,0,2,2,16,f,0,1.09971642318,01,02,60.0200413082,PLT_learning_01,B,2014_Mrz_10_0859,P22,
stim_fb/ques.jpg,stim_fb/negf.jpg,stim_fb/posf.jpg,stim_01/c.jpg,stim_01/d.jpg,2,2,j,0,3,3,30,j,1,1.34959302562,01,02,60.0200413082,PLT_learning_01,B,2014_Mrz_10_0859,P22,
stim_fb/ques.jpg,stim_fb/negf.jpg,stim_fb/posf.jpg,stim_01/f.jpg,stim_01/e.jpg,1,3,f,0,4,4,42,f,1,1.4495634108,01,02,60.0200413082,PLT_learning_01,B,2014_Mrz_10_0859,P22,
stim_fb/ques.jpg,stim_fb/posf.jpg,stim_fb/negf.jpg,stim_01/e.jpg,stim_01/f.jpg,2,3,j,0,5,5,56,j,1,1.46624041924,01,02,60.0200413082,PLT_learning_01,B,2014_Mrz_10_0859,P22,
stim_fb/ques.jpg,stim_fb/negf.jpg,stim_fb/posf.jpg,stim_01/b.jpg,stim_01/a.jpg,1,1,f,0,6,6,6,f,1,1.0330584943,01,02,60.0200413082,PLT_learning_01,B,2014_Mrz_10_0859,P22,
stim_fb/ques.jpg,stim_fb/negf.jpg,stim_fb/posf.jpg,stim_01/e.jpg,stim_01/f.jpg,2,3,j,0,7,7,53,f,0,1.08304271396,01,02,60.0200413082,PLT_learning_01,B,2014_Mrz_10_0859,P22,
stim_fb/ques.jpg,stim_fb/negf.jpg,stim_fb/posf.jpg,stim_01/f.jpg,stim_01/e.jpg,1,3,f,0,8,8,45,f,1,0.866436357621,01,02,60.0200413082,PLT_learning_01,B,2014_Mrz_10_0859,P22,
stim_fb/ques.jpg,stim_fb/negf.jpg,stim_fb/posf.jpg,stim_01/b.jpg,stim_01/a.jpg,1,1,f,0,9,9,0,f,1,0.849782197126,01,02,60.0200413082,PLT_learning_01,B,2014_Mrz_10_0859,P22,
stim_fb/ques.jpg,stim_fb/negf.jpg,stim_fb/posf.jpg,stim_01/d.jpg,stim_01/c.jpg,1,2,f,0,10,10,22,f,1,1.08306331531,01,02,60.0200413082,PLT_learning_01,B,2014_Mrz_10_0859,P22,
stim_fb/ques.jpg,stim_fb/negf.jpg,stim_fb/posf.jpg,stim_01/e.jpg,stim_01/f.jpg,2,3,j,0,11,11,55,f,0,1.46624905076,01,02,60.0200413082,PLT_learning_01,B,2014_Mrz_10_0859,P22,
stim_fb/ques.jpg,stim_fb/posf.jpg,stim_fb/negf.jpg,stim_01/c.jpg,stim_01/d.jpg,2,2,j,0,12,12,37,j,1,1.0163905324,01,02,60.0200413082,PLT_learning_01,B,2014_Mrz_10_0859,P22,
stim_fb/ques.jpg,stim_fb/posf.jpg,stim_fb/negf.jpg,stim_01/e.jpg,stim_01/f.jpg,2,3,j,0,13,13,59,j,1,1.68284430944,01,02,60.0200413082,PLT_learning_01,B,2014_Mrz_10_0859,P22,
stim_fb/ques.jpg,stim_fb/posf.jpg,stim_fb/negf.jpg,stim_01/f.jpg,stim_01/e.jpg,1,3,f,0,14,14,47,f,1,0.883051345479,01,02,60.0200413082,PLT_learning_01,B,2014_Mrz_10_0859,P22,
stim_fb/ques.jpg,stim_fb/posf.jpg,stim_fb/negf.jpg,stim_01/c.jpg,stim_01/d.jpg,2,2,j,0,15,15,38,j,1,0.849778933993,01,02,60.0200413082,PLT_learning_01,B,2014_Mrz_10_0859,P22,
stim_fb/ques.jpg,stim_fb/negf.jpg,stim_fb/posf.jpg,stim_01/d.jpg,stim_01/c.jpg,1,2,f,0,16,16,25,f,1,0.96640409621,01,02,60.0200413082,PLT_learning_01,B,2014_Mrz_10_0859,P22,
stim_fb/ques.jpg,stim_fb/posf.jpg,stim_fb/negf.jpg,stim_01/d.jpg,stim_01/c.jpg,1,2,f,0,17,17,28,f,1,0.79980680446,01,02,60.0200413082,PLT_learning_01,B,2014_Mrz_10_0859,P22,
stim_fb/ques.jpg,stim_fb/negf.jpg,stim_fb/posf.jpg,stim_01/a.jpg,stim_01/b.jpg,2,1,j,0,18,18,14,j,1,0.899713451779,01,02,60.0200413082,PLT_learning_01,B,2014_Mrz_10_0859,P22,
stim_fb/ques.jpg,stim_fb/posf.jpg,stim_fb/negf.jpg,stim_01/a.jpg,stim_01/b.jpg,2,1,j,0,19,19,19,j,1,0.883065955895,01,02,60.0200413082,PLT_learning_01,B,2014_Mrz_10_0859,P22,
stim_fb/ques.jpg,stim_fb/negf.jpg,stim_fb/posf.jpg,stim_01/b.jpg,stim_01/a.jpg,1,1,f,0,20,20,1,f,1,0.666503259374,01,02,60.0200413082,PLT_learning_01,B,2014_Mrz_10_0859,P22,
stim_fb/ques.jpg,stim_fb/negf.jpg,stim_fb/posf.jpg,stim_01/c.jpg,stim_01/d.jpg,2,2,j,0,21,21,36,f,0,0.849772997196,01,02,60.0200413082,PLT_learning_01,B,2014_Mrz_10_0859,P22,
stim_fb/ques.jpg,stim_fb/negf.jpg,stim_fb/posf.jpg,stim_01/f.jpg,stim_01/e.jpg,1,3,f,0,22,22,43,f,1,0.999694005308,01,02,60.0200413082,PLT_learning_01,B,2014_Mrz_10_0859,P22,
stim_fb/ques.jpg,stim_fb/negf.jpg,stim_fb/posf.jpg,stim_01/f.jpg,stim_01/e.jpg,1,3,f,0,23,23,41,f,1,0.79975007406,01,02,60.0200413082,PLT_learning_01,B,2014_Mrz_10_0859,P22,
stim_fb/ques.jpg,stim_fb/posf.jpg,stim_fb/negf.jpg,stim_01/f.jpg,stim_01/e.jpg,1,3,f,0,24,24,48,f,1,0.633212914189,01,02,60.0200413082,PLT_learning_01,B,2014_Mrz_10_0859,P22,
stim_fb/ques.jpg,stim_fb/posf.jpg,stim_fb/negf.jpg,stim_01/b.jpg,stim_01/a.jpg,1,1,f,0,25,25,9,f,1,0.749806903707,01,02,60.0200413082,PLT_learning_01,B,2014_Mrz_10_0859,P22,
stim_fb/ques.jpg,stim_fb/posf.jpg,stim_fb/negf.jpg,stim_01/c.jpg,stim_01/d.jpg,2,2,j,0,26,26,39,f,0,0.899796554913,01,02,60.0200413082,PLT_learning_01,B,2014_Mrz_10_0859,P22,
stim_fb/ques.jpg,stim_fb/negf.jpg,stim_fb/posf.jpg,stim_01/a.jpg,stim_01/b.jpg,2,1,j,0,27,27,10,f,0,0.549850858264,01,02,60.0200413082,PLT_learning_01,B,2014_Mrz_10_0859,P22,
stim_fb/ques.jpg,stim_fb/negf.jpg,stim_fb/posf.jpg,stim_01/e.jpg,stim_01/f.jpg,2,3,j,0,28,28,50,j,1,1.14962062842,01,02,60.0200413082,PLT_learning_01,B,2014_Mrz_10_0859,P22,
stim_fb/ques.jpg,stim_fb/negf.jpg,stim_fb/posf.jpg,stim_01/a.jpg,stim_01/b.jpg,2,1,j,0,29,29,11,f,0,0.583160388268,01,02,60.0200413082,PLT_learning_01,B,2014_Mrz_10_0859,P22,
stim_fb/ques.jpg,stim_fb/posf.jpg,stim_fb/negf.jpg,stim_01/f.jpg,stim_01/e.jpg,1,3,f,0,30,30,49,f,1,1.11635159736,01,02,60.0200413082,PLT_learning_01,B,2014_Mrz_10_0859,P22,
stim_fb/ques.jpg,stim_fb/negf.jpg,stim_fb/posf.jpg,stim_01/e.jpg,stim_01/f.jpg,2,3,j,0,31,31,54,j,1,0.849766735588,01,02,60.0200413082,PLT_learning_01,B,2014_Mrz_10_0859,P22,
stim_fb/ques.jpg,stim_fb/posf.jpg,stim_fb/negf.jpg,stim_01/f.jpg,stim_01/e.jpg,1,3,f,0,32,32,46,f,1,0.933064996504,01,02,60.0200413082,PLT_learning_01,B,2014_Mrz_10_0859,P22,
stim_fb/ques.jpg,stim_fb/negf.jpg,stim_fb/posf.jpg,stim_01/c.jpg,stim_01/d.jpg,2,2,j,0,33,33,35,j,1,0.999720766009,01,02,60.0200413082,PLT_learning_01,B,2014_Mrz_10_0859,P22,
stim_fb/ques.jpg,stim_fb/negf.jpg,stim_fb/posf.jpg,stim_01/b.jpg,stim_01/a.jpg,1,1,f,0,34,34,3,j,0,0.983067107766,01,02,60.0200413082,PLT_learning_01,B,2014_Mrz_10_0859,P22,
stim_fb/ques.jpg,stim_fb/negf.jpg,stim_fb/posf.jpg,stim_01/b.jpg,stim_01/a.jpg,1,1,f,0,35,35,7,j,0,0.666496895512,01,02,60.0200413082,PLT_learning_01,B,2014_Mrz_10_0859,P22,
stim_fb/ques.jpg,stim_fb/negf.jpg,stim_fb/posf.jpg,stim_01/a.jpg,stim_01/b.jpg,2,1,j,0,36,36,15,j,1,0.849765658905,01,02,60.0200413082,PLT_learning_01,B,2014_Mrz_10_0859,P22,
stim_fb/ques.jpg,stim_fb/posf.jpg,stim_fb/negf.jpg,stim_01/e.jpg,stim_01/f.jpg,2,3,j,0,37,37,57,j,1,0.849761740137,01,02,60.0200413082,PLT_learning_01,B,2014_Mrz_10_0859,P22,
stim_fb/ques.jpg,stim_fb/negf.jpg,stim_fb/posf.jpg,stim_01/a.jpg,stim_01/b.jpg,2,1,j,0,38,38,13,j,1,0.549888885046,01,02,60.0200413082,PLT_learning_01,B,2014_Mrz_10_0859,P22,
stim_fb/ques.jpg,stim_fb/negf.jpg,stim_fb/posf.jpg,stim_01/a.jpg,stim_01/b.jpg,2,1,j,0,39,39,12,j,1,0.683161840888,01,02,60.0200413082,PLT_learning_01,B,2014_Mrz_10_0859,P22,
stim_fb/ques.jpg,stim_fb/negf.jpg,stim_fb/posf.jpg,stim_01/a.jpg,stim_01/b.jpg,2,1,j,0,40,40,17,j,1,0.533209999925,01,02,60.0200413082,PLT_learning_01,B,2014_Mrz_10_0859,P22,
stim_fb/ques.jpg,stim_fb/negf.jpg,stim_fb/posf.jpg,stim_01/d.jpg,stim_01/c.jpg,1,2,f,0,41,41,24,j,0,0.949726958444,01,02,60.0200413082,PLT_learning_01,B,2014_Mrz_10_0859,P22,
stim_fb/ques.jpg,stim_fb/negf.jpg,stim_fb/posf.jpg,stim_01/e.jpg,stim_01/f.jpg,2,3,j,0,42,42,51,j,1,0.833142622988,01,02,60.0200413082,PLT_learning_01,B,2014_Mrz_10_0859,P22,
stim_fb/ques.jpg,stim_fb/posf.jpg,stim_fb/negf.jpg,stim_01/e.jpg,stim_01/f.jpg,2,3,j,0,43,43,58,j,1,0.849780660296,01,02,60.0200413082,PLT_learning_01,B,2014_Mrz_10_0859,P22,
stim_fb/ques.jpg,stim_fb/posf.jpg,stim_fb/negf.jpg,stim_01/a.jpg,stim_01/b.jpg,2,1,j,0,44,44,18,j,1,0.733028187758,01,02,60.0200413082,PLT_learning_01,B,2014_Mrz_10_0859,P22,
stim_fb/ques.jpg,stim_fb/negf.jpg,stim_fb/posf.jpg,stim_01/d.jpg,stim_01/c.jpg,1,2,f,0,45,45,23,j,0,1.0330343832,01,02,60.0200413082,PLT_learning_01,B,2014_Mrz_10_0859,P22,
stim_fb/ques.jpg,stim_fb/negf.jpg,stim_fb/posf.jpg,stim_01/d.jpg,stim_01/c.jpg,1,2,f,0,46,46,21,j,0,0.899702705995,01,02,60.0200413082,PLT_learning_01,B,2014_Mrz_10_0859,P22,
stim_fb/ques.jpg,stim_fb/negf.jpg,stim_fb/posf.jpg,stim_01/d.jpg,stim_01/c.jpg,1,2,f,0,47,47,26,f,1,0.699802215021,01,02,60.0200413082,PLT_learning_01,B,2014_Mrz_10_0859,P22,
stim_fb/ques.jpg,stim_fb/negf.jpg,stim_fb/posf.jpg,stim_01/b.jpg,stim_01/a.jpg,1,1,f,0,48,48,2,f,1,0.916402607499,01,02,60.0200413082,PLT_learning_01,B,2014_Mrz_10_0859,P22,
stim_fb/ques.jpg,stim_fb/posf.jpg,stim_fb/negf.jpg,stim_01/d.jpg,stim_01/c.jpg,1,2,f,0,49,49,29,f,1,0.733168821287,01,02,60.0200413082,PLT_learning_01,B,2014_Mrz_10_0859,P22,
stim_fb/ques.jpg,stim_fb/negf.jpg,stim_fb/posf.jpg,stim_01/f.jpg,stim_01/e.jpg,1,3,f,0,50,50,44,f,1,0.883070945331,01,02,60.0200413082,PLT_learning_01,B,2014_Mrz_10_0859,P22,
stim_fb/ques.jpg,stim_fb/posf.jpg,stim_fb/negf.jpg,stim_01/d.jpg,stim_01/c.jpg,1,2,f,0,51,51,27,f,1,0.549855189059,01,02,60.0200413082,PLT_learning_01,B,2014_Mrz_10_0859,P22,
stim_fb/ques.jpg,stim_fb/negf.jpg,stim_fb/posf.jpg,stim_01/c.jpg,stim_01/d.jpg,2,2,j,0,52,52,32,j,1,0.999705340561,01,02,60.0200413082,PLT_learning_01,B,2014_Mrz_10_0859,P22,
stim_fb/ques.jpg,stim_fb/negf.jpg,stim_fb/posf.jpg,stim_01/e.jpg,stim_01/f.jpg,2,3,j,0,53,53,52,j,1,0.86644952444,01,02,60.0200413082,PLT_learning_01,B,2014_Mrz_10_0859,P22,
stim_fb/ques.jpg,stim_fb/negf.jpg,stim_fb/posf.jpg,stim_01/b.jpg,stim_01/a.jpg,1,1,f,0,54,54,5,f,1,0.98307363704,01,02,60.0200413082,PLT_learning_01,B,2014_Mrz_10_0859,P22,
stim_fb/ques.jpg,stim_fb/posf.jpg,stim_fb/negf.jpg,stim_01/b.jpg,stim_01/a.jpg,1,1,f,0,55,55,8,f,1,0.499851131946,01,02,60.0200413082,PLT_learning_01,B,2014_Mrz_10_0859,P22,
stim_fb/ques.jpg,stim_fb/negf.jpg,stim_fb/posf.jpg,stim_01/d.jpg,stim_01/c.jpg,1,2,f,0,56,56,20,f,1,0.949739857595,01,02,60.0200413082,PLT_learning_01,B,2014_Mrz_10_0859,P22,
stim_fb/ques.jpg,stim_fb/negf.jpg,stim_fb/posf.jpg,stim_01/b.jpg,stim_01/a.jpg,1,1,f,0,57,57,4,f,1,0.849790043684,01,02,60.0200413082,PLT_learning_01,B,2014_Mrz_10_0859,P22,
stim_fb/ques.jpg,stim_fb/negf.jpg,stim_fb/posf.jpg,stim_01/c.jpg,stim_01/d.jpg,2,2,j,0,58,58,31,j,1,0.999715647251,01,02,60.0200413082,PLT_learning_01,B,2014_Mrz_10_0859,P22,
stim_fb/ques.jpg,stim_fb/negf.jpg,stim_fb/posf.jpg,stim_01/c.jpg,stim_01/d.jpg,2,2,j,0,59,59,34,j,1,0.683181155029,01,02,60.0200413082,PLT_learning_01,B,2014_Mrz_10_0859,P22,
stim_fb/ques.jpg,stim_fb/negf.jpg,stim_fb/posf.jpg,stim_01/b.jpg,stim_01/a.jpg,1,1,f,1,0,60,7,f,1,0.666518567529,01,02,60.0200413082,PLT_learning_01,B,2014_Mrz_10_0859,P22,
stim_fb/ques.jpg,stim_fb/posf.jpg,stim_fb/negf.jpg,stim_01/f.jpg,stim_01/e.jpg,1,3,f,1,1,61,46,f,1,0.783133365915,01,02,60.0200413082,PLT_learning_01,B,2014_Mrz_10_0859,P22,
stim_fb/ques.jpg,stim_fb/negf.jpg,stim_fb/posf.jpg,stim_01/e.jpg,stim_01/f.jpg,2,3,j,1,2,62,51,j,1,0.949699024819,01,02,60.0200413082,PLT_learning_01,B,2014_Mrz_10_0859,P22,
stim_fb/ques.jpg,stim_fb/posf.jpg,stim_fb/negf.jpg,stim_01/c.jpg,stim_01/d.jpg,2,2,j,1,3,63,37,j,1,0.69982424493,01,02,60.0200413082,PLT_learning_01,B,2014_Mrz_10_0859,P22,
stim_fb/ques.jpg,stim_fb/negf.jpg,stim_fb/posf.jpg,stim_01/b.jpg,stim_01/a.jpg,1,1,f,1,4,64,5,f,1,0.633209623988,01,02,60.0200413082,PLT_learning_01,B,2014_Mrz_10_0859,P22,
stim_fb/ques.jpg,stim_fb/negf.jpg,stim_fb/posf.jpg,stim_01/e.jpg,stim_01/f.jpg,2,3,j,1,5,65,50,j,1,0.633164436358,01,02,60.0200413082,PLT_learning_01,B,2014_Mrz_10_0859,P22,
stim_fb/ques.jpg,stim_fb/negf.jpg,stim_fb/posf.jpg,stim_01/b.jpg,stim_01/a.jpg,1,1,f,1,6,66,1,f,1,0.633152968775,01,02,60.0200413082,PLT_learning_01,B,2014_Mrz_10_0859,P22,
stim_fb/ques.jpg,stim_fb/negf.jpg,stim_fb/posf.jpg,stim_01/b.jpg,stim_01/a.jpg,1,1,f,1,7,67,0,f,1,0.566525650183,01,02,60.0200413082,PLT_learning_01,B,2014_Mrz_10_0859,P22,
stim_fb/ques.jpg,stim_fb/posf.jpg,stim_fb/negf.jpg,stim_01/a.jpg,stim_01/b.jpg,2,1,j,1,8,68,19,j,1,0.699796606041,01,02,60.0200413082,PLT_learning_01,B,2014_Mrz_10_0859,P22,
stim_fb/ques.jpg,stim_fb/negf.jpg,stim_fb/posf.jpg,stim_01/f.jpg,stim_01/e.jpg,1,3,f,1,9,69,44,f,1,0.900010968339,01,02,60.0200413082,PLT_learning_01,B,2014_Mrz_10_0859,P22,
stim_fb/ques.jpg,stim_fb/posf.jpg,stim_fb/negf.jpg,stim_01/f.jpg,stim_01/e.jpg,1,3,f,1,10,70,47,f,1,0.683138755348,01,02,60.0200413082,PLT_learning_01,B,2014_Mrz_10_0859,P22,
stim_fb/ques.jpg,stim_fb/posf.jpg,stim_fb/negf.jpg,stim_01/e.jpg,stim_01/f.jpg,2,3,j,1,11,71,58,j,1,0.883152427425,01,02,60.0200413082,PLT_learning_01,B,2014_Mrz_10_0859,P22,
stim_fb/ques.jpg,stim_fb/posf.jpg,stim_fb/negf.jpg,stim_01/d.jpg,stim_01/c.jpg,1,2,f,1,12,72,29,f,1,0.749787929414,01,02,60.0200413082,PLT_learning_01,B,2014_Mrz_10_0859,P22,
stim_fb/ques.jpg,stim_fb/negf.jpg,stim_fb/posf.jpg,stim_01/a.jpg,stim_01/b.jpg,2,1,j,1,13,73,14,j,1,1.14966446869,01,02,60.0200413082,PLT_learning_01,B,2014_Mrz_10_0859,P22,
stim_fb/ques.jpg,stim_fb/posf.jpg,stim_fb/negf.jpg,stim_01/b.jpg,stim_01/a.jpg,1,1,f,1,14,74,9,f,1,0.716493133134,01,02,60.0200413082,PLT_learning_01,B,2014_Mrz_10_0859,P22,
stim_fb/ques.jpg,stim_fb/posf.jpg,stim_fb/negf.jpg,stim_01/d.jpg,stim_01/c.jpg,1,2,f,1,15,75,28,f,1,0.816458279261,01,02,60.0200413082,PLT_learning_01,B,2014_Mrz_10_0859,P22,
stim_fb/ques.jpg,stim_fb/negf.jpg,stim_fb/posf.jpg,stim_01/b.jpg,stim_01/a.jpg,1,1,f,1,16,76,4,f,1,0.716481289614,01,02,60.0200413082,PLT_learning_01,B,2014_Mrz_10_0859,P22,
stim_fb/ques.jpg,stim_fb/negf.jpg,stim_fb/posf.jpg,stim_01/c.jpg,stim_01/d.jpg,2,2,j,1,17,77,35,f,0,0.533179109931,01,02,60.0200413082,PLT_learning_01,B,2014_Mrz_10_0859,P22,
stim_fb/ques.jpg,stim_fb/negf.jpg,stim_fb/posf.jpg,stim_01/c.jpg,stim_01/d.jpg,2,2,j,1,18,78,32,f,0,0.516557511598,01,02,60.0200413082,PLT_learning_01,B,2014_Mrz_10_0859,P22,
stim_fb/ques.jpg,stim_fb/negf.jpg,stim_fb/posf.jpg,stim_01/e.jpg,stim_01/f.jpg,2,3,j,1,19,79,55,j,1,1.06636058075,01,02,60.0200413082,PLT_learning_01,B,2014_Mrz_10_0859,P22,
stim_fb/ques.jpg,stim_fb/negf.jpg,stim_fb/posf.jpg,stim_01/f.jpg,stim_01/e.jpg,1,3,f,1,20,80,40,f,1,0.916420850971,01,02,60.0200413082,PLT_learning_01,B,2014_Mrz_10_0859,P22,
stim_fb/ques.jpg,stim_fb/negf.jpg,stim_fb/posf.jpg,stim_01/f.jpg,stim_01/e.jpg,1,3,f,1,21,81,41,f,1,0.698683330201,01,02,60.0200413082,PLT_learning_01,B,2014_Mrz_10_0859,P22,
stim_fb/ques.jpg,stim_fb/negf.jpg,stim_fb/posf.jpg,stim_01/c.jpg,stim_01/d.jpg,2,2,j,1,22,82,36,j,1,0.616521153976,01,02,60.0200413082,PLT_learning_01,B,2014_Mrz_10_0859,P22,
stim_fb/ques.jpg,stim_fb/negf.jpg,stim_fb/posf.jpg,stim_01/d.jpg,stim_01/c.jpg,1,2,f,1,23,83,22,f,1,0.833111820212,01,02,60.0200413082,PLT_learning_01,B,2014_Mrz_10_0859,P22,
stim_fb/ques.jpg,stim_fb/negf.jpg,stim_fb/posf.jpg,stim_01/e.jpg,stim_01/f.jpg,2,3,j,1,24,84,52,j,1,0.966362132616,01,02,60.0200413082,PLT_learning_01,B,2014_Mrz_10_0859,P22,
stim_fb/ques.jpg,stim_fb/negf.jpg,stim_fb/posf.jpg,stim_01/c.jpg,stim_01/d.jpg,2,2,j,1,25,85,31,j,1,0.833091525628,01,02,60.0200413082,PLT_learning_01,B,2014_Mrz_10_0859,P22,
stim_fb/ques.jpg,stim_fb/negf.jpg,stim_fb/posf.jpg,stim_01/c.jpg,stim_01/d.jpg,2,2,j,1,26,86,34,j,1,0.766487451974,01,02,60.0200413082,PLT_learning_01,B,2014_Mrz_10_0859,P22,
stim_fb/ques.jpg,stim_fb/negf.jpg,stim_fb/posf.jpg,stim_01/e.jpg,stim_01/f.jpg,2,3,j,1,27,87,54,j,1,0.68314908309,01,02,60.0200413082,PLT_learning_01,B,2014_Mrz_10_0859,P22,
stim_fb/ques.jpg,stim_fb/negf.jpg,stim_fb/posf.jpg,stim_01/d.jpg,stim_01/c.jpg,1,2,f,1,28,88,24,f,1,0.7331687461,01,02,60.0200413082,PLT_learning_01,B,2014_Mrz_10_0859,P22,
stim_fb/ques.jpg,stim_fb/posf.jpg,stim_fb/negf.jpg,stim_01/c.jpg,stim_01/d.jpg,2,2,j,1,29,89,39,j,1,0.649844482372,01,02,60.0200413082,PLT_learning_01,B,2014_Mrz_10_0859,P22,
stim_fb/ques.jpg,stim_fb/posf.jpg,stim_fb/negf.jpg,stim_01/a.jpg,stim_01/b.jpg,2,1,j,1,30,90,18,j,1,1.13301891865,01,02,60.0200413082,PLT_learning_01,B,2014_Mrz_10_0859,P22,
stim_fb/ques.jpg,stim_fb/negf.jpg,stim_fb/posf.jpg,stim_01/d.jpg,stim_01/c.jpg,1,2,f,1,31,91,25,f,1,0.616555589808,01,02,60.0200413082,PLT_learning_01,B,2014_Mrz_10_0859,P22,
stim_fb/ques.jpg,stim_fb/negf.jpg,stim_fb/posf.jpg,stim_01/d.jpg,stim_01/c.jpg,1,2,f,1,32,92,20,f,1,0.616572470884,01,02,60.0200413082,PLT_learning_01,B,2014_Mrz_10_0859,P22,
stim_fb/ques.jpg,stim_fb/posf.jpg,stim_fb/negf.jpg,stim_01/e.jpg,stim_01/f.jpg,2,3,j,1,33,93,56,j,1,0.699801457132,01,02,60.0200413082,PLT_learning_01,B,2014_Mrz_10_0859,P22,
stim_fb/ques.jpg,stim_fb/negf.jpg,stim_fb/posf.jpg,stim_01/e.jpg,stim_01/f.jpg,2,3,j,1,34,94,53,j,1,0.833107179645,01,02,60.0200413082,PLT_learning_01,B,2014_Mrz_10_0859,P22,
stim_fb/ques.jpg,stim_fb/posf.jpg,stim_fb/negf.jpg,stim_01/d.jpg,stim_01/c.jpg,1,2,f,1,35,95,27,f,1,0.616518880309,01,02,60.0200413082,PLT_learning_01,B,2014_Mrz_10_0859,P22,
stim_fb/ques.jpg,stim_fb/posf.jpg,stim_fb/negf.jpg,stim_01/f.jpg,stim_01/e.jpg,1,3,f,1,36,96,48,f,1,0.833096190254,01,02,60.0200413082,PLT_learning_01,B,2014_Mrz_10_0859,P22,
stim_fb/ques.jpg,stim_fb/negf.jpg,stim_fb/posf.jpg,stim_01/a.jpg,stim_01/b.jpg,2,1,j,1,37,97,16,j,1,0.733149146247,01,02,60.0200413082,PLT_learning_01,B,2014_Mrz_10_0859,P22,
stim_fb/ques.jpg,stim_fb/negf.jpg,stim_fb/posf.jpg,stim_01/a.jpg,stim_01/b.jpg,2,1,j,1,38,98,15,j,1,0.749803466139,01,02,60.0200413082,PLT_learning_01,B,2014_Mrz_10_0859,P22,
stim_fb/ques.jpg,stim_fb/posf.jpg,stim_fb/negf.jpg,stim_01/e.jpg,stim_01/f.jpg,2,3,j,1,39,99,57,j,1,0.733143985384,01,02,60.0200413082,PLT_learning_01,B,2014_Mrz_10_0859,P22,
stim_fb/ques.jpg,stim_fb/negf.jpg,stim_fb/posf.jpg,stim_01/b.jpg,stim_01/a.jpg,1,1,f,1,40,100,6,f,1,0.799785980557,01,02,60.0200413082,PLT_learning_01,B,2014_Mrz_10_0859,P22,
stim_fb/ques.jpg,stim_fb/posf.jpg,stim_fb/negf.jpg,stim_01/b.jpg,stim_01/a.jpg,1,1,f,1,41,101,8,f,1,0.58319827069,01,02,60.0200413082,PLT_learning_01,B,2014_Mrz_10_0859,P22,
stim_fb/ques.jpg,stim_fb/negf.jpg,stim_fb/posf.jpg,stim_01/d.jpg,stim_01/c.jpg,1,2,f,1,42,102,26,f,1,0.749818951737,01,02,60.0200413082,PLT_learning_01,B,2014_Mrz_10_0859,P22,
stim_fb/ques.jpg,stim_fb/negf.jpg,stim_fb/posf.jpg,stim_01/d.jpg,stim_01/c.jpg,1,2,f,1,43,103,21,f,1,0.566541304201,01,02,60.0200413082,PLT_learning_01,B,2014_Mrz_10_0859,P22,
stim_fb/ques.jpg,stim_fb/negf.jpg,stim_fb/posf.jpg,stim_01/b.jpg,stim_01/a.jpg,1,1,f,1,44,104,3,f,1,0.649833784709,01,02,60.0200413082,PLT_learning_01,B,2014_Mrz_10_0859,P22,
stim_fb/ques.jpg,stim_fb/negf.jpg,stim_fb/posf.jpg,stim_01/d.jpg,stim_01/c.jpg,1,2,f,1,45,105,23,f,1,0.466571204728,01,02,60.0200413082,PLT_learning_01,B,2014_Mrz_10_0859,P22,
stim_fb/ques.jpg,stim_fb/negf.jpg,stim_fb/posf.jpg,stim_01/a.jpg,stim_01/b.jpg,2,1,j,1,46,106,13,j,1,0.616521199089,01,02,60.0200413082,PLT_learning_01,B,2014_Mrz_10_0859,P22,
stim_fb/ques.jpg,stim_fb/posf.jpg,stim_fb/negf.jpg,stim_01/c.jpg,stim_01/d.jpg,2,2,j,1,47,107,38,j,1,0.649784022677,01,02,60.0200413082,PLT_learning_01,B,2014_Mrz_10_0859,P22,
stim_fb/ques.jpg,stim_fb/negf.jpg,stim_fb/posf.jpg,stim_01/a.jpg,stim_01/b.jpg,2,1,j,1,48,108,12,j,1,0.616498826325,01,02,60.0200413082,PLT_learning_01,B,2014_Mrz_10_0859,P22,
stim_fb/ques.jpg,stim_fb/posf.jpg,stim_fb/negf.jpg,stim_01/f.jpg,stim_01/e.jpg,1,3,f,1,49,109,49,f,1,0.966415729205,01,02,60.0200413082,PLT_learning_01,B,2014_Mrz_10_0859,P22,
stim_fb/ques.jpg,stim_fb/negf.jpg,stim_fb/posf.jpg,stim_01/f.jpg,stim_01/e.jpg,1,3,f,1,50,110,45,j,0,1.18299537297,01,02,60.0200413082,PLT_learning_01,B,2014_Mrz_10_0859,P22,
stim_fb/ques.jpg,stim_fb/negf.jpg,stim_fb/posf.jpg,stim_01/a.jpg,stim_01/b.jpg,2,1,j,1,51,111,10,j,1,0.599865814543,01,02,60.0200413082,PLT_learning_01,B,2014_Mrz_10_0859,P22,
stim_fb/ques.jpg,stim_fb/negf.jpg,stim_fb/posf.jpg,stim_01/f.jpg,stim_01/e.jpg,1,3,f,1,52,112,42,f,1,0.899739277148,01,02,60.0200413082,PLT_learning_01,B,2014_Mrz_10_0859,P22,
stim_fb/ques.jpg,stim_fb/negf.jpg,stim_fb/posf.jpg,stim_01/a.jpg,stim_01/b.jpg,2,1,j,1,53,113,11,j,1,0.583175275374,01,02,60.0200413082,PLT_learning_01,B,2014_Mrz_10_0859,P22,
stim_fb/ques.jpg,stim_fb/negf.jpg,stim_fb/posf.jpg,stim_01/a.jpg,stim_01/b.jpg,2,1,j,1,54,114,17,j,1,0.583186024165,01,02,60.0200413082,PLT_learning_01,B,2014_Mrz_10_0859,P22,
stim_fb/ques.jpg,stim_fb/negf.jpg,stim_fb/posf.jpg,stim_01/c.jpg,stim_01/d.jpg,2,2,j,1,55,115,30,j,1,0.666549902632,01,02,60.0200413082,PLT_learning_01,B,2014_Mrz_10_0859,P22,
stim_fb/ques.jpg,stim_fb/posf.jpg,stim_fb/negf.jpg,stim_01/e.jpg,stim_01/f.jpg,2,3,j,1,56,116,59,j,1,0.849769349103,01,02,60.0200413082,PLT_learning_01,B,2014_Mrz_10_0859,P22,
stim_fb/ques.jpg,stim_fb/negf.jpg,stim_fb/posf.jpg,stim_01/c.jpg,stim_01/d.jpg,2,2,j,1,57,117,33,j,1,0.633200171427,01,02,60.0200413082,PLT_learning_01,B,2014_Mrz_10_0859,P22,
stim_fb/ques.jpg,stim_fb/negf.jpg,stim_fb/posf.jpg,stim_01/f.jpg,stim_01/e.jpg,1,3,f,1,58,118,43,f,1,0.766456384538,01,02,60.0200413082,PLT_learning_01,B,2014_Mrz_10_0859,P22,
stim_fb/ques.jpg,stim_fb/negf.jpg,stim_fb/posf.jpg,stim_01/b.jpg,stim_01/a.jpg,1,1,f,1,59,119,2,f,1,0.666527593026,01,02,60.0200413082,PLT_learning_01,B,2014_Mrz_10_0859,P22,
stim_fb/ques.jpg,stim_fb/negf.jpg,stim_fb/posf.jpg,stim_01/b.jpg,stim_01/a.jpg,1,1,f,2,0,120,6,f,1,0.533174454328,01,02,60.0200413082,PLT_learning_01,B,2014_Mrz_10_0859,P22,
stim_fb/ques.jpg,stim_fb/negf.jpg,stim_fb/posf.jpg,stim_01/c.jpg,stim_01/d.jpg,2,2,j,2,1,121,33,j,1,0.666497460921,01,02,60.0200413082,PLT_learning_01,B,2014_Mrz_10_0859,P22,
stim_fb/ques.jpg,stim_fb/negf.jpg,stim_fb/posf.jpg,stim_01/b.jpg,stim_01/a.jpg,1,1,f,2,2,122,2,f,1,0.71647329569,01,02,60.0200413082,PLT_learning_01,B,2014_Mrz_10_0859,P22,
stim_fb/ques.jpg,stim_fb/negf.jpg,stim_fb/posf.jpg,stim_01/b.jpg,stim_01/a.jpg,1,1,f,2,3,123,0,f,1,0.683162111563,01,02,60.0200413082,PLT_learning_01,B,2014_Mrz_10_0859,P22,
stim_fb/ques.jpg,stim_fb/negf.jpg,stim_fb/posf.jpg,stim_01/d.jpg,stim_01/c.jpg,1,2,f,2,4,124,21,f,1,0.566527150924,01,02,60.0200413082,PLT_learning_01,B,2014_Mrz_10_0859,P22,
stim_fb/ques.jpg,stim_fb/posf.jpg,stim_fb/negf.jpg,stim_01/f.jpg,stim_01/e.jpg,1,3,f,2,5,125,47,f,1,0.749788350464,01,02,60.0200413082,PLT_learning_01,B,2014_Mrz_10_0859,P22,
stim_fb/ques.jpg,stim_fb/posf.jpg,stim_fb/negf.jpg,stim_01/e.jpg,stim_01/f.jpg,2,3,j,2,6,126,56,f,0,0.833121579537,01,02,60.0200413082,PLT_learning_01,B,2014_Mrz_10_0859,P22,
stim_fb/ques.jpg,stim_fb/negf.jpg,stim_fb/posf.jpg,stim_01/e.jpg,stim_01/f.jpg,2,3,j,2,7,127,52,f,0,0.616521069766,01,02,60.0200413082,PLT_learning_01,B,2014_Mrz_10_0859,P22,
stim_fb/ques.jpg,stim_fb/negf.jpg,stim_fb/posf.jpg,stim_01/f.jpg,stim_01/e.jpg,1,3,f,2,8,128,44,j,0,0.683220878039,01,02,60.0200413082,PLT_learning_01,B,2014_Mrz_10_0859,P22,
stim_fb/ques.jpg,stim_fb/posf.jpg,stim_fb/negf.jpg,stim_01/c.jpg,stim_01/d.jpg,2,2,j,2,9,129,37,j,1,0.666499292487,01,02,60.0200413082,PLT_learning_01,B,2014_Mrz_10_0859,P22,
stim_fb/ques.jpg,stim_fb/negf.jpg,stim_fb/posf.jpg,stim_01/e.jpg,stim_01/f.jpg,2,3,j,2,10,130,51,j,1,0.999872560357,01,02,60.0200413082,PLT_learning_01,B,2014_Mrz_10_0859,P22,
stim_fb/ques.jpg,stim_fb/negf.jpg,stim_fb/posf.jpg,stim_01/e.jpg,stim_01/f.jpg,2,3,j,2,11,131,50,j,1,0.716484808385,01,02,60.0200413082,PLT_learning_01,B,2014_Mrz_10_0859,P22,
stim_fb/ques.jpg,stim_fb/negf.jpg,stim_fb/posf.jpg,stim_01/a.jpg,stim_01/b.jpg,2,1,j,2,12,132,13,j,1,0.716489641431,01,02,60.0200413082,PLT_learning_01,B,2014_Mrz_10_0859,P22,
stim_fb/ques.jpg,stim_fb/negf.jpg,stim_fb/posf.jpg,stim_01/c.jpg,stim_01/d.jpg,2,2,j,2,13,133,34,j,1,0.566514853272,01,02,60.0200413082,PLT_learning_01,B,2014_Mrz_10_0859,P22,
stim_fb/ques.jpg,stim_fb/negf.jpg,stim_fb/posf.jpg,stim_01/b.jpg,stim_01/a.jpg,1,1,f,2,14,134,1,f,1,0.749847528966,01,02,60.0200413082,PLT_learning_01,B,2014_Mrz_10_0859,P22,
stim_fb/ques.jpg,stim_fb/negf.jpg,stim_fb/posf.jpg,stim_01/a.jpg,stim_01/b.jpg,2,1,j,2,15,135,14,j,1,0.533226769724,01,02,60.0200413082,PLT_learning_01,B,2014_Mrz_10_0859,P22,
stim_fb/ques.jpg,stim_fb/negf.jpg,stim_fb/posf.jpg,stim_01/a.jpg,stim_01/b.jpg,2,1,j,2,16,136,16,j,1,0.549838109488,01,02,60.0200413082,PLT_learning_01,B,2014_Mrz_10_0859,P22,
stim_fb/ques.jpg,stim_fb/negf.jpg,stim_fb/posf.jpg,stim_01/a.jpg,stim_01/b.jpg,2,1,j,2,17,137,17,j,1,0.483219205871,01,02,60.0200413082,PLT_learning_01,B,2014_Mrz_10_0859,P22,
stim_fb/ques.jpg,stim_fb/negf.jpg,stim_fb/posf.jpg,stim_01/d.jpg,stim_01/c.jpg,1,2,f,2,18,138,20,f,1,0.683080500147,01,02,60.0200413082,PLT_learning_01,B,2014_Mrz_10_0859,P22,
stim_fb/ques.jpg,stim_fb/posf.jpg,stim_fb/negf.jpg,stim_01/e.jpg,stim_01/f.jpg,2,3,j,2,19,139,57,j,1,0.799698044376,01,02,60.0200413082,PLT_learning_01,B,2014_Mrz_10_0859,P22,
stim_fb/ques.jpg,stim_fb/negf.jpg,stim_fb/posf.jpg,stim_01/e.jpg,stim_01/f.jpg,2,3,j,2,20,140,53,j,1,0.833041501944,01,02,60.0200413082,PLT_learning_01,B,2014_Mrz_10_0859,P22,
stim_fb/ques.jpg,stim_fb/negf.jpg,stim_fb/posf.jpg,stim_01/d.jpg,stim_01/c.jpg,1,2,f,2,21,141,23,f,1,0.599849946993,01,02,60.0200413082,PLT_learning_01,B,2014_Mrz_10_0859,P22,
stim_fb/ques.jpg,stim_fb/negf.jpg,stim_fb/posf.jpg,stim_01/a.jpg,stim_01/b.jpg,2,1,j,2,22,142,11,j,1,0.566511815701,01,02,60.0200413082,PLT_learning_01,B,2014_Mrz_10_0859,P22,
stim_fb/ques.jpg,stim_fb/posf.jpg,stim_fb/negf.jpg,stim_01/b.jpg,stim_01/a.jpg,1,1,f,2,23,143,9,f,1,0.533196899272,01,02,60.0200413082,PLT_learning_01,B,2014_Mrz_10_0859,P22,
stim_fb/ques.jpg,stim_fb/negf.jpg,stim_fb/posf.jpg,stim_01/c.jpg,stim_01/d.jpg,2,2,j,2,24,144,31,j,1,0.566527012579,01,02,60.0200413082,PLT_learning_01,B,2014_Mrz_10_0859,P22,
stim_fb/ques.jpg,stim_fb/negf.jpg,stim_fb/posf.jpg,stim_01/d.jpg,stim_01/c.jpg,1,2,f,2,25,145,24,f,1,0.549872419004,01,02,60.0200413082,PLT_learning_01,B,2014_Mrz_10_0859,P22,
stim_fb/ques.jpg,stim_fb/negf.jpg,stim_fb/posf.jpg,stim_01/a.jpg,stim_01/b.jpg,2,1,j,2,26,146,15,j,1,0.533181221193,01,02,60.0200413082,PLT_learning_01,B,2014_Mrz_10_0859,P22,
stim_fb/ques.jpg,stim_fb/negf.jpg,stim_fb/posf.jpg,stim_01/c.jpg,stim_01/d.jpg,2,2,j,2,27,147,36,j,1,0.516511205179,01,02,60.0200413082,PLT_learning_01,B,2014_Mrz_10_0859,P22,
stim_fb/ques.jpg,stim_fb/posf.jpg,stim_fb/negf.jpg,stim_01/b.jpg,stim_01/a.jpg,1,1,f,2,28,148,8,f,1,0.48319232487,01,02,60.0200413082,PLT_learning_01,B,2014_Mrz_10_0859,P22,
stim_fb/ques.jpg,stim_fb/negf.jpg,stim_fb/posf.jpg,stim_01/d.jpg,stim_01/c.jpg,1,2,f,2,29,149,26,f,1,0.599850590597,01,02,60.0200413082,PLT_learning_01,B,2014_Mrz_10_0859,P22,
stim_fb/ques.jpg,stim_fb/negf.jpg,stim_fb/posf.jpg,stim_01/f.jpg,stim_01/e.jpg,1,3,f,2,30,150,43,f,1,0.783118845723,01,02,60.0200413082,PLT_learning_01,B,2014_Mrz_10_0859,P22,
stim_fb/ques.jpg,stim_fb/negf.jpg,stim_fb/posf.jpg,stim_01/f.jpg,stim_01/e.jpg,1,3,f,2,31,151,41,f,1,0.699806196946,01,02,60.0200413082,PLT_learning_01,B,2014_Mrz_10_0859,P22,
stim_fb/ques.jpg,stim_fb/negf.jpg,stim_fb/posf.jpg,stim_01/c.jpg,stim_01/d.jpg,2,2,j,2,32,152,30,j,1,0.64986417245,01,02,60.0200413082,PLT_learning_01,B,2014_Mrz_10_0859,P22,
stim_fb/ques.jpg,stim_fb/posf.jpg,stim_fb/negf.jpg,stim_01/c.jpg,stim_01/d.jpg,2,2,j,2,33,153,38,j,1,0.466558768731,01,02,60.0200413082,PLT_learning_01,B,2014_Mrz_10_0859,P22,
stim_fb/ques.jpg,stim_fb/negf.jpg,stim_fb/posf.jpg,stim_01/b.jpg,stim_01/a.jpg,1,1,f,2,34,154,4,f,1,0.566526952429,01,02,60.0200413082,PLT_learning_01,B,2014_Mrz_10_0859,P22,
stim_fb/ques.jpg,stim_fb/negf.jpg,stim_fb/posf.jpg,stim_01/b.jpg,stim_01/a.jpg,1,1,f,2,35,155,7,f,1,0.533206736791,01,02,60.0200413082,PLT_learning_01,B,2014_Mrz_10_0859,P22,
stim_fb/ques.jpg,stim_fb/negf.jpg,stim_fb/posf.jpg,stim_01/c.jpg,stim_01/d.jpg,2,2,j,2,36,156,32,j,1,0.516527472726,01,02,60.0200413082,PLT_learning_01,B,2014_Mrz_10_0859,P22,
stim_fb/ques.jpg,stim_fb/negf.jpg,stim_fb/posf.jpg,stim_01/c.jpg,stim_01/d.jpg,2,2,j,2,37,157,35,j,1,0.499902054872,01,02,60.0200413082,PLT_learning_01,B,2014_Mrz_10_0859,P22,
stim_fb/ques.jpg,stim_fb/negf.jpg,stim_fb/posf.jpg,stim_01/b.jpg,stim_01/a.jpg,1,1,f,2,38,158,5,f,1,0.566513776588,01,02,60.0200413082,PLT_learning_01,B,2014_Mrz_10_0859,P22,
stim_fb/ques.jpg,stim_fb/posf.jpg,stim_fb/negf.jpg,stim_01/f.jpg,stim_01/e.jpg,1,3,f,2,39,159,46,f,1,0.633231945625,01,02,60.0200413082,PLT_learning_01,B,2014_Mrz_10_0859,P22,
stim_fb/ques.jpg,stim_fb/posf.jpg,stim_fb/negf.jpg,stim_01/e.jpg,stim_01/f.jpg,2,3,j,2,40,160,58,j,1,0.716473000954,01,02,60.0200413082,PLT_learning_01,B,2014_Mrz_10_0859,P22,
stim_fb/ques.jpg,stim_fb/posf.jpg,stim_fb/negf.jpg,stim_01/d.jpg,stim_01/c.jpg,1,2,f,2,41,161,27,f,1,0.616501136082,01,02,60.0200413082,PLT_learning_01,B,2014_Mrz_10_0859,P22,
stim_fb/ques.jpg,stim_fb/negf.jpg,stim_fb/posf.jpg,stim_01/f.jpg,stim_01/e.jpg,1,3,f,2,42,162,45,j,0,0.983061327358,01,02,60.0200413082,PLT_learning_01,B,2014_Mrz_10_0859,P22,
stim_fb/ques.jpg,stim_fb/negf.jpg,stim_fb/posf.jpg,stim_01/e.jpg,stim_01/f.jpg,2,3,j,2,43,163,54,j,1,0.566478991887,01,02,60.0200413082,PLT_learning_01,B,2014_Mrz_10_0859,P22,
stim_fb/ques.jpg,stim_fb/negf.jpg,stim_fb/posf.jpg,stim_01/e.jpg,stim_01/f.jpg,2,3,j,2,44,164,55,j,1,0.583160667965,01,02,60.0200413082,PLT_learning_01,B,2014_Mrz_10_0859,P22,
stim_fb/ques.jpg,stim_fb/posf.jpg,stim_fb/negf.jpg,stim_01/e.jpg,stim_01/f.jpg,2,3,j,2,45,165,59,j,1,0.633204008992,01,02,60.0200413082,PLT_learning_01,B,2014_Mrz_10_0859,P22,
stim_fb/ques.jpg,stim_fb/posf.jpg,stim_fb/negf.jpg,stim_01/d.jpg,stim_01/c.jpg,1,2,f,2,46,166,28,f,1,0.699838452342,01,02,60.0200413082,PLT_learning_01,B,2014_Mrz_10_0859,P22,
stim_fb/ques.jpg,stim_fb/posf.jpg,stim_fb/negf.jpg,stim_01/a.jpg,stim_01/b.jpg,2,1,j,2,47,167,19,j,1,0.916401831565,01,02,60.0200413082,PLT_learning_01,B,2014_Mrz_10_0859,P22,
stim_fb/ques.jpg,stim_fb/negf.jpg,stim_fb/posf.jpg,stim_01/f.jpg,stim_01/e.jpg,1,3,f,2,48,168,40,j,0,0.883093775235,01,02,60.0200413082,PLT_learning_01,B,2014_Mrz_10_0859,P22,
stim_fb/ques.jpg,stim_fb/negf.jpg,stim_fb/posf.jpg,stim_01/f.jpg,stim_01/e.jpg,1,3,f,2,49,169,42,j,0,0.749790720371,01,02,60.0200413082,PLT_learning_01,B,2014_Mrz_10_0859,P22,
stim_fb/ques.jpg,stim_fb/negf.jpg,stim_fb/posf.jpg,stim_01/a.jpg,stim_01/b.jpg,2,1,j,2,50,170,10,j,1,0.666510480372,01,02,60.0200413082,PLT_learning_01,B,2014_Mrz_10_0859,P22,
stim_fb/ques.jpg,stim_fb/negf.jpg,stim_fb/posf.jpg,stim_01/d.jpg,stim_01/c.jpg,1,2,f,2,51,171,25,f,1,0.583188652717,01,02,60.0200413082,PLT_learning_01,B,2014_Mrz_10_0859,P22,
stim_fb/ques.jpg,stim_fb/posf.jpg,stim_fb/negf.jpg,stim_01/d.jpg,stim_01/c.jpg,1,2,f,2,52,172,29,f,1,0.583190156465,01,02,60.0200413082,PLT_learning_01,B,2014_Mrz_10_0859,P22,
stim_fb/ques.jpg,stim_fb/negf.jpg,stim_fb/posf.jpg,stim_01/b.jpg,stim_01/a.jpg,1,1,f,2,53,173,3,f,1,0.566534931316,01,02,60.0200413082,PLT_learning_01,B,2014_Mrz_10_0859,P22,
stim_fb/ques.jpg,stim_fb/negf.jpg,stim_fb/posf.jpg,stim_01/d.jpg,stim_01/c.jpg,1,2,f,2,54,174,22,f,1,0.699789081285,01,02,60.0200413082,PLT_learning_01,B,2014_Mrz_10_0859,P22,
stim_fb/ques.jpg,stim_fb/posf.jpg,stim_fb/negf.jpg,stim_01/c.jpg,stim_01/d.jpg,2,2,j,2,55,175,39,j,1,0.483196111308,01,02,60.0200413082,PLT_learning_01,B,2014_Mrz_10_0859,P22,
stim_fb/ques.jpg,stim_fb/negf.jpg,stim_fb/posf.jpg,stim_01/a.jpg,stim_01/b.jpg,2,1,j,2,56,176,12,j,1,0.616560765709,01,02,60.0200413082,PLT_learning_01,B,2014_Mrz_10_0859,P22,
stim_fb/ques.jpg,stim_fb/posf.jpg,stim_fb/negf.jpg,stim_01/a.jpg,stim_01/b.jpg,2,1,j,2,57,177,18,j,1,0.683118385576,01,02,60.0200413082,PLT_learning_01,B,2014_Mrz_10_0859,P22,
stim_fb/ques.jpg,stim_fb/posf.jpg,stim_fb/negf.jpg,stim_01/f.jpg,stim_01/e.jpg,1,3,f,2,58,178,49,f,1,0.766501632319,01,02,60.0200413082,PLT_learning_01,B,2014_Mrz_10_0859,P22,
stim_fb/ques.jpg,stim_fb/posf.jpg,stim_fb/negf.jpg,stim_01/f.jpg,stim_01/e.jpg,1,3,f,2,59,179,48,f,1,0.76646525966,01,02,60.0200413082,PLT_learning_01,B,2014_Mrz_10_0859,P22,
stim_fb/ques.jpg,stim_fb/posf.jpg,stim_fb/negf.jpg,stim_01/c.jpg,stim_01/d.jpg,2,2,j,3,0,180,38,j,1,0.58319782558,01,02,60.0200413082,PLT_learning_01,B,2014_Mrz_10_0859,P22,
stim_fb/ques.jpg,stim_fb/negf.jpg,stim_fb/posf.jpg,stim_01/a.jpg,stim_01/b.jpg,2,1,j,3,1,181,15,j,1,0.766454790565,01,02,60.0200413082,PLT_learning_01,B,2014_Mrz_10_0859,P22,
stim_fb/ques.jpg,stim_fb/posf.jpg,stim_fb/negf.jpg,stim_01/e.jpg,stim_01/f.jpg,2,3,j,3,2,182,56,j,1,0.649803649596,01,02,60.0200413082,PLT_learning_01,B,2014_Mrz_10_0859,P22,
stim_fb/ques.jpg,stim_fb/negf.jpg,stim_fb/posf.jpg,stim_01/e.jpg,stim_01/f.jpg,2,3,j,3,3,183,51,j,1,0.79980667213,01,02,60.0200413082,PLT_learning_01,B,2014_Mrz_10_0859,P22,
stim_fb/ques.jpg,stim_fb/negf.jpg,stim_fb/posf.jpg,stim_01/a.jpg,stim_01/b.jpg,2,1,j,3,4,184,16,j,1,0.466548323697,01,02,60.0200413082,PLT_learning_01,B,2014_Mrz_10_0859,P22,
stim_fb/ques.jpg,stim_fb/posf.jpg,stim_fb/negf.jpg,stim_01/e.jpg,stim_01/f.jpg,2,3,j,3,5,185,58,j,1,0.68313074037,01,02,60.0200413082,PLT_learning_01,B,2014_Mrz_10_0859,P22,
stim_fb/ques.jpg,stim_fb/negf.jpg,stim_fb/posf.jpg,stim_01/b.jpg,stim_01/a.jpg,1,1,f,3,6,186,2,f,1,0.716449728949,01,02,60.0200413082,PLT_learning_01,B,2014_Mrz_10_0859,P22,
stim_fb/ques.jpg,stim_fb/negf.jpg,stim_fb/posf.jpg,stim_01/d.jpg,stim_01/c.jpg,1,2,f,3,7,187,26,f,1,0.766466140856,01,02,60.0200413082,PLT_learning_01,B,2014_Mrz_10_0859,P22,
stim_fb/ques.jpg,stim_fb/negf.jpg,stim_fb/posf.jpg,stim_01/a.jpg,stim_01/b.jpg,2,1,j,3,8,188,11,j,1,0.566548050015,01,02,60.0200413082,PLT_learning_01,B,2014_Mrz_10_0859,P22,
stim_fb/ques.jpg,stim_fb/negf.jpg,stim_fb/posf.jpg,stim_01/a.jpg,stim_01/b.jpg,2,1,j,3,9,189,10,j,1,0.566516585589,01,02,60.0200413082,PLT_learning_01,B,2014_Mrz_10_0859,P22,
stim_fb/ques.jpg,stim_fb/posf.jpg,stim_fb/negf.jpg,stim_01/c.jpg,stim_01/d.jpg,2,2,j,3,10,190,39,j,1,0.499890650447,01,02,60.0200413082,PLT_learning_01,B,2014_Mrz_10_0859,P22,
stim_fb/ques.jpg,stim_fb/negf.jpg,stim_fb/posf.jpg,stim_01/d.jpg,stim_01/c.jpg,1,2,f,3,11,191,25,f,1,0.633194201547,01,02,60.0200413082,PLT_learning_01,B,2014_Mrz_10_0859,P22,
stim_fb/ques.jpg,stim_fb/posf.jpg,stim_fb/negf.jpg,stim_01/c.jpg,stim_01/d.jpg,2,2,j,3,12,192,37,j,1,0.433251380065,01,02,60.0200413082,PLT_learning_01,B,2014_Mrz_10_0859,P22,
stim_fb/ques.jpg,stim_fb/negf.jpg,stim_fb/posf.jpg,stim_01/c.jpg,stim_01/d.jpg,2,2,j,3,13,193,32,j,1,0.866392745919,01,02,60.0200413082,PLT_learning_01,B,2014_Mrz_10_0859,P22,
stim_fb/ques.jpg,stim_fb/negf.jpg,stim_fb/posf.jpg,stim_01/c.jpg,stim_01/d.jpg,2,2,j,3,14,194,34,f,0,0.583188986549,01,02,60.0200413082,PLT_learning_01,B,2014_Mrz_10_0859,P22,
stim_fb/ques.jpg,stim_fb/negf.jpg,stim_fb/posf.jpg,stim_01/a.jpg,stim_01/b.jpg,2,1,j,3,15,195,13,j,1,0.716504708987,01,02,60.0200413082,PLT_learning_01,B,2014_Mrz_10_0859,P22,
stim_fb/ques.jpg,stim_fb/negf.jpg,stim_fb/posf.jpg,stim_01/e.jpg,stim_01/f.jpg,2,3,j,3,16,196,50,j,1,0.899755117631,01,02,60.0200413082,PLT_learning_01,B,2014_Mrz_10_0859,P22,
stim_fb/ques.jpg,stim_fb/negf.jpg,stim_fb/posf.jpg,stim_01/c.jpg,stim_01/d.jpg,2,2,j,3,17,197,31,j,1,0.566544407936,01,02,60.0200413082,PLT_learning_01,B,2014_Mrz_10_0859,P22,
stim_fb/ques.jpg,stim_fb/negf.jpg,stim_fb/posf.jpg,stim_01/c.jpg,stim_01/d.jpg,2,2,j,3,18,198,35,j,1,0.633203816512,01,02,60.0200413082,PLT_learning_01,B,2014_Mrz_10_0859,P22,
stim_fb/ques.jpg,stim_fb/negf.jpg,stim_fb/posf.jpg,stim_01/f.jpg,stim_01/e.jpg,1,3,f,3,19,199,45,f,1,1.03306619349,01,02,60.0200413082,PLT_learning_01,B,2014_Mrz_10_0859,P22,
stim_fb/ques.jpg,stim_fb/negf.jpg,stim_fb/posf.jpg,stim_01/b.jpg,stim_01/a.jpg,1,1,f,3,20,200,1,f,1,0.616491217359,01,02,60.0200413082,PLT_learning_01,B,2014_Mrz_10_0859,P22,
stim_fb/ques.jpg,stim_fb/posf.jpg,stim_fb/negf.jpg,stim_01/b.jpg,stim_01/a.jpg,1,1,f,3,21,201,8,f,1,0.516552468026,01,02,60.0200413082,PLT_learning_01,B,2014_Mrz_10_0859,P22,
stim_fb/ques.jpg,stim_fb/posf.jpg,stim_fb/negf.jpg,stim_01/d.jpg,stim_01/c.jpg,1,2,f,3,22,202,27,f,1,0.51649292261,01,02,60.0200413082,PLT_learning_01,B,2014_Mrz_10_0859,P22,
stim_fb/ques.jpg,stim_fb/posf.jpg,stim_fb/negf.jpg,stim_01/b.jpg,stim_01/a.jpg,1,1,f,3,23,203,9,f,1,0.633185964015,01,02,60.0200413082,PLT_learning_01,B,2014_Mrz_10_0859,P22,
stim_fb/ques.jpg,stim_fb/negf.jpg,stim_fb/posf.jpg,stim_01/a.jpg,stim_01/b.jpg,2,1,j,3,24,204,14,j,1,0.633188598582,01,02,60.0200413082,PLT_learning_01,B,2014_Mrz_10_0859,P22,
stim_fb/ques.jpg,stim_fb/negf.jpg,stim_fb/posf.jpg,stim_01/d.jpg,stim_01/c.jpg,1,2,f,3,25,205,22,f,1,1.01636846941,01,02,60.0200413082,PLT_learning_01,B,2014_Mrz_10_0859,P22,
stim_fb/ques.jpg,stim_fb/posf.jpg,stim_fb/negf.jpg,stim_01/e.jpg,stim_01/f.jpg,2,3,j,3,26,206,57,j,1,0.7164022466,01,02,60.0200413082,PLT_learning_01,B,2014_Mrz_10_0859,P22,
stim_fb/ques.jpg,stim_fb/negf.jpg,stim_fb/posf.jpg,stim_01/b.jpg,stim_01/a.jpg,1,1,f,3,27,207,4,f,1,0.716398339862,01,02,60.0200413082,PLT_learning_01,B,2014_Mrz_10_0859,P22,
stim_fb/ques.jpg,stim_fb/posf.jpg,stim_fb/negf.jpg,stim_01/d.jpg,stim_01/c.jpg,1,2,f,3,28,208,29,f,1,0.633162472463,01,02,60.0200413082,PLT_learning_01,B,2014_Mrz_10_0859,P22,
stim_fb/ques.jpg,stim_fb/negf.jpg,stim_fb/posf.jpg,stim_01/f.jpg,stim_01/e.jpg,1,3,f,3,29,209,40,f,1,0.816453073285,01,02,60.0200413082,PLT_learning_01,B,2014_Mrz_10_0859,P22,
stim_fb/ques.jpg,stim_fb/negf.jpg,stim_fb/posf.jpg,stim_01/b.jpg,stim_01/a.jpg,1,1,f,3,30,210,0,f,1,0.549834386207,01,02,60.0200413082,PLT_learning_01,B,2014_Mrz_10_0859,P22,
stim_fb/ques.jpg,stim_fb/negf.jpg,stim_fb/posf.jpg,stim_01/e.jpg,stim_01/f.jpg,2,3,j,3,31,211,52,j,1,0.683160523605,01,02,60.0200413082,PLT_learning_01,B,2014_Mrz_10_0859,P22,
stim_fb/ques.jpg,stim_fb/negf.jpg,stim_fb/posf.jpg,stim_01/a.jpg,stim_01/b.jpg,2,1,j,3,32,212,12,j,1,1.01637971745,01,02,60.0200413082,PLT_learning_01,B,2014_Mrz_10_0859,P22,
stim_fb/ques.jpg,stim_fb/negf.jpg,stim_fb/posf.jpg,stim_01/c.jpg,stim_01/d.jpg,2,2,j,3,33,213,30,f,0,0.89971013451,01,02,60.0200413082,PLT_learning_01,B,2014_Mrz_10_0859,P22,
stim_fb/ques.jpg,stim_fb/posf.jpg,stim_fb/negf.jpg,stim_01/e.jpg,stim_01/f.jpg,2,3,j,3,34,214,59,j,1,0.69980272028,01,02,60.0200413082,PLT_learning_01,B,2014_Mrz_10_0859,P22,
stim_fb/ques.jpg,stim_fb/negf.jpg,stim_fb/posf.jpg,stim_01/c.jpg,stim_01/d.jpg,2,2,j,3,35,215,36,f,0,0.699813005917,01,02,60.0200413082,PLT_learning_01,B,2014_Mrz_10_0859,P22,
stim_fb/ques.jpg,stim_fb/negf.jpg,stim_fb/posf.jpg,stim_01/b.jpg,stim_01/a.jpg,1,1,f,3,36,216,5,f,1,0.649833685461,01,02,60.0200413082,PLT_learning_01,B,2014_Mrz_10_0859,P22,
stim_fb/ques.jpg,stim_fb/posf.jpg,stim_fb/negf.jpg,stim_01/a.jpg,stim_01/b.jpg,2,1,j,3,37,217,18,j,1,0.799830449395,01,02,60.0200413082,PLT_learning_01,B,2014_Mrz_10_0859,P22,
stim_fb/ques.jpg,stim_fb/negf.jpg,stim_fb/posf.jpg,stim_01/d.jpg,stim_01/c.jpg,1,2,f,3,38,218,20,f,1,0.766446736491,01,02,60.0200413082,PLT_learning_01,B,2014_Mrz_10_0859,P22,
stim_fb/ques.jpg,stim_fb/posf.jpg,stim_fb/negf.jpg,stim_01/f.jpg,stim_01/e.jpg,1,3,f,3,39,219,49,f,1,0.699831192247,01,02,60.0200413082,PLT_learning_01,B,2014_Mrz_10_0859,P22,
stim_fb/ques.jpg,stim_fb/posf.jpg,stim_fb/negf.jpg,stim_01/f.jpg,stim_01/e.jpg,1,3,f,3,40,220,47,j,0,0.566547989865,01,02,60.0200413082,PLT_learning_01,B,2014_Mrz_10_0859,P22,
stim_fb/ques.jpg,stim_fb/negf.jpg,stim_fb/posf.jpg,stim_01/f.jpg,stim_01/e.jpg,1,3,f,3,41,221,43,j,0,0.533139254592,01,02,60.0200413082,PLT_learning_01,B,2014_Mrz_10_0859,P22,
stim_fb/ques.jpg,stim_fb/negf.jpg,stim_fb/posf.jpg,stim_01/e.jpg,stim_01/f.jpg,2,3,j,3,42,222,53,f,0,0.733162562688,01,02,60.0200413082,PLT_learning_01,B,2014_Mrz_10_0859,P22,
stim_fb/ques.jpg,stim_fb/negf.jpg,stim_fb/posf.jpg,stim_01/d.jpg,stim_01/c.jpg,1,2,f,3,43,223,21,f,1,0.899809240532,01,02,60.0200413082,PLT_learning_01,B,2014_Mrz_10_0859,P22,
stim_fb/ques.jpg,stim_fb/negf.jpg,stim_fb/posf.jpg,stim_01/d.jpg,stim_01/c.jpg,1,2,f,3,44,224,23,f,1,0.566510414208,01,02,60.0200413082,PLT_learning_01,B,2014_Mrz_10_0859,P22,
stim_fb/ques.jpg,stim_fb/negf.jpg,stim_fb/posf.jpg,stim_01/e.jpg,stim_01/f.jpg,2,3,j,3,45,225,54,j,1,0.799773409222,01,02,60.0200413082,PLT_learning_01,B,2014_Mrz_10_0859,P22,
stim_fb/ques.jpg,stim_fb/negf.jpg,stim_fb/posf.jpg,stim_01/b.jpg,stim_01/a.jpg,1,1,f,3,46,226,6,f,1,0.549866319802,01,02,60.0200413082,PLT_learning_01,B,2014_Mrz_10_0859,P22,
stim_fb/ques.jpg,stim_fb/negf.jpg,stim_fb/posf.jpg,stim_01/f.jpg,stim_01/e.jpg,1,3,f,3,47,227,42,f,1,0.766458198059,01,02,60.0200413082,PLT_learning_01,B,2014_Mrz_10_0859,P22,
stim_fb/ques.jpg,stim_fb/negf.jpg,stim_fb/posf.jpg,stim_01/f.jpg,stim_01/e.jpg,1,3,f,3,48,228,41,f,1,0.583192574492,01,02,60.0200413082,PLT_learning_01,B,2014_Mrz_10_0859,P22,
stim_fb/ques.jpg,stim_fb/negf.jpg,stim_fb/posf.jpg,stim_01/b.jpg,stim_01/a.jpg,1,1,f,3,49,229,7,f,1,0.549874794926,01,02,60.0200413082,PLT_learning_01,B,2014_Mrz_10_0859,P22,
stim_fb/ques.jpg,stim_fb/negf.jpg,stim_fb/posf.jpg,stim_01/e.jpg,stim_01/f.jpg,2,3,j,3,50,230,55,j,1,0.933061670213,01,02,60.0200413082,PLT_learning_01,B,2014_Mrz_10_0859,P22,
stim_fb/ques.jpg,stim_fb/negf.jpg,stim_fb/posf.jpg,stim_01/b.jpg,stim_01/a.jpg,1,1,f,3,51,231,3,f,1,0.849723568996,01,02,60.0200413082,PLT_learning_01,B,2014_Mrz_10_0859,P22,
stim_fb/ques.jpg,stim_fb/posf.jpg,stim_fb/negf.jpg,stim_01/f.jpg,stim_01/e.jpg,1,3,f,3,52,232,48,f,1,0.899713154036,01,02,60.0200413082,PLT_learning_01,B,2014_Mrz_10_0859,P22,
stim_fb/ques.jpg,stim_fb/negf.jpg,stim_fb/posf.jpg,stim_01/f.jpg,stim_01/e.jpg,1,3,f,3,53,233,44,f,1,0.649814449515,01,02,60.0200413082,PLT_learning_01,B,2014_Mrz_10_0859,P22,
stim_fb/ques.jpg,stim_fb/negf.jpg,stim_fb/posf.jpg,stim_01/a.jpg,stim_01/b.jpg,2,1,j,3,54,234,17,j,1,0.733139071135,01,02,60.0200413082,PLT_learning_01,B,2014_Mrz_10_0859,P22,
stim_fb/ques.jpg,stim_fb/negf.jpg,stim_fb/posf.jpg,stim_01/c.jpg,stim_01/d.jpg,2,2,j,3,55,235,33,j,1,0.699825090036,01,02,60.0200413082,PLT_learning_01,B,2014_Mrz_10_0859,P22,
stim_fb/ques.jpg,stim_fb/posf.jpg,stim_fb/negf.jpg,stim_01/d.jpg,stim_01/c.jpg,1,2,f,3,56,236,28,f,1,0.566503605236,01,02,60.0200413082,PLT_learning_01,B,2014_Mrz_10_0859,P22,
stim_fb/ques.jpg,stim_fb/posf.jpg,stim_fb/negf.jpg,stim_01/a.jpg,stim_01/b.jpg,2,1,j,3,57,237,19,j,1,0.566520763002,01,02,60.0200413082,PLT_learning_01,B,2014_Mrz_10_0859,P22,
stim_fb/ques.jpg,stim_fb/posf.jpg,stim_fb/negf.jpg,stim_01/f.jpg,stim_01/e.jpg,1,3,f,3,58,238,46,f,1,0.666480498643,01,02,60.0200413082,PLT_learning_01,B,2014_Mrz_10_0859,P22,
stim_fb/ques.jpg,stim_fb/negf.jpg,stim_fb/posf.jpg,stim_01/d.jpg,stim_01/c.jpg,1,2,f,3,59,239,24,j,0,0.566502441335,01,02,60.0200413082,PLT_learning_01,B,2014_Mrz_10_0859,P22,
stim_fb/ques.jpg,stim_fb/posf.jpg,stim_fb/negf.jpg,stim_01/d.jpg,stim_01/c.jpg,1,2,f,4,0,240,28,f,1,0.666522681784,01,02,60.0200413082,PLT_learning_01,B,2014_Mrz_10_0859,P22,
stim_fb/ques.jpg,stim_fb/posf.jpg,stim_fb/negf.jpg,stim_01/f.jpg,stim_01/e.jpg,1,3,f,4,1,241,47,f,1,0.699817941218,01,02,60.0200413082,PLT_learning_01,B,2014_Mrz_10_0859,P22,
stim_fb/ques.jpg,stim_fb/posf.jpg,stim_fb/negf.jpg,stim_01/a.jpg,stim_01/b.jpg,2,1,j,4,2,242,19,j,1,0.66649431508,01,02,60.0200413082,PLT_learning_01,B,2014_Mrz_10_0859,P22,
stim_fb/ques.jpg,stim_fb/negf.jpg,stim_fb/posf.jpg,stim_01/d.jpg,stim_01/c.jpg,1,2,f,4,3,243,22,j,0,0.73317619266,01,02,60.0200413082,PLT_learning_01,B,2014_Mrz_10_0859,P22,
stim_fb/ques.jpg,stim_fb/negf.jpg,stim_fb/posf.jpg,stim_01/b.jpg,stim_01/a.jpg,1,1,f,4,4,244,2,f,1,0.733152177803,01,02,60.0200413082,PLT_learning_01,B,2014_Mrz_10_0859,P22,
stim_fb/ques.jpg,stim_fb/negf.jpg,stim_fb/posf.jpg,stim_01/d.jpg,stim_01/c.jpg,1,2,f,4,5,245,25,f,1,0.533230267442,01,02,60.0200413082,PLT_learning_01,B,2014_Mrz_10_0859,P22,
stim_fb/ques.jpg,stim_fb/negf.jpg,stim_fb/posf.jpg,stim_01/f.jpg,stim_01/e.jpg,1,3,f,4,6,246,43,f,1,0.766463891249,01,02,60.0200413082,PLT_learning_01,B,2014_Mrz_10_0859,P22,
stim_fb/ques.jpg,stim_fb/negf.jpg,stim_fb/posf.jpg,stim_01/f.jpg,stim_01/e.jpg,1,3,f,4,7,247,40,f,1,0.633171849836,01,02,60.0200413082,PLT_learning_01,B,2014_Mrz_10_0859,P22,
stim_fb/ques.jpg,stim_fb/negf.jpg,stim_fb/posf.jpg,stim_01/f.jpg,stim_01/e.jpg,1,3,f,4,8,248,42,f,1,0.583133919294,01,02,60.0200413082,PLT_learning_01,B,2014_Mrz_10_0859,P22,
stim_fb/ques.jpg,stim_fb/negf.jpg,stim_fb/posf.jpg,stim_01/c.jpg,stim_01/d.jpg,2,2,j,4,9,249,33,j,1,0.533217635957,01,02,60.0200413082,PLT_learning_01,B,2014_Mrz_10_0859,P22,
stim_fb/ques.jpg,stim_fb/negf.jpg,stim_fb/posf.jpg,stim_01/e.jpg,stim_01/f.jpg,2,3,j,4,10,250,53,j,1,0.749833077947,01,02,60.0200413082,PLT_learning_01,B,2014_Mrz_10_0859,P22,
stim_fb/ques.jpg,stim_fb/negf.jpg,stim_fb/posf.jpg,stim_01/e.jpg,stim_01/f.jpg,2,3,j,4,11,251,51,j,1,0.549840735032,01,02,60.0200413082,PLT_learning_01,B,2014_Mrz_10_0859,P22,
stim_fb/ques.jpg,stim_fb/negf.jpg,stim_fb/posf.jpg,stim_01/a.jpg,stim_01/b.jpg,2,1,j,4,12,252,15,j,1,0.64980496688,01,02,60.0200413082,PLT_learning_01,B,2014_Mrz_10_0859,P22,
stim_fb/ques.jpg,stim_fb/negf.jpg,stim_fb/posf.jpg,stim_01/f.jpg,stim_01/e.jpg,1,3,f,4,13,253,45,f,1,0.616544552297,01,02,60.0200413082,PLT_learning_01,B,2014_Mrz_10_0859,P22,
stim_fb/ques.jpg,stim_fb/posf.jpg,stim_fb/negf.jpg,stim_01/b.jpg,stim_01/a.jpg,1,1,f,4,14,254,9,f,1,0.633148544748,01,02,60.0200413082,PLT_learning_01,B,2014_Mrz_10_0859,P22,
stim_fb/ques.jpg,stim_fb/negf.jpg,stim_fb/posf.jpg,stim_01/c.jpg,stim_01/d.jpg,2,2,j,4,15,255,35,j,1,0.533193067722,01,02,60.0200413082,PLT_learning_01,B,2014_Mrz_10_0859,P22,
stim_fb/ques.jpg,stim_fb/posf.jpg,stim_fb/negf.jpg,stim_01/f.jpg,stim_01/e.jpg,1,3,f,4,16,256,49,f,1,0.58322169307,01,02,60.0200413082,PLT_learning_01,B,2014_Mrz_10_0859,P22,
stim_fb/ques.jpg,stim_fb/negf.jpg,stim_fb/posf.jpg,stim_01/d.jpg,stim_01/c.jpg,1,2,f,4,17,257,21,f,1,0.516564257412,01,02,60.0200413082,PLT_learning_01,B,2014_Mrz_10_0859,P22,
stim_fb/ques.jpg,stim_fb/posf.jpg,stim_fb/negf.jpg,stim_01/b.jpg,stim_01/a.jpg,1,1,f,4,18,258,8,f,1,0.533200592477,01,02,60.0200413082,PLT_learning_01,B,2014_Mrz_10_0859,P22,
stim_fb/ques.jpg,stim_fb/posf.jpg,stim_fb/negf.jpg,stim_01/c.jpg,stim_01/d.jpg,2,2,j,4,19,259,39,j,1,0.483225148683,01,02,60.0200413082,PLT_learning_01,B,2014_Mrz_10_0859,P22,
stim_fb/ques.jpg,stim_fb/posf.jpg,stim_fb/negf.jpg,stim_01/d.jpg,stim_01/c.jpg,1,2,f,4,20,260,29,j,0,0.583173675386,01,02,60.0200413082,PLT_learning_01,B,2014_Mrz_10_0859,P22,
stim_fb/ques.jpg,stim_fb/negf.jpg,stim_fb/posf.jpg,stim_01/e.jpg,stim_01/f.jpg,2,3,j,4,21,261,55,f,0,0.799770934053,01,02,60.0200413082,PLT_learning_01,B,2014_Mrz_10_0859,P22,
stim_fb/ques.jpg,stim_fb/negf.jpg,stim_fb/posf.jpg,stim_01/a.jpg,stim_01/b.jpg,2,1,j,4,22,262,11,j,1,0.583144177863,01,02,60.0200413082,PLT_learning_01,B,2014_Mrz_10_0859,P22,
stim_fb/ques.jpg,stim_fb/negf.jpg,stim_fb/posf.jpg,stim_01/e.jpg,stim_01/f.jpg,2,3,j,4,23,263,50,j,1,0.599841122999,01,02,60.0200413082,PLT_learning_01,B,2014_Mrz_10_0859,P22,
stim_fb/ques.jpg,stim_fb/negf.jpg,stim_fb/posf.jpg,stim_01/c.jpg,stim_01/d.jpg,2,2,j,4,24,264,34,j,1,0.499857483778,01,02,60.0200413082,PLT_learning_01,B,2014_Mrz_10_0859,P22,
stim_fb/ques.jpg,stim_fb/posf.jpg,stim_fb/negf.jpg,stim_01/e.jpg,stim_01/f.jpg,2,3,j,4,25,265,56,j,1,0.566436706491,01,02,60.0200413082,PLT_learning_01,B,2014_Mrz_10_0859,P22,
stim_fb/ques.jpg,stim_fb/negf.jpg,stim_fb/posf.jpg,stim_01/f.jpg,stim_01/e.jpg,1,3,f,4,26,266,41,f,1,0.899740465109,01,02,60.0200413082,PLT_learning_01,B,2014_Mrz_10_0859,P22,
stim_fb/ques.jpg,stim_fb/negf.jpg,stim_fb/posf.jpg,stim_01/a.jpg,stim_01/b.jpg,2,1,j,4,27,267,10,j,1,0.616518381065,01,02,60.0200413082,PLT_learning_01,B,2014_Mrz_10_0859,P22,
stim_fb/ques.jpg,stim_fb/posf.jpg,stim_fb/negf.jpg,stim_01/e.jpg,stim_01/f.jpg,2,3,j,4,28,268,58,j,1,0.56653620048,01,02,60.0200413082,PLT_learning_01,B,2014_Mrz_10_0859,P22,
stim_fb/ques.jpg,stim_fb/negf.jpg,stim_fb/posf.jpg,stim_01/b.jpg,stim_01/a.jpg,1,1,f,4,29,269,7,f,1,0.616462922835,01,02,60.0200413082,PLT_learning_01,B,2014_Mrz_10_0859,P22,
stim_fb/ques.jpg,stim_fb/negf.jpg,stim_fb/posf.jpg,stim_01/b.jpg,stim_01/a.jpg,1,1,f,4,30,270,5,f,1,0.516520146465,01,02,60.0200413082,PLT_learning_01,B,2014_Mrz_10_0859,P22,
stim_fb/ques.jpg,stim_fb/negf.jpg,stim_fb/posf.jpg,stim_01/a.jpg,stim_01/b.jpg,2,1,j,4,31,271,12,j,1,0.56654018842,01,02,60.0200413082,PLT_learning_01,B,2014_Mrz_10_0859,P22,
stim_fb/ques.jpg,stim_fb/posf.jpg,stim_fb/negf.jpg,stim_01/f.jpg,stim_01/e.jpg,1,3,f,4,32,272,48,f,1,0.616489993308,01,02,60.0200413082,PLT_learning_01,B,2014_Mrz_10_0859,P22,
stim_fb/ques.jpg,stim_fb/posf.jpg,stim_fb/negf.jpg,stim_01/a.jpg,stim_01/b.jpg,2,1,j,4,33,273,18,j,1,0.533205091691,01,02,60.0200413082,PLT_learning_01,B,2014_Mrz_10_0859,P22,
stim_fb/ques.jpg,stim_fb/posf.jpg,stim_fb/negf.jpg,stim_01/c.jpg,stim_01/d.jpg,2,2,j,4,34,274,37,j,1,0.466562531109,01,02,60.0200413082,PLT_learning_01,B,2014_Mrz_10_0859,P22,
stim_fb/ques.jpg,stim_fb/negf.jpg,stim_fb/posf.jpg,stim_01/e.jpg,stim_01/f.jpg,2,3,j,4,35,275,54,f,0,0.783094821843,01,02,60.0200413082,PLT_learning_01,B,2014_Mrz_10_0859,P22,
stim_fb/ques.jpg,stim_fb/negf.jpg,stim_fb/posf.jpg,stim_01/c.jpg,stim_01/d.jpg,2,2,j,4,36,276,32,j,1,0.499881038488,01,02,60.0200413082,PLT_learning_01,B,2014_Mrz_10_0859,P22,
stim_fb/ques.jpg,stim_fb/negf.jpg,stim_fb/posf.jpg,stim_01/c.jpg,stim_01/d.jpg,2,2,j,4,37,277,36,j,1,0.533170352102,01,02,60.0200413082,PLT_learning_01,B,2014_Mrz_10_0859,P22,
stim_fb/ques.jpg,stim_fb/negf.jpg,stim_fb/posf.jpg,stim_01/b.jpg,stim_01/a.jpg,1,1,f,4,38,278,4,f,1,0.583198848129,01,02,60.0200413082,PLT_learning_01,B,2014_Mrz_10_0859,P22,
stim_fb/ques.jpg,stim_fb/negf.jpg,stim_fb/posf.jpg,stim_01/a.jpg,stim_01/b.jpg,2,1,j,4,39,279,17,j,1,0.499898758656,01,02,60.0200413082,PLT_learning_01,B,2014_Mrz_10_0859,P22,
stim_fb/ques.jpg,stim_fb/negf.jpg,stim_fb/posf.jpg,stim_01/a.jpg,stim_01/b.jpg,2,1,j,4,40,280,14,j,1,0.466574591168,01,02,60.0200413082,PLT_learning_01,B,2014_Mrz_10_0859,P22,
stim_fb/ques.jpg,stim_fb/negf.jpg,stim_fb/posf.jpg,stim_01/b.jpg,stim_01/a.jpg,1,1,f,4,41,281,1,f,1,0.466559286021,01,02,60.0200413082,PLT_learning_01,B,2014_Mrz_10_0859,P22,
stim_fb/ques.jpg,stim_fb/negf.jpg,stim_fb/posf.jpg,stim_01/c.jpg,stim_01/d.jpg,2,2,j,4,42,282,31,j,1,0.599886382809,01,02,60.0200413082,PLT_learning_01,B,2014_Mrz_10_0859,P22,
stim_fb/ques.jpg,stim_fb/posf.jpg,stim_fb/negf.jpg,stim_01/c.jpg,stim_01/d.jpg,2,2,j,4,43,283,38,j,1,0.466539156848,01,02,60.0200413082,PLT_learning_01,B,2014_Mrz_10_0859,P22,
stim_fb/ques.jpg,stim_fb/negf.jpg,stim_fb/posf.jpg,stim_01/d.jpg,stim_01/c.jpg,1,2,f,4,44,284,20,f,1,0.483197759415,01,02,60.0200413082,PLT_learning_01,B,2014_Mrz_10_0859,P22,
stim_fb/ques.jpg,stim_fb/negf.jpg,stim_fb/posf.jpg,stim_01/c.jpg,stim_01/d.jpg,2,2,j,4,45,285,30,j,1,0.499847032729,01,02,60.0200413082,PLT_learning_01,B,2014_Mrz_10_0859,P22,
stim_fb/ques.jpg,stim_fb/negf.jpg,stim_fb/posf.jpg,stim_01/b.jpg,stim_01/a.jpg,1,1,f,4,46,286,6,f,1,0.516568792716,01,02,60.0200413082,PLT_learning_01,B,2014_Mrz_10_0859,P22,
stim_fb/ques.jpg,stim_fb/posf.jpg,stim_fb/negf.jpg,stim_01/e.jpg,stim_01/f.jpg,2,3,j,4,47,287,57,j,1,0.866437049346,01,02,60.0200413082,PLT_learning_01,B,2014_Mrz_10_0859,P22,
stim_fb/ques.jpg,stim_fb/negf.jpg,stim_fb/posf.jpg,stim_01/e.jpg,stim_01/f.jpg,2,3,j,4,48,288,52,f,0,0.73312483064,01,02,60.0200413082,PLT_learning_01,B,2014_Mrz_10_0859,P22,
stim_fb/ques.jpg,stim_fb/posf.jpg,stim_fb/negf.jpg,stim_01/e.jpg,stim_01/f.jpg,2,3,j,4,49,289,59,j,1,0.633175188157,01,02,60.0200413082,PLT_learning_01,B,2014_Mrz_10_0859,P22,
stim_fb/ques.jpg,stim_fb/posf.jpg,stim_fb/negf.jpg,stim_01/d.jpg,stim_01/c.jpg,1,2,f,4,50,290,27,f,1,0.549851119917,01,02,60.0200413082,PLT_learning_01,B,2014_Mrz_10_0859,P22,
stim_fb/ques.jpg,stim_fb/posf.jpg,stim_fb/negf.jpg,stim_01/f.jpg,stim_01/e.jpg,1,3,f,4,51,291,46,f,1,0.766507018745,01,02,60.0200413082,PLT_learning_01,B,2014_Mrz_10_0859,P22,
stim_fb/ques.jpg,stim_fb/negf.jpg,stim_fb/posf.jpg,stim_01/d.jpg,stim_01/c.jpg,1,2,f,4,52,292,26,j,0,0.649881531718,01,02,60.0200413082,PLT_learning_01,B,2014_Mrz_10_0859,P22,
stim_fb/ques.jpg,stim_fb/negf.jpg,stim_fb/posf.jpg,stim_01/a.jpg,stim_01/b.jpg,2,1,j,4,53,293,16,j,1,0.633197013556,01,02,60.0200413082,PLT_learning_01,B,2014_Mrz_10_0859,P22,
stim_fb/ques.jpg,stim_fb/negf.jpg,stim_fb/posf.jpg,stim_01/d.jpg,stim_01/c.jpg,1,2,f,4,54,294,24,f,1,0.616460820595,01,02,60.0200413082,PLT_learning_01,B,2014_Mrz_10_0859,P22,
stim_fb/ques.jpg,stim_fb/negf.jpg,stim_fb/posf.jpg,stim_01/a.jpg,stim_01/b.jpg,2,1,j,4,55,295,13,j,1,0.499909708949,01,02,60.0200413082,PLT_learning_01,B,2014_Mrz_10_0859,P22,
stim_fb/ques.jpg,stim_fb/negf.jpg,stim_fb/posf.jpg,stim_01/b.jpg,stim_01/a.jpg,1,1,f,4,56,296,3,f,1,0.566522832159,01,02,60.0200413082,PLT_learning_01,B,2014_Mrz_10_0859,P22,
stim_fb/ques.jpg,stim_fb/negf.jpg,stim_fb/posf.jpg,stim_01/d.jpg,stim_01/c.jpg,1,2,f,4,57,297,23,f,1,0.533222634416,01,02,60.0200413082,PLT_learning_01,B,2014_Mrz_10_0859,P22,
stim_fb/ques.jpg,stim_fb/negf.jpg,stim_fb/posf.jpg,stim_01/b.jpg,stim_01/a.jpg,1,1,f,4,58,298,0,f,1,0.566529863685,01,02,60.0200413082,PLT_learning_01,B,2014_Mrz_10_0859,P22,
stim_fb/ques.jpg,stim_fb/negf.jpg,stim_fb/posf.jpg,stim_01/f.jpg,stim_01/e.jpg,1,3,f,4,59,299,44,f,1,0.766478534748,01,02,60.0200413082,PLT_learning_01,B,2014_Mrz_10_0859,P22,
stim_fb/ques.jpg,stim_fb/negf.jpg,stim_fb/posf.jpg,stim_01/e.jpg,stim_01/f.jpg,2,3,j,5,0,300,54,j,1,0.716439801205,01,02,60.0200413082,PLT_learning_01,B,2014_Mrz_10_0859,P22,
stim_fb/ques.jpg,stim_fb/negf.jpg,stim_fb/posf.jpg,stim_01/f.jpg,stim_01/e.jpg,1,3,f,5,1,301,42,f,1,0.783087215886,01,02,60.0200413082,PLT_learning_01,B,2014_Mrz_10_0859,P22,
stim_fb/ques.jpg,stim_fb/negf.jpg,stim_fb/posf.jpg,stim_01/c.jpg,stim_01/d.jpg,2,2,j,5,2,302,31,j,1,0.649855035676,01,02,60.0200413082,PLT_learning_01,B,2014_Mrz_10_0859,P22,
stim_fb/ques.jpg,stim_fb/posf.jpg,stim_fb/negf.jpg,stim_01/f.jpg,stim_01/e.jpg,1,3,f,5,3,303,47,f,1,0.64983408245,01,02,60.0200413082,PLT_learning_01,B,2014_Mrz_10_0859,P22,
stim_fb/ques.jpg,stim_fb/posf.jpg,stim_fb/negf.jpg,stim_01/d.jpg,stim_01/c.jpg,1,2,f,5,4,304,29,f,1,0.600150068045,01,02,60.0200413082,PLT_learning_01,B,2014_Mrz_10_0859,P22,
stim_fb/ques.jpg,stim_fb/negf.jpg,stim_fb/posf.jpg,stim_01/b.jpg,stim_01/a.jpg,1,1,f,5,5,305,3,f,1,0.633216490101,01,02,60.0200413082,PLT_learning_01,B,2014_Mrz_10_0859,P22,
stim_fb/ques.jpg,stim_fb/negf.jpg,stim_fb/posf.jpg,stim_01/b.jpg,stim_01/a.jpg,1,1,f,5,6,306,2,f,1,0.533201771415,01,02,60.0200413082,PLT_learning_01,B,2014_Mrz_10_0859,P22,
stim_fb/ques.jpg,stim_fb/posf.jpg,stim_fb/negf.jpg,stim_01/b.jpg,stim_01/a.jpg,1,1,f,5,7,307,9,f,1,0.483221208863,01,02,60.0200413082,PLT_learning_01,B,2014_Mrz_10_0859,P22,
stim_fb/ques.jpg,stim_fb/negf.jpg,stim_fb/posf.jpg,stim_01/d.jpg,stim_01/c.jpg,1,2,f,5,8,308,23,f,1,0.58322532011,01,02,60.0200413082,PLT_learning_01,B,2014_Mrz_10_0859,P22,
stim_fb/ques.jpg,stim_fb/negf.jpg,stim_fb/posf.jpg,stim_01/a.jpg,stim_01/b.jpg,2,1,j,5,9,309,12,j,1,0.583196039127,01,02,60.0200413082,PLT_learning_01,B,2014_Mrz_10_0859,P22,
stim_fb/ques.jpg,stim_fb/negf.jpg,stim_fb/posf.jpg,stim_01/b.jpg,stim_01/a.jpg,1,1,f,5,10,310,4,f,1,0.483221284051,01,02,60.0200413082,PLT_learning_01,B,2014_Mrz_10_0859,P22,
stim_fb/ques.jpg,stim_fb/negf.jpg,stim_fb/posf.jpg,stim_01/c.jpg,stim_01/d.jpg,2,2,j,5,11,311,36,j,1,0.49986590176,01,02,60.0200413082,PLT_learning_01,B,2014_Mrz_10_0859,P22,
stim_fb/ques.jpg,stim_fb/posf.jpg,stim_fb/negf.jpg,stim_01/e.jpg,stim_01/f.jpg,2,3,j,5,12,312,56,j,1,0.616548395877,01,02,60.0200413082,PLT_learning_01,B,2014_Mrz_10_0859,P22,
stim_fb/ques.jpg,stim_fb/negf.jpg,stim_fb/posf.jpg,stim_01/d.jpg,stim_01/c.jpg,1,2,f,5,13,313,24,f,1,0.566523818618,01,02,60.0200413082,PLT_learning_01,B,2014_Mrz_10_0859,P22,
stim_fb/ques.jpg,stim_fb/negf.jpg,stim_fb/posf.jpg,stim_01/d.jpg,stim_01/c.jpg,1,2,f,5,14,314,20,f,1,0.733120163006,01,02,60.0200413082,PLT_learning_01,B,2014_Mrz_10_0859,P22,
stim_fb/ques.jpg,stim_fb/negf.jpg,stim_fb/posf.jpg,stim_01/e.jpg,stim_01/f.jpg,2,3,j,5,15,315,50,f,0,0.833102704491,01,02,60.0200413082,PLT_learning_01,B,2014_Mrz_10_0859,P22,
stim_fb/ques.jpg,stim_fb/negf.jpg,stim_fb/posf.jpg,stim_01/c.jpg,stim_01/d.jpg,2,2,j,5,16,316,30,j,1,0.583171377659,01,02,60.0200413082,PLT_learning_01,B,2014_Mrz_10_0859,P22,
stim_fb/ques.jpg,stim_fb/negf.jpg,stim_fb/posf.jpg,stim_01/a.jpg,stim_01/b.jpg,2,1,j,5,17,317,16,j,1,0.583119314892,01,02,60.0200413082,PLT_learning_01,B,2014_Mrz_10_0859,P22,
stim_fb/ques.jpg,stim_fb/posf.jpg,stim_fb/negf.jpg,stim_01/c.jpg,stim_01/d.jpg,2,2,j,5,18,318,38,j,1,0.83308967301,01,02,60.0200413082,PLT_learning_01,B,2014_Mrz_10_0859,P22,
stim_fb/ques.jpg,stim_fb/negf.jpg,stim_fb/posf.jpg,stim_01/f.jpg,stim_01/e.jpg,1,3,f,5,19,319,45,j,0,0.866418793843,01,02,60.0200413082,PLT_learning_01,B,2014_Mrz_10_0859,P22,
stim_fb/ques.jpg,stim_fb/posf.jpg,stim_fb/negf.jpg,stim_01/c.jpg,stim_01/d.jpg,2,2,j,5,20,320,39,j,1,0.533230568191,01,02,60.0200413082,PLT_learning_01,B,2014_Mrz_10_0859,P22,
stim_fb/ques.jpg,stim_fb/negf.jpg,stim_fb/posf.jpg,stim_01/c.jpg,stim_01/d.jpg,2,2,j,5,21,321,33,j,1,0.466564861918,01,02,60.0200413082,PLT_learning_01,B,2014_Mrz_10_0859,P22,
stim_fb/ques.jpg,stim_fb/posf.jpg,stim_fb/negf.jpg,stim_01/d.jpg,stim_01/c.jpg,1,2,f,5,22,322,27,f,1,0.549859598048,01,02,60.0200413082,PLT_learning_01,B,2014_Mrz_10_0859,P22,
stim_fb/ques.jpg,stim_fb/negf.jpg,stim_fb/posf.jpg,stim_01/d.jpg,stim_01/c.jpg,1,2,f,5,23,323,22,f,1,0.566553102608,01,02,60.0200413082,PLT_learning_01,B,2014_Mrz_10_0859,P22,
stim_fb/ques.jpg,stim_fb/negf.jpg,stim_fb/posf.jpg,stim_01/f.jpg,stim_01/e.jpg,1,3,f,5,24,324,41,f,1,0.716479079104,01,02,60.0200413082,PLT_learning_01,B,2014_Mrz_10_0859,P22,
stim_fb/ques.jpg,stim_fb/posf.jpg,stim_fb/negf.jpg,stim_01/e.jpg,stim_01/f.jpg,2,3,j,5,25,325,57,j,1,0.616495891009,01,02,60.0200413082,PLT_learning_01,B,2014_Mrz_10_0859,P22,
stim_fb/ques.jpg,stim_fb/negf.jpg,stim_fb/posf.jpg,stim_01/e.jpg,stim_01/f.jpg,2,3,j,5,26,326,52,j,1,0.616379230231,01,02,60.0200413082,PLT_learning_01,B,2014_Mrz_10_0859,P22,
stim_fb/ques.jpg,stim_fb/posf.jpg,stim_fb/negf.jpg,stim_01/e.jpg,stim_01/f.jpg,2,3,j,5,27,327,58,j,1,0.533196806039,01,02,60.0200413082,PLT_learning_01,B,2014_Mrz_10_0859,P22,
stim_fb/ques.jpg,stim_fb/negf.jpg,stim_fb/posf.jpg,stim_01/a.jpg,stim_01/b.jpg,2,1,j,5,28,328,13,j,1,0.533253599597,01,02,60.0200413082,PLT_learning_01,B,2014_Mrz_10_0859,P22,
stim_fb/ques.jpg,stim_fb/negf.jpg,stim_fb/posf.jpg,stim_01/c.jpg,stim_01/d.jpg,2,2,j,5,29,329,35,j,1,0.483229527598,01,02,60.0200413082,PLT_learning_01,B,2014_Mrz_10_0859,P22,
stim_fb/ques.jpg,stim_fb/posf.jpg,stim_fb/negf.jpg,stim_01/a.jpg,stim_01/b.jpg,2,1,j,5,30,330,19,j,1,0.51650783979,01,02,60.0200413082,PLT_learning_01,B,2014_Mrz_10_0859,P22,
stim_fb/ques.jpg,stim_fb/posf.jpg,stim_fb/negf.jpg,stim_01/f.jpg,stim_01/e.jpg,1,3,f,5,31,331,49,f,1,0.89975388155,01,02,60.0200413082,PLT_learning_01,B,2014_Mrz_10_0859,P22,
stim_fb/ques.jpg,stim_fb/posf.jpg,stim_fb/negf.jpg,stim_01/b.jpg,stim_01/a.jpg,1,1,f,5,32,332,8,f,1,0.649850978564,01,02,60.0200413082,PLT_learning_01,B,2014_Mrz_10_0859,P22,
stim_fb/ques.jpg,stim_fb/negf.jpg,stim_fb/posf.jpg,stim_01/f.jpg,stim_01/e.jpg,1,3,f,5,33,333,43,f,1,1.01632191337,01,02,60.0200413082,PLT_learning_01,B,2014_Mrz_10_0859,P22,
stim_fb/ques.jpg,stim_fb/posf.jpg,stim_fb/negf.jpg,stim_01/e.jpg,stim_01/f.jpg,2,3,j,5,34,334,59,j,1,0.816450363531,01,02,60.0200413082,PLT_learning_01,B,2014_Mrz_10_0859,P22,
stim_fb/ques.jpg,stim_fb/posf.jpg,stim_fb/negf.jpg,stim_01/d.jpg,stim_01/c.jpg,1,2,f,5,35,335,28,f,1,0.649810205939,01,02,60.0200413082,PLT_learning_01,B,2014_Mrz_10_0859,P22,
stim_fb/ques.jpg,stim_fb/negf.jpg,stim_fb/posf.jpg,stim_01/b.jpg,stim_01/a.jpg,1,1,f,5,36,336,7,f,1,0.566533003511,01,02,60.0200413082,PLT_learning_01,B,2014_Mrz_10_0859,P22,
stim_fb/ques.jpg,stim_fb/posf.jpg,stim_fb/negf.jpg,stim_01/c.jpg,stim_01/d.jpg,2,2,j,5,37,337,37,j,1,0.54987222051,01,02,60.0200413082,PLT_learning_01,B,2014_Mrz_10_0859,P22,
stim_fb/ques.jpg,stim_fb/negf.jpg,stim_fb/posf.jpg,stim_01/a.jpg,stim_01/b.jpg,2,1,j,5,38,338,14,j,1,0.566479476094,01,02,60.0200413082,PLT_learning_01,B,2014_Mrz_10_0859,P22,
stim_fb/ques.jpg,stim_fb/posf.jpg,stim_fb/negf.jpg,stim_01/a.jpg,stim_01/b.jpg,2,1,j,5,39,339,18,j,1,0.833136111758,01,02,60.0200413082,PLT_learning_01,B,2014_Mrz_10_0859,P22,
stim_fb/ques.jpg,stim_fb/negf.jpg,stim_fb/posf.jpg,stim_01/b.jpg,stim_01/a.jpg,1,1,f,5,40,340,6,f,1,0.633155513116,01,02,60.0200413082,PLT_learning_01,B,2014_Mrz_10_0859,P22,
stim_fb/ques.jpg,stim_fb/negf.jpg,stim_fb/posf.jpg,stim_01/e.jpg,stim_01/f.jpg,2,3,j,5,41,341,53,j,1,1.18300624807,01,02,60.0200413082,PLT_learning_01,B,2014_Mrz_10_0859,P22,
stim_fb/ques.jpg,stim_fb/posf.jpg,stim_fb/negf.jpg,stim_01/f.jpg,stim_01/e.jpg,1,3,f,5,42,342,48,j,0,0.849770218269,01,02,60.0200413082,PLT_learning_01,B,2014_Mrz_10_0859,P22,
stim_fb/ques.jpg,stim_fb/negf.jpg,stim_fb/posf.jpg,stim_01/e.jpg,stim_01/f.jpg,2,3,j,5,43,343,51,j,1,0.583167907008,01,02,60.0200413082,PLT_learning_01,B,2014_Mrz_10_0859,P22,
stim_fb/ques.jpg,stim_fb/negf.jpg,stim_fb/posf.jpg,stim_01/b.jpg,stim_01/a.jpg,1,1,f,5,44,344,5,f,1,0.599867646108,01,02,60.0200413082,PLT_learning_01,B,2014_Mrz_10_0859,P22,
stim_fb/ques.jpg,stim_fb/negf.jpg,stim_fb/posf.jpg,stim_01/d.jpg,stim_01/c.jpg,1,2,f,5,45,345,26,j,0,0.516568783693,01,02,60.0200413082,PLT_learning_01,B,2014_Mrz_10_0859,P22,
stim_fb/ques.jpg,stim_fb/negf.jpg,stim_fb/posf.jpg,stim_01/a.jpg,stim_01/b.jpg,2,1,j,5,46,346,15,j,1,0.599846094391,01,02,60.0200413082,PLT_learning_01,B,2014_Mrz_10_0859,P22,
stim_fb/ques.jpg,stim_fb/negf.jpg,stim_fb/posf.jpg,stim_01/a.jpg,stim_01/b.jpg,2,1,j,5,47,347,10,j,1,0.516529180984,01,02,60.0200413082,PLT_learning_01,B,2014_Mrz_10_0859,P22,
stim_fb/ques.jpg,stim_fb/negf.jpg,stim_fb/posf.jpg,stim_01/f.jpg,stim_01/e.jpg,1,3,f,5,48,348,44,f,1,0.749835068909,01,02,60.0200413082,PLT_learning_01,B,2014_Mrz_10_0859,P22,
stim_fb/ques.jpg,stim_fb/negf.jpg,stim_fb/posf.jpg,stim_01/a.jpg,stim_01/b.jpg,2,1,j,5,49,349,17,j,1,0.533204081172,01,02,60.0200413082,PLT_learning_01,B,2014_Mrz_10_0859,P22,
stim_fb/ques.jpg,stim_fb/negf.jpg,stim_fb/posf.jpg,stim_01/b.jpg,stim_01/a.jpg,1,1,f,5,50,350,1,f,1,0.549856139427,01,02,60.0200413082,PLT_learning_01,B,2014_Mrz_10_0859,P22,
stim_fb/ques.jpg,stim_fb/negf.jpg,stim_fb/posf.jpg,stim_01/d.jpg,stim_01/c.jpg,1,2,f,5,51,351,21,f,1,0.666468901738,01,02,60.0200413082,PLT_learning_01,B,2014_Mrz_10_0859,P22,
stim_fb/ques.jpg,stim_fb/negf.jpg,stim_fb/posf.jpg,stim_01/b.jpg,stim_01/a.jpg,1,1,f,5,52,352,0,f,1,0.516583108398,01,02,60.0200413082,PLT_learning_01,B,2014_Mrz_10_0859,P22,
stim_fb/ques.jpg,stim_fb/negf.jpg,stim_fb/posf.jpg,stim_01/a.jpg,stim_01/b.jpg,2,1,j,5,53,353,11,j,1,0.599845844768,01,02,60.0200413082,PLT_learning_01,B,2014_Mrz_10_0859,P22,
stim_fb/ques.jpg,stim_fb/negf.jpg,stim_fb/posf.jpg,stim_01/d.jpg,stim_01/c.jpg,1,2,f,5,54,354,25,f,1,0.616535054623,01,02,60.0200413082,PLT_learning_01,B,2014_Mrz_10_0859,P22,
stim_fb/ques.jpg,stim_fb/negf.jpg,stim_fb/posf.jpg,stim_01/c.jpg,stim_01/d.jpg,2,2,j,5,55,355,34,j,1,1.01638466478,01,02,60.0200413082,PLT_learning_01,B,2014_Mrz_10_0859,P22,
stim_fb/ques.jpg,stim_fb/posf.jpg,stim_fb/negf.jpg,stim_01/f.jpg,stim_01/e.jpg,1,3,f,5,56,356,46,f,1,0.766478606928,01,02,60.0200413082,PLT_learning_01,B,2014_Mrz_10_0859,P22,
stim_fb/ques.jpg,stim_fb/negf.jpg,stim_fb/posf.jpg,stim_01/e.jpg,stim_01/f.jpg,2,3,j,5,57,357,55,j,1,0.549904942068,01,02,60.0200413082,PLT_learning_01,B,2014_Mrz_10_0859,P22,
stim_fb/ques.jpg,stim_fb/negf.jpg,stim_fb/posf.jpg,stim_01/c.jpg,stim_01/d.jpg,2,2,j,5,58,358,32,j,1,0.566572795693,01,02,60.0200413082,PLT_learning_01,B,2014_Mrz_10_0859,P22,
stim_fb/ques.jpg,stim_fb/negf.jpg,stim_fb/posf.jpg,stim_01/f.jpg,stim_01/e.jpg,1,3,f,5,59,359,40,f,1,0.716458480763,01,02,60.0200413082,PLT_learning_01,B,2014_Mrz_10_0859,P22,
