Fb3,Fb2,Fb1,Symbol2,Symbol1,PosCond,Pair,Correct,trials.thisRepN,trials.thisTrialN,trials.thisN,trials.thisIndex,Response.keys,Response.corr,Response.rt,Version,Session Number,frameRate,expName,StimCondition,date,Participant,
stim_fb/ques.jpg,stim_fb/negf.jpg,stim_fb/posf.jpg,stim_01/a.jpg,stim_01/b.jpg,2,1,j,0,0,0,10,f,0,1.41623365752,01,03,60.0184955965,PLT_learning_01,B,2014_Mrz_27_1324,P23,
stim_fb/ques.jpg,stim_fb/posf.jpg,stim_fb/negf.jpg,stim_01/a.jpg,stim_01/b.jpg,2,1,j,0,1,1,19,j,1,0.966385828731,01,03,60.0184955965,PLT_learning_01,B,2014_Mrz_27_1324,P23,
stim_fb/ques.jpg,stim_fb/negf.jpg,stim_fb/posf.jpg,stim_01/b.jpg,stim_01/a.jpg,1,1,f,0,2,2,3,f,1,1.03306518498,01,03,60.0184955965,PLT_learning_01,B,2014_Mrz_27_1324,P23,
stim_fb/ques.jpg,stim_fb/negf.jpg,stim_fb/posf.jpg,stim_01/f.jpg,stim_01/e.jpg,1,3,f,0,3,3,41,f,1,0.899786480604,01,03,60.0184955965,PLT_learning_01,B,2014_Mrz_27_1324,P23,
stim_fb/ques.jpg,stim_fb/negf.jpg,stim_fb/posf.jpg,stim_01/c.jpg,stim_01/d.jpg,2,2,j,0,4,4,30,j,1,1.08302810419,01,03,60.0184955965,PLT_learning_01,B,2014_Mrz_27_1324,P23,
stim_fb/ques.jpg,stim_fb/negf.jpg,stim_fb/posf.jpg,stim_01/e.jpg,stim_01/f.jpg,2,3,j,0,5,5,55,j,1,0.716461660959,01,03,60.0184955965,PLT_learning_01,B,2014_Mrz_27_1324,P23,
stim_fb/ques.jpg,stim_fb/posf.jpg,stim_fb/negf.jpg,stim_01/f.jpg,stim_01/e.jpg,1,3,f,0,6,6,47,f,1,0.749818596031,01,03,60.0184955965,PLT_learning_01,B,2014_Mrz_27_1324,P23,
stim_fb/ques.jpg,stim_fb/negf.jpg,stim_fb/posf.jpg,stim_01/c.jpg,stim_01/d.jpg,2,2,j,0,7,7,31,j,1,0.799778781442,01,03,60.0184955965,PLT_learning_01,B,2014_Mrz_27_1324,P23,
stim_fb/ques.jpg,stim_fb/negf.jpg,stim_fb/posf.jpg,stim_01/b.jpg,stim_01/a.jpg,1,1,f,0,8,8,6,f,1,0.816491982421,01,03,60.0184955965,PLT_learning_01,B,2014_Mrz_27_1324,P23,
stim_fb/ques.jpg,stim_fb/negf.jpg,stim_fb/posf.jpg,stim_01/f.jpg,stim_01/e.jpg,1,3,f,0,9,9,40,f,1,0.81639821205,01,03,60.0184955965,PLT_learning_01,B,2014_Mrz_27_1324,P23,
stim_fb/ques.jpg,stim_fb/negf.jpg,stim_fb/posf.jpg,stim_01/d.jpg,stim_01/c.jpg,1,2,f,0,10,10,21,j,0,0.94973268121,01,03,60.0184955965,PLT_learning_01,B,2014_Mrz_27_1324,P23,
stim_fb/ques.jpg,stim_fb/negf.jpg,stim_fb/posf.jpg,stim_01/a.jpg,stim_01/b.jpg,2,1,j,0,11,11,16,j,1,0.866340505934,01,03,60.0184955965,PLT_learning_01,B,2014_Mrz_27_1324,P23,
stim_fb/ques.jpg,stim_fb/negf.jpg,stim_fb/posf.jpg,stim_01/a.jpg,stim_01/b.jpg,2,1,j,0,12,12,13,j,1,0.76643784619,01,03,60.0184955965,PLT_learning_01,B,2014_Mrz_27_1324,P23,
stim_fb/ques.jpg,stim_fb/posf.jpg,stim_fb/negf.jpg,stim_01/c.jpg,stim_01/d.jpg,2,2,j,0,13,13,39,j,1,1.03300022631,01,03,60.0184955965,PLT_learning_01,B,2014_Mrz_27_1324,P23,
stim_fb/ques.jpg,stim_fb/negf.jpg,stim_fb/posf.jpg,stim_01/b.jpg,stim_01/a.jpg,1,1,f,0,14,14,0,f,1,0.849747926151,01,03,60.0184955965,PLT_learning_01,B,2014_Mrz_27_1324,P23,
stim_fb/ques.jpg,stim_fb/posf.jpg,stim_fb/negf.jpg,stim_01/e.jpg,stim_01/f.jpg,2,3,j,0,15,15,59,j,1,0.566514594196,01,03,60.0184955965,PLT_learning_01,B,2014_Mrz_27_1324,P23,
stim_fb/ques.jpg,stim_fb/posf.jpg,stim_fb/negf.jpg,stim_01/d.jpg,stim_01/c.jpg,1,2,f,0,16,16,28,f,1,0.799825412495,01,03,60.0184955965,PLT_learning_01,B,2014_Mrz_27_1324,P23,
stim_fb/ques.jpg,stim_fb/negf.jpg,stim_fb/posf.jpg,stim_01/c.jpg,stim_01/d.jpg,2,2,j,0,17,17,33,j,1,0.783120358793,01,03,60.0184955965,PLT_learning_01,B,2014_Mrz_27_1324,P23,
stim_fb/ques.jpg,stim_fb/negf.jpg,stim_fb/posf.jpg,stim_01/e.jpg,stim_01/f.jpg,2,3,j,0,18,18,50,j,1,0.666490528302,01,03,60.0184955965,PLT_learning_01,B,2014_Mrz_27_1324,P23,
stim_fb/ques.jpg,stim_fb/negf.jpg,stim_fb/posf.jpg,stim_01/a.jpg,stim_01/b.jpg,2,1,j,0,19,19,12,j,1,0.716490773412,01,03,60.0184955965,PLT_learning_01,B,2014_Mrz_27_1324,P23,
stim_fb/ques.jpg,stim_fb/posf.jpg,stim_fb/negf.jpg,stim_01/a.jpg,stim_01/b.jpg,2,1,j,0,20,20,18,j,1,0.633169334181,01,03,60.0184955965,PLT_learning_01,B,2014_Mrz_27_1324,P23,
stim_fb/ques.jpg,stim_fb/negf.jpg,stim_fb/posf.jpg,stim_01/f.jpg,stim_01/e.jpg,1,3,f,0,21,21,45,f,1,0.683145426179,01,03,60.0184955965,PLT_learning_01,B,2014_Mrz_27_1324,P23,
stim_fb/ques.jpg,stim_fb/posf.jpg,stim_fb/negf.jpg,stim_01/c.jpg,stim_01/d.jpg,2,2,j,0,22,22,37,j,1,0.566524964004,01,03,60.0184955965,PLT_learning_01,B,2014_Mrz_27_1324,P23,
stim_fb/ques.jpg,stim_fb/negf.jpg,stim_fb/posf.jpg,stim_01/f.jpg,stim_01/e.jpg,1,3,f,0,23,23,44,f,1,0.599842152156,01,03,60.0184955965,PLT_learning_01,B,2014_Mrz_27_1324,P23,
stim_fb/ques.jpg,stim_fb/posf.jpg,stim_fb/negf.jpg,stim_01/d.jpg,stim_01/c.jpg,1,2,f,0,24,24,29,f,1,0.849764533483,01,03,60.0184955965,PLT_learning_01,B,2014_Mrz_27_1324,P23,
stim_fb/ques.jpg,stim_fb/negf.jpg,stim_fb/posf.jpg,stim_01/d.jpg,stim_01/c.jpg,1,2,f,0,25,25,23,j,0,0.933095924482,01,03,60.0184955965,PLT_learning_01,B,2014_Mrz_27_1324,P23,
stim_fb/ques.jpg,stim_fb/posf.jpg,stim_fb/negf.jpg,stim_01/b.jpg,stim_01/a.jpg,1,1,f,0,26,26,8,f,1,0.68313198573,01,03,60.0184955965,PLT_learning_01,B,2014_Mrz_27_1324,P23,
stim_fb/ques.jpg,stim_fb/posf.jpg,stim_fb/negf.jpg,stim_01/e.jpg,stim_01/f.jpg,2,3,j,0,27,27,56,j,1,0.633125479036,01,03,60.0184955965,PLT_learning_01,B,2014_Mrz_27_1324,P23,
stim_fb/ques.jpg,stim_fb/negf.jpg,stim_fb/posf.jpg,stim_01/c.jpg,stim_01/d.jpg,2,2,j,0,28,28,36,j,1,0.699817605065,01,03,60.0184955965,PLT_learning_01,B,2014_Mrz_27_1324,P23,
stim_fb/ques.jpg,stim_fb/negf.jpg,stim_fb/posf.jpg,stim_01/b.jpg,stim_01/a.jpg,1,1,f,0,29,29,4,f,1,0.71648821705,01,03,60.0184955965,PLT_learning_01,B,2014_Mrz_27_1324,P23,
stim_fb/ques.jpg,stim_fb/negf.jpg,stim_fb/posf.jpg,stim_01/d.jpg,stim_01/c.jpg,1,2,f,0,30,30,25,f,1,0.749810505896,01,03,60.0184955965,PLT_learning_01,B,2014_Mrz_27_1324,P23,
stim_fb/ques.jpg,stim_fb/negf.jpg,stim_fb/posf.jpg,stim_01/a.jpg,stim_01/b.jpg,2,1,j,0,31,31,17,j,1,0.566537099206,01,03,60.0184955965,PLT_learning_01,B,2014_Mrz_27_1324,P23,
stim_fb/ques.jpg,stim_fb/posf.jpg,stim_fb/negf.jpg,stim_01/e.jpg,stim_01/f.jpg,2,3,j,0,32,32,58,j,1,0.566559189182,01,03,60.0184955965,PLT_learning_01,B,2014_Mrz_27_1324,P23,
stim_fb/ques.jpg,stim_fb/negf.jpg,stim_fb/posf.jpg,stim_01/f.jpg,stim_01/e.jpg,1,3,f,0,33,33,42,f,1,0.666464023338,01,03,60.0184955965,PLT_learning_01,B,2014_Mrz_27_1324,P23,
stim_fb/ques.jpg,stim_fb/posf.jpg,stim_fb/negf.jpg,stim_01/c.jpg,stim_01/d.jpg,2,2,j,0,34,34,38,j,1,0.699787554276,01,03,60.0184955965,PLT_learning_01,B,2014_Mrz_27_1324,P23,
stim_fb/ques.jpg,stim_fb/negf.jpg,stim_fb/posf.jpg,stim_01/d.jpg,stim_01/c.jpg,1,2,f,0,35,35,26,f,1,0.56651584531,01,03,60.0184955965,PLT_learning_01,B,2014_Mrz_27_1324,P23,
stim_fb/ques.jpg,stim_fb/negf.jpg,stim_fb/posf.jpg,stim_01/e.jpg,stim_01/f.jpg,2,3,j,0,36,36,52,j,1,0.616538902193,01,03,60.0184955965,PLT_learning_01,B,2014_Mrz_27_1324,P23,
stim_fb/ques.jpg,stim_fb/posf.jpg,stim_fb/negf.jpg,stim_01/d.jpg,stim_01/c.jpg,1,2,f,0,37,37,27,f,1,0.649802857863,01,03,60.0184955965,PLT_learning_01,B,2014_Mrz_27_1324,P23,
stim_fb/ques.jpg,stim_fb/posf.jpg,stim_fb/negf.jpg,stim_01/f.jpg,stim_01/e.jpg,1,3,f,0,38,38,48,f,1,0.716474163073,01,03,60.0184955965,PLT_learning_01,B,2014_Mrz_27_1324,P23,
stim_fb/ques.jpg,stim_fb/negf.jpg,stim_fb/posf.jpg,stim_01/c.jpg,stim_01/d.jpg,2,2,j,0,39,39,32,j,1,0.483257160258,01,03,60.0184955965,PLT_learning_01,B,2014_Mrz_27_1324,P23,
stim_fb/ques.jpg,stim_fb/negf.jpg,stim_fb/posf.jpg,stim_01/b.jpg,stim_01/a.jpg,1,1,f,0,40,40,2,f,1,0.583196240644,01,03,60.0184955965,PLT_learning_01,B,2014_Mrz_27_1324,P23,
stim_fb/ques.jpg,stim_fb/negf.jpg,stim_fb/posf.jpg,stim_01/a.jpg,stim_01/b.jpg,2,1,j,0,41,41,11,j,1,0.649831059048,01,03,60.0184955965,PLT_learning_01,B,2014_Mrz_27_1324,P23,
stim_fb/ques.jpg,stim_fb/negf.jpg,stim_fb/posf.jpg,stim_01/c.jpg,stim_01/d.jpg,2,2,j,0,42,42,35,j,1,0.533039437901,01,03,60.0184955965,PLT_learning_01,B,2014_Mrz_27_1324,P23,
stim_fb/ques.jpg,stim_fb/negf.jpg,stim_fb/posf.jpg,stim_01/f.jpg,stim_01/e.jpg,1,3,f,0,43,43,43,f,1,0.599790324169,01,03,60.0184955965,PLT_learning_01,B,2014_Mrz_27_1324,P23,
stim_fb/ques.jpg,stim_fb/posf.jpg,stim_fb/negf.jpg,stim_01/f.jpg,stim_01/e.jpg,1,3,f,0,44,44,49,f,1,0.583198033105,01,03,60.0184955965,PLT_learning_01,B,2014_Mrz_27_1324,P23,
stim_fb/ques.jpg,stim_fb/negf.jpg,stim_fb/posf.jpg,stim_01/d.jpg,stim_01/c.jpg,1,2,f,0,45,45,24,f,1,0.69983350263,01,03,60.0184955965,PLT_learning_01,B,2014_Mrz_27_1324,P23,
stim_fb/ques.jpg,stim_fb/negf.jpg,stim_fb/posf.jpg,stim_01/c.jpg,stim_01/d.jpg,2,2,j,0,46,46,34,j,1,0.916405372872,01,03,60.0184955965,PLT_learning_01,B,2014_Mrz_27_1324,P23,
stim_fb/ques.jpg,stim_fb/posf.jpg,stim_fb/negf.jpg,stim_01/b.jpg,stim_01/a.jpg,1,1,f,0,47,47,9,f,1,0.633168765766,01,03,60.0184955965,PLT_learning_01,B,2014_Mrz_27_1324,P23,
stim_fb/ques.jpg,stim_fb/negf.jpg,stim_fb/posf.jpg,stim_01/e.jpg,stim_01/f.jpg,2,3,j,0,48,48,54,j,1,0.683030774841,01,03,60.0184955965,PLT_learning_01,B,2014_Mrz_27_1324,P23,
stim_fb/ques.jpg,stim_fb/negf.jpg,stim_fb/posf.jpg,stim_01/e.jpg,stim_01/f.jpg,2,3,j,0,49,49,51,j,1,0.533193267745,01,03,60.0184955965,PLT_learning_01,B,2014_Mrz_27_1324,P23,
stim_fb/ques.jpg,stim_fb/posf.jpg,stim_fb/negf.jpg,stim_01/e.jpg,stim_01/f.jpg,2,3,j,0,50,50,57,j,1,0.566529421097,01,03,60.0184955965,PLT_learning_01,B,2014_Mrz_27_1324,P23,
stim_fb/ques.jpg,stim_fb/negf.jpg,stim_fb/posf.jpg,stim_01/a.jpg,stim_01/b.jpg,2,1,j,0,51,51,15,j,1,0.999697952279,01,03,60.0184955965,PLT_learning_01,B,2014_Mrz_27_1324,P23,
stim_fb/ques.jpg,stim_fb/negf.jpg,stim_fb/posf.jpg,stim_01/d.jpg,stim_01/c.jpg,1,2,f,0,52,52,20,f,1,0.633204314237,01,03,60.0184955965,PLT_learning_01,B,2014_Mrz_27_1324,P23,
stim_fb/ques.jpg,stim_fb/negf.jpg,stim_fb/posf.jpg,stim_01/b.jpg,stim_01/a.jpg,1,1,f,0,53,53,7,f,1,0.683154722315,01,03,60.0184955965,PLT_learning_01,B,2014_Mrz_27_1324,P23,
stim_fb/ques.jpg,stim_fb/negf.jpg,stim_fb/posf.jpg,stim_01/e.jpg,stim_01/f.jpg,2,3,j,0,54,54,53,j,1,0.59985178513,01,03,60.0184955965,PLT_learning_01,B,2014_Mrz_27_1324,P23,
stim_fb/ques.jpg,stim_fb/negf.jpg,stim_fb/posf.jpg,stim_01/b.jpg,stim_01/a.jpg,1,1,f,0,55,55,5,f,1,1.41623603042,01,03,60.0184955965,PLT_learning_01,B,2014_Mrz_27_1324,P23,
stim_fb/ques.jpg,stim_fb/posf.jpg,stim_fb/negf.jpg,stim_01/f.jpg,stim_01/e.jpg,1,3,f,0,56,56,46,f,1,0.733134465401,01,03,60.0184955965,PLT_learning_01,B,2014_Mrz_27_1324,P23,
stim_fb/ques.jpg,stim_fb/negf.jpg,stim_fb/posf.jpg,stim_01/a.jpg,stim_01/b.jpg,2,1,j,0,57,57,14,j,1,0.599836988305,01,03,60.0184955965,PLT_learning_01,B,2014_Mrz_27_1324,P23,
stim_fb/ques.jpg,stim_fb/negf.jpg,stim_fb/posf.jpg,stim_01/b.jpg,stim_01/a.jpg,1,1,f,0,58,58,1,f,1,0.749766746992,01,03,60.0184955965,PLT_learning_01,B,2014_Mrz_27_1324,P23,
stim_fb/ques.jpg,stim_fb/negf.jpg,stim_fb/posf.jpg,stim_01/d.jpg,stim_01/c.jpg,1,2,f,0,59,59,22,f,1,0.849763393646,01,03,60.0184955965,PLT_learning_01,B,2014_Mrz_27_1324,P23,
stim_fb/ques.jpg,stim_fb/negf.jpg,stim_fb/posf.jpg,stim_01/b.jpg,stim_01/a.jpg,1,1,f,1,0,60,1,f,1,0.816414464498,01,03,60.0184955965,PLT_learning_01,B,2014_Mrz_27_1324,P23,
stim_fb/ques.jpg,stim_fb/negf.jpg,stim_fb/posf.jpg,stim_01/b.jpg,stim_01/a.jpg,1,1,f,1,1,61,0,f,1,0.749795498547,01,03,60.0184955965,PLT_learning_01,B,2014_Mrz_27_1324,P23,
stim_fb/ques.jpg,stim_fb/posf.jpg,stim_fb/negf.jpg,stim_01/f.jpg,stim_01/e.jpg,1,3,f,1,2,62,46,f,1,0.616555617794,01,03,60.0184955965,PLT_learning_01,B,2014_Mrz_27_1324,P23,
stim_fb/ques.jpg,stim_fb/negf.jpg,stim_fb/posf.jpg,stim_01/b.jpg,stim_01/a.jpg,1,1,f,1,3,63,2,f,1,0.649806623234,01,03,60.0184955965,PLT_learning_01,B,2014_Mrz_27_1324,P23,
stim_fb/ques.jpg,stim_fb/posf.jpg,stim_fb/negf.jpg,stim_01/b.jpg,stim_01/a.jpg,1,1,f,1,4,64,8,f,1,0.749782157344,01,03,60.0184955965,PLT_learning_01,B,2014_Mrz_27_1324,P23,
stim_fb/ques.jpg,stim_fb/negf.jpg,stim_fb/posf.jpg,stim_01/c.jpg,stim_01/d.jpg,2,2,j,1,5,65,35,j,1,0.833090835818,01,03,60.0184955965,PLT_learning_01,B,2014_Mrz_27_1324,P23,
stim_fb/ques.jpg,stim_fb/negf.jpg,stim_fb/posf.jpg,stim_01/a.jpg,stim_01/b.jpg,2,1,j,1,6,66,12,j,1,0.799781770882,01,03,60.0184955965,PLT_learning_01,B,2014_Mrz_27_1324,P23,
stim_fb/ques.jpg,stim_fb/posf.jpg,stim_fb/negf.jpg,stim_01/c.jpg,stim_01/d.jpg,2,2,j,1,7,67,38,j,1,0.783104596564,01,03,60.0184955965,PLT_learning_01,B,2014_Mrz_27_1324,P23,
stim_fb/ques.jpg,stim_fb/negf.jpg,stim_fb/posf.jpg,stim_01/c.jpg,stim_01/d.jpg,2,2,j,1,8,68,30,j,1,0.566510729578,01,03,60.0184955965,PLT_learning_01,B,2014_Mrz_27_1324,P23,
stim_fb/ques.jpg,stim_fb/negf.jpg,stim_fb/posf.jpg,stim_01/d.jpg,stim_01/c.jpg,1,2,f,1,9,69,24,f,1,0.766462044413,01,03,60.0184955965,PLT_learning_01,B,2014_Mrz_27_1324,P23,
stim_fb/ques.jpg,stim_fb/negf.jpg,stim_fb/posf.jpg,stim_01/c.jpg,stim_01/d.jpg,2,2,j,1,10,70,33,j,1,0.649834929681,01,03,60.0184955965,PLT_learning_01,B,2014_Mrz_27_1324,P23,
stim_fb/ques.jpg,stim_fb/posf.jpg,stim_fb/negf.jpg,stim_01/d.jpg,stim_01/c.jpg,1,2,f,1,11,71,29,f,1,0.616523323421,01,03,60.0184955965,PLT_learning_01,B,2014_Mrz_27_1324,P23,
stim_fb/ques.jpg,stim_fb/negf.jpg,stim_fb/posf.jpg,stim_01/b.jpg,stim_01/a.jpg,1,1,f,1,12,72,7,f,1,0.699794513596,01,03,60.0184955965,PLT_learning_01,B,2014_Mrz_27_1324,P23,
stim_fb/ques.jpg,stim_fb/posf.jpg,stim_fb/negf.jpg,stim_01/f.jpg,stim_01/e.jpg,1,3,f,1,13,73,47,f,1,0.649885482495,01,03,60.0184955965,PLT_learning_01,B,2014_Mrz_27_1324,P23,
stim_fb/ques.jpg,stim_fb/negf.jpg,stim_fb/posf.jpg,stim_01/d.jpg,stim_01/c.jpg,1,2,f,1,14,74,25,f,1,0.699731329346,01,03,60.0184955965,PLT_learning_01,B,2014_Mrz_27_1324,P23,
stim_fb/ques.jpg,stim_fb/negf.jpg,stim_fb/posf.jpg,stim_01/c.jpg,stim_01/d.jpg,2,2,j,1,15,75,31,j,1,0.766454991861,01,03,60.0184955965,PLT_learning_01,B,2014_Mrz_27_1324,P23,
stim_fb/ques.jpg,stim_fb/negf.jpg,stim_fb/posf.jpg,stim_01/f.jpg,stim_01/e.jpg,1,3,f,1,16,76,42,f,1,0.64979296023,01,03,60.0184955965,PLT_learning_01,B,2014_Mrz_27_1324,P23,
stim_fb/ques.jpg,stim_fb/negf.jpg,stim_fb/posf.jpg,stim_01/a.jpg,stim_01/b.jpg,2,1,j,1,17,77,11,j,1,0.766460269997,01,03,60.0184955965,PLT_learning_01,B,2014_Mrz_27_1324,P23,
stim_fb/ques.jpg,stim_fb/negf.jpg,stim_fb/posf.jpg,stim_01/b.jpg,stim_01/a.jpg,1,1,f,1,18,78,3,f,1,0.583148340432,01,03,60.0184955965,PLT_learning_01,B,2014_Mrz_27_1324,P23,
stim_fb/ques.jpg,stim_fb/negf.jpg,stim_fb/posf.jpg,stim_01/e.jpg,stim_01/f.jpg,2,3,j,1,19,79,50,j,1,0.666471181152,01,03,60.0184955965,PLT_learning_01,B,2014_Mrz_27_1324,P23,
stim_fb/ques.jpg,stim_fb/negf.jpg,stim_fb/posf.jpg,stim_01/a.jpg,stim_01/b.jpg,2,1,j,1,20,80,13,j,1,0.616507633373,01,03,60.0184955965,PLT_learning_01,B,2014_Mrz_27_1324,P23,
stim_fb/ques.jpg,stim_fb/negf.jpg,stim_fb/posf.jpg,stim_01/b.jpg,stim_01/a.jpg,1,1,f,1,21,81,5,f,1,0.766458456484,01,03,60.0184955965,PLT_learning_01,B,2014_Mrz_27_1324,P23,
stim_fb/ques.jpg,stim_fb/posf.jpg,stim_fb/negf.jpg,stim_01/e.jpg,stim_01/f.jpg,2,3,j,1,22,82,57,j,1,0.683083255452,01,03,60.0184955965,PLT_learning_01,B,2014_Mrz_27_1324,P23,
stim_fb/ques.jpg,stim_fb/posf.jpg,stim_fb/negf.jpg,stim_01/d.jpg,stim_01/c.jpg,1,2,f,1,23,83,27,f,1,0.649822743353,01,03,60.0184955965,PLT_learning_01,B,2014_Mrz_27_1324,P23,
stim_fb/ques.jpg,stim_fb/negf.jpg,stim_fb/posf.jpg,stim_01/a.jpg,stim_01/b.jpg,2,1,j,1,24,84,17,j,1,0.899743828453,01,03,60.0184955965,PLT_learning_01,B,2014_Mrz_27_1324,P23,
stim_fb/ques.jpg,stim_fb/posf.jpg,stim_fb/negf.jpg,stim_01/b.jpg,stim_01/a.jpg,1,1,f,1,25,85,9,f,1,0.683155185468,01,03,60.0184955965,PLT_learning_01,B,2014_Mrz_27_1324,P23,
stim_fb/ques.jpg,stim_fb/posf.jpg,stim_fb/negf.jpg,stim_01/a.jpg,stim_01/b.jpg,2,1,j,1,26,86,19,j,1,0.699817544915,01,03,60.0184955965,PLT_learning_01,B,2014_Mrz_27_1324,P23,
stim_fb/ques.jpg,stim_fb/posf.jpg,stim_fb/negf.jpg,stim_01/e.jpg,stim_01/f.jpg,2,3,j,1,27,87,58,j,1,0.649865464675,01,03,60.0184955965,PLT_learning_01,B,2014_Mrz_27_1324,P23,
stim_fb/ques.jpg,stim_fb/posf.jpg,stim_fb/negf.jpg,stim_01/f.jpg,stim_01/e.jpg,1,3,f,1,28,88,48,f,1,0.766477647245,01,03,60.0184955965,PLT_learning_01,B,2014_Mrz_27_1324,P23,
stim_fb/ques.jpg,stim_fb/negf.jpg,stim_fb/posf.jpg,stim_01/f.jpg,stim_01/e.jpg,1,3,f,1,29,89,45,f,1,0.63317586343,01,03,60.0184955965,PLT_learning_01,B,2014_Mrz_27_1324,P23,
stim_fb/ques.jpg,stim_fb/negf.jpg,stim_fb/posf.jpg,stim_01/f.jpg,stim_01/e.jpg,1,3,f,1,30,90,44,f,1,0.633087933595,01,03,60.0184955965,PLT_learning_01,B,2014_Mrz_27_1324,P23,
stim_fb/ques.jpg,stim_fb/negf.jpg,stim_fb/posf.jpg,stim_01/b.jpg,stim_01/a.jpg,1,1,f,1,31,91,6,f,1,0.899752303545,01,03,60.0184955965,PLT_learning_01,B,2014_Mrz_27_1324,P23,
stim_fb/ques.jpg,stim_fb/negf.jpg,stim_fb/posf.jpg,stim_01/c.jpg,stim_01/d.jpg,2,2,j,1,32,92,34,j,1,0.649821017056,01,03,60.0184955965,PLT_learning_01,B,2014_Mrz_27_1324,P23,
stim_fb/ques.jpg,stim_fb/negf.jpg,stim_fb/posf.jpg,stim_01/f.jpg,stim_01/e.jpg,1,3,f,1,33,93,43,f,1,0.683152376477,01,03,60.0184955965,PLT_learning_01,B,2014_Mrz_27_1324,P23,
stim_fb/ques.jpg,stim_fb/negf.jpg,stim_fb/posf.jpg,stim_01/a.jpg,stim_01/b.jpg,2,1,j,1,34,94,15,j,1,0.683158466634,01,03,60.0184955965,PLT_learning_01,B,2014_Mrz_27_1324,P23,
stim_fb/ques.jpg,stim_fb/negf.jpg,stim_fb/posf.jpg,stim_01/f.jpg,stim_01/e.jpg,1,3,f,1,35,95,40,f,1,0.766444465664,01,03,60.0184955965,PLT_learning_01,B,2014_Mrz_27_1324,P23,
stim_fb/ques.jpg,stim_fb/posf.jpg,stim_fb/negf.jpg,stim_01/c.jpg,stim_01/d.jpg,2,2,j,1,36,96,37,j,1,0.633166155269,01,03,60.0184955965,PLT_learning_01,B,2014_Mrz_27_1324,P23,
stim_fb/ques.jpg,stim_fb/negf.jpg,stim_fb/posf.jpg,stim_01/e.jpg,stim_01/f.jpg,2,3,j,1,37,97,52,j,1,0.616528294794,01,03,60.0184955965,PLT_learning_01,B,2014_Mrz_27_1324,P23,
stim_fb/ques.jpg,stim_fb/posf.jpg,stim_fb/negf.jpg,stim_01/e.jpg,stim_01/f.jpg,2,3,j,1,38,98,56,j,1,0.599834347733,01,03,60.0184955965,PLT_learning_01,B,2014_Mrz_27_1324,P23,
stim_fb/ques.jpg,stim_fb/negf.jpg,stim_fb/posf.jpg,stim_01/c.jpg,stim_01/d.jpg,2,2,j,1,39,99,36,j,1,0.666496531242,01,03,60.0184955965,PLT_learning_01,B,2014_Mrz_27_1324,P23,
stim_fb/ques.jpg,stim_fb/posf.jpg,stim_fb/negf.jpg,stim_01/c.jpg,stim_01/d.jpg,2,2,j,1,40,100,39,j,1,0.599843505524,01,03,60.0184955965,PLT_learning_01,B,2014_Mrz_27_1324,P23,
stim_fb/ques.jpg,stim_fb/posf.jpg,stim_fb/negf.jpg,stim_01/e.jpg,stim_01/f.jpg,2,3,j,1,41,101,59,j,1,0.749805537532,01,03,60.0184955965,PLT_learning_01,B,2014_Mrz_27_1324,P23,
stim_fb/ques.jpg,stim_fb/negf.jpg,stim_fb/posf.jpg,stim_01/e.jpg,stim_01/f.jpg,2,3,j,1,42,102,53,j,1,0.616520042255,01,03,60.0184955965,PLT_learning_01,B,2014_Mrz_27_1324,P23,
stim_fb/ques.jpg,stim_fb/negf.jpg,stim_fb/posf.jpg,stim_01/d.jpg,stim_01/c.jpg,1,2,f,1,43,103,22,f,1,0.74983179889,01,03,60.0184955965,PLT_learning_01,B,2014_Mrz_27_1324,P23,
stim_fb/ques.jpg,stim_fb/negf.jpg,stim_fb/posf.jpg,stim_01/d.jpg,stim_01/c.jpg,1,2,f,1,44,104,21,f,1,0.699805036785,01,03,60.0184955965,PLT_learning_01,B,2014_Mrz_27_1324,P23,
stim_fb/ques.jpg,stim_fb/negf.jpg,stim_fb/posf.jpg,stim_01/a.jpg,stim_01/b.jpg,2,1,j,1,45,105,16,j,1,0.683159711733,01,03,60.0184955965,PLT_learning_01,B,2014_Mrz_27_1324,P23,
stim_fb/ques.jpg,stim_fb/negf.jpg,stim_fb/posf.jpg,stim_01/d.jpg,stim_01/c.jpg,1,2,f,1,46,106,26,f,1,0.666484068225,01,03,60.0184955965,PLT_learning_01,B,2014_Mrz_27_1324,P23,
stim_fb/ques.jpg,stim_fb/negf.jpg,stim_fb/posf.jpg,stim_01/f.jpg,stim_01/e.jpg,1,3,f,1,47,107,41,f,1,1.0163838062,01,03,60.0184955965,PLT_learning_01,B,2014_Mrz_27_1324,P23,
stim_fb/ques.jpg,stim_fb/negf.jpg,stim_fb/posf.jpg,stim_01/a.jpg,stim_01/b.jpg,2,1,j,1,48,108,10,j,1,0.566559898948,01,03,60.0184955965,PLT_learning_01,B,2014_Mrz_27_1324,P23,
stim_fb/ques.jpg,stim_fb/posf.jpg,stim_fb/negf.jpg,stim_01/d.jpg,stim_01/c.jpg,1,2,f,1,49,109,28,f,1,0.516449318241,01,03,60.0184955965,PLT_learning_01,B,2014_Mrz_27_1324,P23,
stim_fb/ques.jpg,stim_fb/negf.jpg,stim_fb/posf.jpg,stim_01/d.jpg,stim_01/c.jpg,1,2,f,1,50,110,20,f,1,0.599864506791,01,03,60.0184955965,PLT_learning_01,B,2014_Mrz_27_1324,P23,
stim_fb/ques.jpg,stim_fb/negf.jpg,stim_fb/posf.jpg,stim_01/d.jpg,stim_01/c.jpg,1,2,f,1,51,111,23,f,1,0.549875894633,01,03,60.0184955965,PLT_learning_01,B,2014_Mrz_27_1324,P23,
stim_fb/ques.jpg,stim_fb/negf.jpg,stim_fb/posf.jpg,stim_01/e.jpg,stim_01/f.jpg,2,3,j,1,52,112,51,j,1,0.599897775589,01,03,60.0184955965,PLT_learning_01,B,2014_Mrz_27_1324,P23,
stim_fb/ques.jpg,stim_fb/negf.jpg,stim_fb/posf.jpg,stim_01/a.jpg,stim_01/b.jpg,2,1,j,1,53,113,14,j,1,0.49987717131,01,03,60.0184955965,PLT_learning_01,B,2014_Mrz_27_1324,P23,
stim_fb/ques.jpg,stim_fb/negf.jpg,stim_fb/posf.jpg,stim_01/b.jpg,stim_01/a.jpg,1,1,f,1,54,114,4,f,1,0.549865175956,01,03,60.0184955965,PLT_learning_01,B,2014_Mrz_27_1324,P23,
stim_fb/ques.jpg,stim_fb/posf.jpg,stim_fb/negf.jpg,stim_01/a.jpg,stim_01/b.jpg,2,1,j,1,55,115,18,j,1,0.53324545663,01,03,60.0184955965,PLT_learning_01,B,2014_Mrz_27_1324,P23,
stim_fb/ques.jpg,stim_fb/negf.jpg,stim_fb/posf.jpg,stim_01/e.jpg,stim_01/f.jpg,2,3,j,1,56,116,55,j,1,0.566531219573,01,03,60.0184955965,PLT_learning_01,B,2014_Mrz_27_1324,P23,
stim_fb/ques.jpg,stim_fb/negf.jpg,stim_fb/posf.jpg,stim_01/e.jpg,stim_01/f.jpg,2,3,j,1,57,117,54,j,1,0.449890237328,01,03,60.0184955965,PLT_learning_01,B,2014_Mrz_27_1324,P23,
stim_fb/ques.jpg,stim_fb/negf.jpg,stim_fb/posf.jpg,stim_01/c.jpg,stim_01/d.jpg,2,2,j,1,58,118,32,j,1,0.666506218351,01,03,60.0184955965,PLT_learning_01,B,2014_Mrz_27_1324,P23,
stim_fb/ques.jpg,stim_fb/posf.jpg,stim_fb/negf.jpg,stim_01/f.jpg,stim_01/e.jpg,1,3,f,1,59,119,49,f,1,0.74980085187,01,03,60.0184955965,PLT_learning_01,B,2014_Mrz_27_1324,P23,
stim_fb/ques.jpg,stim_fb/posf.jpg,stim_fb/negf.jpg,stim_01/d.jpg,stim_01/c.jpg,1,2,f,2,0,120,28,f,1,0.733120549768,01,03,60.0184955965,PLT_learning_01,B,2014_Mrz_27_1324,P23,
stim_fb/ques.jpg,stim_fb/negf.jpg,stim_fb/posf.jpg,stim_01/a.jpg,stim_01/b.jpg,2,1,j,2,1,121,13,j,1,0.516573076244,01,03,60.0184955965,PLT_learning_01,B,2014_Mrz_27_1324,P23,
stim_fb/ques.jpg,stim_fb/negf.jpg,stim_fb/posf.jpg,stim_01/f.jpg,stim_01/e.jpg,1,3,f,2,2,122,43,f,1,0.733106706315,01,03,60.0184955965,PLT_learning_01,B,2014_Mrz_27_1324,P23,
stim_fb/ques.jpg,stim_fb/negf.jpg,stim_fb/posf.jpg,stim_01/b.jpg,stim_01/a.jpg,1,1,f,2,3,123,1,f,1,0.733139283391,01,03,60.0184955965,PLT_learning_01,B,2014_Mrz_27_1324,P23,
stim_fb/ques.jpg,stim_fb/posf.jpg,stim_fb/negf.jpg,stim_01/e.jpg,stim_01/f.jpg,2,3,j,2,4,124,56,j,1,0.583176147637,01,03,60.0184955965,PLT_learning_01,B,2014_Mrz_27_1324,P23,
stim_fb/ques.jpg,stim_fb/negf.jpg,stim_fb/posf.jpg,stim_01/f.jpg,stim_01/e.jpg,1,3,f,2,5,125,45,f,1,0.633192591061,01,03,60.0184955965,PLT_learning_01,B,2014_Mrz_27_1324,P23,
stim_fb/ques.jpg,stim_fb/posf.jpg,stim_fb/negf.jpg,stim_01/c.jpg,stim_01/d.jpg,2,2,j,2,6,126,38,j,1,0.549896414702,01,03,60.0184955965,PLT_learning_01,B,2014_Mrz_27_1324,P23,
stim_fb/ques.jpg,stim_fb/negf.jpg,stim_fb/posf.jpg,stim_01/e.jpg,stim_01/f.jpg,2,3,j,2,7,127,54,j,1,0.449907352925,01,03,60.0184955965,PLT_learning_01,B,2014_Mrz_27_1324,P23,
stim_fb/ques.jpg,stim_fb/negf.jpg,stim_fb/posf.jpg,stim_01/d.jpg,stim_01/c.jpg,1,2,f,2,8,128,21,f,1,1.24962096518,01,03,60.0184955965,PLT_learning_01,B,2014_Mrz_27_1324,P23,
stim_fb/ques.jpg,stim_fb/negf.jpg,stim_fb/posf.jpg,stim_01/d.jpg,stim_01/c.jpg,1,2,f,2,9,129,22,f,1,0.68318056864,01,03,60.0184955965,PLT_learning_01,B,2014_Mrz_27_1324,P23,
stim_fb/ques.jpg,stim_fb/posf.jpg,stim_fb/negf.jpg,stim_01/a.jpg,stim_01/b.jpg,2,1,j,2,10,130,19,j,1,0.733157457623,01,03,60.0184955965,PLT_learning_01,B,2014_Mrz_27_1324,P23,
stim_fb/ques.jpg,stim_fb/negf.jpg,stim_fb/posf.jpg,stim_01/e.jpg,stim_01/f.jpg,2,3,j,2,11,131,53,j,1,0.549874387883,01,03,60.0184955965,PLT_learning_01,B,2014_Mrz_27_1324,P23,
stim_fb/ques.jpg,stim_fb/negf.jpg,stim_fb/posf.jpg,stim_01/d.jpg,stim_01/c.jpg,1,2,f,2,12,132,23,f,1,0.566595285016,01,03,60.0184955965,PLT_learning_01,B,2014_Mrz_27_1324,P23,
stim_fb/ques.jpg,stim_fb/negf.jpg,stim_fb/posf.jpg,stim_01/b.jpg,stim_01/a.jpg,1,1,f,2,13,133,5,f,1,0.633179875415,01,03,60.0184955965,PLT_learning_01,B,2014_Mrz_27_1324,P23,
stim_fb/ques.jpg,stim_fb/posf.jpg,stim_fb/negf.jpg,stim_01/a.jpg,stim_01/b.jpg,2,1,j,2,14,134,18,j,1,0.616518472348,01,03,60.0184955965,PLT_learning_01,B,2014_Mrz_27_1324,P23,
stim_fb/ques.jpg,stim_fb/negf.jpg,stim_fb/posf.jpg,stim_01/a.jpg,stim_01/b.jpg,2,1,j,2,15,135,15,j,1,0.849764452281,01,03,60.0184955965,PLT_learning_01,B,2014_Mrz_27_1324,P23,
stim_fb/ques.jpg,stim_fb/negf.jpg,stim_fb/posf.jpg,stim_01/d.jpg,stim_01/c.jpg,1,2,f,2,16,136,26,f,1,0.649822433581,01,03,60.0184955965,PLT_learning_01,B,2014_Mrz_27_1324,P23,
stim_fb/ques.jpg,stim_fb/negf.jpg,stim_fb/posf.jpg,stim_01/d.jpg,stim_01/c.jpg,1,2,f,2,17,137,25,j,0,0.58308068706,01,03,60.0184955965,PLT_learning_01,B,2014_Mrz_27_1324,P23,
stim_fb/ques.jpg,stim_fb/negf.jpg,stim_fb/posf.jpg,stim_01/d.jpg,stim_01/c.jpg,1,2,f,2,18,138,20,f,1,0.8164376492,01,03,60.0184955965,PLT_learning_01,B,2014_Mrz_27_1324,P23,
stim_fb/ques.jpg,stim_fb/negf.jpg,stim_fb/posf.jpg,stim_01/c.jpg,stim_01/d.jpg,2,2,j,2,19,139,35,j,1,0.583218511069,01,03,60.0184955965,PLT_learning_01,B,2014_Mrz_27_1324,P23,
stim_fb/ques.jpg,stim_fb/negf.jpg,stim_fb/posf.jpg,stim_01/f.jpg,stim_01/e.jpg,1,3,f,2,20,140,42,f,1,0.583182595685,01,03,60.0184955965,PLT_learning_01,B,2014_Mrz_27_1324,P23,
stim_fb/ques.jpg,stim_fb/negf.jpg,stim_fb/posf.jpg,stim_01/b.jpg,stim_01/a.jpg,1,1,f,2,21,141,0,f,1,0.816444491228,01,03,60.0184955965,PLT_learning_01,B,2014_Mrz_27_1324,P23,
stim_fb/ques.jpg,stim_fb/posf.jpg,stim_fb/negf.jpg,stim_01/f.jpg,stim_01/e.jpg,1,3,f,2,22,142,46,f,1,0.633158552347,01,03,60.0184955965,PLT_learning_01,B,2014_Mrz_27_1324,P23,
stim_fb/ques.jpg,stim_fb/posf.jpg,stim_fb/negf.jpg,stim_01/e.jpg,stim_01/f.jpg,2,3,j,2,23,143,59,j,1,0.733133442856,01,03,60.0184955965,PLT_learning_01,B,2014_Mrz_27_1324,P23,
stim_fb/ques.jpg,stim_fb/negf.jpg,stim_fb/posf.jpg,stim_01/c.jpg,stim_01/d.jpg,2,2,j,2,24,144,30,j,1,0.649878330695,01,03,60.0184955965,PLT_learning_01,B,2014_Mrz_27_1324,P23,
stim_fb/ques.jpg,stim_fb/posf.jpg,stim_fb/negf.jpg,stim_01/f.jpg,stim_01/e.jpg,1,3,f,2,25,145,47,f,1,0.633128772232,01,03,60.0184955965,PLT_learning_01,B,2014_Mrz_27_1324,P23,
stim_fb/ques.jpg,stim_fb/negf.jpg,stim_fb/posf.jpg,stim_01/b.jpg,stim_01/a.jpg,1,1,f,2,26,146,3,f,1,0.633176510039,01,03,60.0184955965,PLT_learning_01,B,2014_Mrz_27_1324,P23,
stim_fb/ques.jpg,stim_fb/negf.jpg,stim_fb/posf.jpg,stim_01/b.jpg,stim_01/a.jpg,1,1,f,2,27,147,2,f,1,0.583184836261,01,03,60.0184955965,PLT_learning_01,B,2014_Mrz_27_1324,P23,
stim_fb/ques.jpg,stim_fb/negf.jpg,stim_fb/posf.jpg,stim_01/f.jpg,stim_01/e.jpg,1,3,f,2,28,148,41,f,1,0.616540057067,01,03,60.0184955965,PLT_learning_01,B,2014_Mrz_27_1324,P23,
stim_fb/ques.jpg,stim_fb/negf.jpg,stim_fb/posf.jpg,stim_01/a.jpg,stim_01/b.jpg,2,1,j,2,29,149,12,j,1,0.699819908798,01,03,60.0184955965,PLT_learning_01,B,2014_Mrz_27_1324,P23,
stim_fb/ques.jpg,stim_fb/negf.jpg,stim_fb/posf.jpg,stim_01/d.jpg,stim_01/c.jpg,1,2,f,2,30,150,24,f,1,0.566543968301,01,03,60.0184955965,PLT_learning_01,B,2014_Mrz_27_1324,P23,
stim_fb/ques.jpg,stim_fb/posf.jpg,stim_fb/negf.jpg,stim_01/f.jpg,stim_01/e.jpg,1,3,f,2,31,151,48,f,1,0.616484406567,01,03,60.0184955965,PLT_learning_01,B,2014_Mrz_27_1324,P23,
stim_fb/ques.jpg,stim_fb/negf.jpg,stim_fb/posf.jpg,stim_01/c.jpg,stim_01/d.jpg,2,2,j,2,32,152,36,j,1,0.583197539877,01,03,60.0184955965,PLT_learning_01,B,2014_Mrz_27_1324,P23,
stim_fb/ques.jpg,stim_fb/negf.jpg,stim_fb/posf.jpg,stim_01/b.jpg,stim_01/a.jpg,1,1,f,2,33,153,7,f,1,0.533222302004,01,03,60.0184955965,PLT_learning_01,B,2014_Mrz_27_1324,P23,
stim_fb/ques.jpg,stim_fb/negf.jpg,stim_fb/posf.jpg,stim_01/b.jpg,stim_01/a.jpg,1,1,f,2,34,154,6,f,1,0.566534590963,01,03,60.0184955965,PLT_learning_01,B,2014_Mrz_27_1324,P23,
stim_fb/ques.jpg,stim_fb/negf.jpg,stim_fb/posf.jpg,stim_01/a.jpg,stim_01/b.jpg,2,1,j,2,35,155,10,j,1,0.71648967568,01,03,60.0184955965,PLT_learning_01,B,2014_Mrz_27_1324,P23,
stim_fb/ques.jpg,stim_fb/negf.jpg,stim_fb/posf.jpg,stim_01/a.jpg,stim_01/b.jpg,2,1,j,2,36,156,11,j,1,0.6663880663,01,03,60.0184955965,PLT_learning_01,B,2014_Mrz_27_1324,P23,
stim_fb/ques.jpg,stim_fb/negf.jpg,stim_fb/posf.jpg,stim_01/a.jpg,stim_01/b.jpg,2,1,j,2,37,157,14,j,1,0.549889668913,01,03,60.0184955965,PLT_learning_01,B,2014_Mrz_27_1324,P23,
stim_fb/ques.jpg,stim_fb/posf.jpg,stim_fb/negf.jpg,stim_01/b.jpg,stim_01/a.jpg,1,1,f,2,38,158,8,f,1,0.649803576652,01,03,60.0184955965,PLT_learning_01,B,2014_Mrz_27_1324,P23,
stim_fb/ques.jpg,stim_fb/posf.jpg,stim_fb/negf.jpg,stim_01/e.jpg,stim_01/f.jpg,2,3,j,2,39,159,57,j,1,0.533194401567,01,03,60.0184955965,PLT_learning_01,B,2014_Mrz_27_1324,P23,
stim_fb/ques.jpg,stim_fb/negf.jpg,stim_fb/posf.jpg,stim_01/e.jpg,stim_01/f.jpg,2,3,j,2,40,160,55,j,1,0.583202911245,01,03,60.0184955965,PLT_learning_01,B,2014_Mrz_27_1324,P23,
stim_fb/ques.jpg,stim_fb/posf.jpg,stim_fb/negf.jpg,stim_01/f.jpg,stim_01/e.jpg,1,3,f,2,41,161,49,f,1,0.516568131938,01,03,60.0184955965,PLT_learning_01,B,2014_Mrz_27_1324,P23,
stim_fb/ques.jpg,stim_fb/posf.jpg,stim_fb/negf.jpg,stim_01/d.jpg,stim_01/c.jpg,1,2,f,2,42,162,29,f,1,0.783126533159,01,03,60.0184955965,PLT_learning_01,B,2014_Mrz_27_1324,P23,
stim_fb/ques.jpg,stim_fb/negf.jpg,stim_fb/posf.jpg,stim_01/b.jpg,stim_01/a.jpg,1,1,f,2,43,163,4,f,1,1.14962067345,01,03,60.0184955965,PLT_learning_01,B,2014_Mrz_27_1324,P23,
stim_fb/ques.jpg,stim_fb/posf.jpg,stim_fb/negf.jpg,stim_01/c.jpg,stim_01/d.jpg,2,2,j,2,44,164,39,j,1,0.649881281038,01,03,60.0184955965,PLT_learning_01,B,2014_Mrz_27_1324,P23,
stim_fb/ques.jpg,stim_fb/negf.jpg,stim_fb/posf.jpg,stim_01/c.jpg,stim_01/d.jpg,2,2,j,2,45,165,34,j,1,0.666465530088,01,03,60.0184955965,PLT_learning_01,B,2014_Mrz_27_1324,P23,
stim_fb/ques.jpg,stim_fb/posf.jpg,stim_fb/negf.jpg,stim_01/d.jpg,stim_01/c.jpg,1,2,f,2,46,166,27,f,1,0.733134898479,01,03,60.0184955965,PLT_learning_01,B,2014_Mrz_27_1324,P23,
stim_fb/ques.jpg,stim_fb/negf.jpg,stim_fb/posf.jpg,stim_01/a.jpg,stim_01/b.jpg,2,1,j,2,47,167,16,j,1,0.683137579651,01,03,60.0184955965,PLT_learning_01,B,2014_Mrz_27_1324,P23,
stim_fb/ques.jpg,stim_fb/posf.jpg,stim_fb/negf.jpg,stim_01/e.jpg,stim_01/f.jpg,2,3,j,2,48,168,58,j,1,0.599832807901,01,03,60.0184955965,PLT_learning_01,B,2014_Mrz_27_1324,P23,
stim_fb/ques.jpg,stim_fb/negf.jpg,stim_fb/posf.jpg,stim_01/e.jpg,stim_01/f.jpg,2,3,j,2,49,169,52,j,1,0.433228837269,01,03,60.0184955965,PLT_learning_01,B,2014_Mrz_27_1324,P23,
stim_fb/ques.jpg,stim_fb/negf.jpg,stim_fb/posf.jpg,stim_01/c.jpg,stim_01/d.jpg,2,2,j,2,50,170,33,j,1,0.449890080939,01,03,60.0184955965,PLT_learning_01,B,2014_Mrz_27_1324,P23,
stim_fb/ques.jpg,stim_fb/negf.jpg,stim_fb/posf.jpg,stim_01/e.jpg,stim_01/f.jpg,2,3,j,2,51,171,51,j,1,0.433249179896,01,03,60.0184955965,PLT_learning_01,B,2014_Mrz_27_1324,P23,
stim_fb/ques.jpg,stim_fb/negf.jpg,stim_fb/posf.jpg,stim_01/f.jpg,stim_01/e.jpg,1,3,f,2,52,172,40,f,1,0.716472689406,01,03,60.0184955965,PLT_learning_01,B,2014_Mrz_27_1324,P23,
stim_fb/ques.jpg,stim_fb/negf.jpg,stim_fb/posf.jpg,stim_01/c.jpg,stim_01/d.jpg,2,2,j,2,53,173,31,j,1,1.04970659729,01,03,60.0184955965,PLT_learning_01,B,2014_Mrz_27_1324,P23,
stim_fb/ques.jpg,stim_fb/negf.jpg,stim_fb/posf.jpg,stim_01/c.jpg,stim_01/d.jpg,2,2,j,2,54,174,32,j,1,0.549841368706,01,03,60.0184955965,PLT_learning_01,B,2014_Mrz_27_1324,P23,
stim_fb/ques.jpg,stim_fb/negf.jpg,stim_fb/posf.jpg,stim_01/e.jpg,stim_01/f.jpg,2,3,j,2,55,175,50,j,1,0.566510660406,01,03,60.0184955965,PLT_learning_01,B,2014_Mrz_27_1324,P23,
stim_fb/ques.jpg,stim_fb/negf.jpg,stim_fb/posf.jpg,stim_01/f.jpg,stim_01/e.jpg,1,3,f,2,56,176,44,f,1,0.499896701917,01,03,60.0184955965,PLT_learning_01,B,2014_Mrz_27_1324,P23,
stim_fb/ques.jpg,stim_fb/negf.jpg,stim_fb/posf.jpg,stim_01/a.jpg,stim_01/b.jpg,2,1,j,2,57,177,17,j,1,0.0833220768186,01,03,60.0184955965,PLT_learning_01,B,2014_Mrz_27_1324,P23,
stim_fb/ques.jpg,stim_fb/posf.jpg,stim_fb/negf.jpg,stim_01/b.jpg,stim_01/a.jpg,1,1,f,2,58,178,9,f,1,0.549843476953,01,03,60.0184955965,PLT_learning_01,B,2014_Mrz_27_1324,P23,
stim_fb/ques.jpg,stim_fb/posf.jpg,stim_fb/negf.jpg,stim_01/c.jpg,stim_01/d.jpg,2,2,j,2,59,179,37,j,1,0.433240247666,01,03,60.0184955965,PLT_learning_01,B,2014_Mrz_27_1324,P23,
stim_fb/ques.jpg,stim_fb/negf.jpg,stim_fb/posf.jpg,stim_01/a.jpg,stim_01/b.jpg,2,1,j,3,0,180,14,j,1,1.56620691346,01,03,60.0184955965,PLT_learning_01,B,2014_Mrz_27_1324,P23,
stim_fb/ques.jpg,stim_fb/negf.jpg,stim_fb/posf.jpg,stim_01/b.jpg,stim_01/a.jpg,1,1,f,3,1,181,4,f,1,0.649822611023,01,03,60.0184955965,PLT_learning_01,B,2014_Mrz_27_1324,P23,
stim_fb/ques.jpg,stim_fb/negf.jpg,stim_fb/posf.jpg,stim_01/d.jpg,stim_01/c.jpg,1,2,f,3,2,182,23,f,1,0.51654751563,01,03,60.0184955965,PLT_learning_01,B,2014_Mrz_27_1324,P23,
stim_fb/ques.jpg,stim_fb/negf.jpg,stim_fb/posf.jpg,stim_01/c.jpg,stim_01/d.jpg,2,2,j,3,3,183,31,j,1,0.449862851171,01,03,60.0184955965,PLT_learning_01,B,2014_Mrz_27_1324,P23,
stim_fb/ques.jpg,stim_fb/negf.jpg,stim_fb/posf.jpg,stim_01/e.jpg,stim_01/f.jpg,2,3,j,3,4,184,50,f,0,0.483253253535,01,03,60.0184955965,PLT_learning_01,B,2014_Mrz_27_1324,P23,
stim_fb/ques.jpg,stim_fb/posf.jpg,stim_fb/negf.jpg,stim_01/b.jpg,stim_01/a.jpg,1,1,f,3,5,185,8,f,1,0.949729745905,01,03,60.0184955965,PLT_learning_01,B,2014_Mrz_27_1324,P23,
stim_fb/ques.jpg,stim_fb/posf.jpg,stim_fb/negf.jpg,stim_01/e.jpg,stim_01/f.jpg,2,3,j,3,6,186,58,j,1,0.733139379631,01,03,60.0184955965,PLT_learning_01,B,2014_Mrz_27_1324,P23,
stim_fb/ques.jpg,stim_fb/negf.jpg,stim_fb/posf.jpg,stim_01/b.jpg,stim_01/a.jpg,1,1,f,3,7,187,6,f,1,0.799757019282,01,03,60.0184955965,PLT_learning_01,B,2014_Mrz_27_1324,P23,
stim_fb/ques.jpg,stim_fb/negf.jpg,stim_fb/posf.jpg,stim_01/f.jpg,stim_01/e.jpg,1,3,f,3,8,188,44,f,1,0.666488140359,01,03,60.0184955965,PLT_learning_01,B,2014_Mrz_27_1324,P23,
stim_fb/ques.jpg,stim_fb/negf.jpg,stim_fb/posf.jpg,stim_01/d.jpg,stim_01/c.jpg,1,2,f,3,9,189,21,f,1,0.533165707154,01,03,60.0184955965,PLT_learning_01,B,2014_Mrz_27_1324,P23,
stim_fb/ques.jpg,stim_fb/negf.jpg,stim_fb/posf.jpg,stim_01/a.jpg,stim_01/b.jpg,2,1,j,3,10,190,16,j,1,0.549856333951,01,03,60.0184955965,PLT_learning_01,B,2014_Mrz_27_1324,P23,
stim_fb/ques.jpg,stim_fb/negf.jpg,stim_fb/posf.jpg,stim_01/b.jpg,stim_01/a.jpg,1,1,f,3,11,191,0,f,1,0.516523158009,01,03,60.0184955965,PLT_learning_01,B,2014_Mrz_27_1324,P23,
stim_fb/ques.jpg,stim_fb/negf.jpg,stim_fb/posf.jpg,stim_01/b.jpg,stim_01/a.jpg,1,1,f,3,12,192,3,f,1,0.516548769751,01,03,60.0184955965,PLT_learning_01,B,2014_Mrz_27_1324,P23,
stim_fb/ques.jpg,stim_fb/posf.jpg,stim_fb/negf.jpg,stim_01/e.jpg,stim_01/f.jpg,2,3,j,3,13,193,59,j,1,0.549884887012,01,03,60.0184955965,PLT_learning_01,B,2014_Mrz_27_1324,P23,
stim_fb/ques.jpg,stim_fb/negf.jpg,stim_fb/posf.jpg,stim_01/b.jpg,stim_01/a.jpg,1,1,f,3,14,194,1,f,1,0.633133999241,01,03,60.0184955965,PLT_learning_01,B,2014_Mrz_27_1324,P23,
stim_fb/ques.jpg,stim_fb/negf.jpg,stim_fb/posf.jpg,stim_01/c.jpg,stim_01/d.jpg,2,2,j,3,15,195,33,j,1,0.783115862603,01,03,60.0184955965,PLT_learning_01,B,2014_Mrz_27_1324,P23,
stim_fb/ques.jpg,stim_fb/posf.jpg,stim_fb/negf.jpg,stim_01/e.jpg,stim_01/f.jpg,2,3,j,3,16,196,56,j,1,0.516528742909,01,03,60.0184955965,PLT_learning_01,B,2014_Mrz_27_1324,P23,
stim_fb/ques.jpg,stim_fb/negf.jpg,stim_fb/posf.jpg,stim_01/e.jpg,stim_01/f.jpg,2,3,j,3,17,197,52,j,1,0.533176973192,01,03,60.0184955965,PLT_learning_01,B,2014_Mrz_27_1324,P23,
stim_fb/ques.jpg,stim_fb/negf.jpg,stim_fb/posf.jpg,stim_01/f.jpg,stim_01/e.jpg,1,3,f,3,18,198,40,f,1,0.583169131175,01,03,60.0184955965,PLT_learning_01,B,2014_Mrz_27_1324,P23,
stim_fb/ques.jpg,stim_fb/negf.jpg,stim_fb/posf.jpg,stim_01/a.jpg,stim_01/b.jpg,2,1,j,3,19,199,11,j,1,0.533191613628,01,03,60.0184955965,PLT_learning_01,B,2014_Mrz_27_1324,P23,
stim_fb/ques.jpg,stim_fb/negf.jpg,stim_fb/posf.jpg,stim_01/c.jpg,stim_01/d.jpg,2,2,j,3,20,200,34,j,1,0.799842531099,01,03,60.0184955965,PLT_learning_01,B,2014_Mrz_27_1324,P23,
stim_fb/ques.jpg,stim_fb/negf.jpg,stim_fb/posf.jpg,stim_01/a.jpg,stim_01/b.jpg,2,1,j,3,21,201,15,j,1,0.716521624192,01,03,60.0184955965,PLT_learning_01,B,2014_Mrz_27_1324,P23,
stim_fb/ques.jpg,stim_fb/posf.jpg,stim_fb/negf.jpg,stim_01/d.jpg,stim_01/c.jpg,1,2,f,3,22,202,27,f,1,0.549875960798,01,03,60.0184955965,PLT_learning_01,B,2014_Mrz_27_1324,P23,
stim_fb/ques.jpg,stim_fb/negf.jpg,stim_fb/posf.jpg,stim_01/e.jpg,stim_01/f.jpg,2,3,j,3,23,203,51,j,1,0.63316986049,01,03,60.0184955965,PLT_learning_01,B,2014_Mrz_27_1324,P23,
stim_fb/ques.jpg,stim_fb/posf.jpg,stim_fb/negf.jpg,stim_01/b.jpg,stim_01/a.jpg,1,1,f,3,24,204,9,f,1,0.666538100698,01,03,60.0184955965,PLT_learning_01,B,2014_Mrz_27_1324,P23,
stim_fb/ques.jpg,stim_fb/negf.jpg,stim_fb/posf.jpg,stim_01/f.jpg,stim_01/e.jpg,1,3,f,3,25,205,41,f,1,0.633190539957,01,03,60.0184955965,PLT_learning_01,B,2014_Mrz_27_1324,P23,
stim_fb/ques.jpg,stim_fb/negf.jpg,stim_fb/posf.jpg,stim_01/e.jpg,stim_01/f.jpg,2,3,j,3,26,206,53,j,1,0.483089905001,01,03,60.0184955965,PLT_learning_01,B,2014_Mrz_27_1324,P23,
stim_fb/ques.jpg,stim_fb/negf.jpg,stim_fb/posf.jpg,stim_01/d.jpg,stim_01/c.jpg,1,2,f,3,27,207,25,f,1,0.499885694523,01,03,60.0184955965,PLT_learning_01,B,2014_Mrz_27_1324,P23,
stim_fb/ques.jpg,stim_fb/negf.jpg,stim_fb/posf.jpg,stim_01/f.jpg,stim_01/e.jpg,1,3,f,3,28,208,45,f,1,0.749772160465,01,03,60.0184955965,PLT_learning_01,B,2014_Mrz_27_1324,P23,
stim_fb/ques.jpg,stim_fb/negf.jpg,stim_fb/posf.jpg,stim_01/a.jpg,stim_01/b.jpg,2,1,j,3,29,209,10,j,1,0.666476101397,01,03,60.0184955965,PLT_learning_01,B,2014_Mrz_27_1324,P23,
stim_fb/ques.jpg,stim_fb/posf.jpg,stim_fb/negf.jpg,stim_01/d.jpg,stim_01/c.jpg,1,2,f,3,30,210,28,f,1,0.449911939339,01,03,60.0184955965,PLT_learning_01,B,2014_Mrz_27_1324,P23,
stim_fb/ques.jpg,stim_fb/posf.jpg,stim_fb/negf.jpg,stim_01/d.jpg,stim_01/c.jpg,1,2,f,3,31,211,29,f,1,0.499868440581,01,03,60.0184955965,PLT_learning_01,B,2014_Mrz_27_1324,P23,
stim_fb/ques.jpg,stim_fb/negf.jpg,stim_fb/posf.jpg,stim_01/f.jpg,stim_01/e.jpg,1,3,f,3,32,212,43,f,1,0.649816686278,01,03,60.0184955965,PLT_learning_01,B,2014_Mrz_27_1324,P23,
stim_fb/ques.jpg,stim_fb/negf.jpg,stim_fb/posf.jpg,stim_01/a.jpg,stim_01/b.jpg,2,1,j,3,33,213,12,j,1,0.449888402762,01,03,60.0184955965,PLT_learning_01,B,2014_Mrz_27_1324,P23,
stim_fb/ques.jpg,stim_fb/negf.jpg,stim_fb/posf.jpg,stim_01/e.jpg,stim_01/f.jpg,2,3,j,3,34,214,54,j,1,0.449890408755,01,03,60.0184955965,PLT_learning_01,B,2014_Mrz_27_1324,P23,
stim_fb/ques.jpg,stim_fb/negf.jpg,stim_fb/posf.jpg,stim_01/c.jpg,stim_01/d.jpg,2,2,j,3,35,215,30,j,1,0.716487350895,01,03,60.0184955965,PLT_learning_01,B,2014_Mrz_27_1324,P23,
stim_fb/ques.jpg,stim_fb/posf.jpg,stim_fb/negf.jpg,stim_01/a.jpg,stim_01/b.jpg,2,1,j,3,36,216,19,j,1,0.499878530693,01,03,60.0184955965,PLT_learning_01,B,2014_Mrz_27_1324,P23,
stim_fb/ques.jpg,stim_fb/posf.jpg,stim_fb/negf.jpg,stim_01/c.jpg,stim_01/d.jpg,2,2,j,3,37,217,39,j,1,0.566509601771,01,03,60.0184955965,PLT_learning_01,B,2014_Mrz_27_1324,P23,
stim_fb/ques.jpg,stim_fb/negf.jpg,stim_fb/posf.jpg,stim_01/b.jpg,stim_01/a.jpg,1,1,f,3,38,218,2,f,1,0.499902196592,01,03,60.0184955965,PLT_learning_01,B,2014_Mrz_27_1324,P23,
stim_fb/ques.jpg,stim_fb/negf.jpg,stim_fb/posf.jpg,stim_01/c.jpg,stim_01/d.jpg,2,2,j,3,39,219,35,j,1,0.616508625842,01,03,60.0184955965,PLT_learning_01,B,2014_Mrz_27_1324,P23,
stim_fb/ques.jpg,stim_fb/posf.jpg,stim_fb/negf.jpg,stim_01/a.jpg,stim_01/b.jpg,2,1,j,3,40,220,18,j,1,0.516540023985,01,03,60.0184955965,PLT_learning_01,B,2014_Mrz_27_1324,P23,
stim_fb/ques.jpg,stim_fb/posf.jpg,stim_fb/negf.jpg,stim_01/f.jpg,stim_01/e.jpg,1,3,f,3,41,221,48,f,1,0.566521069311,01,03,60.0184955965,PLT_learning_01,B,2014_Mrz_27_1324,P23,
stim_fb/ques.jpg,stim_fb/negf.jpg,stim_fb/posf.jpg,stim_01/d.jpg,stim_01/c.jpg,1,2,f,3,42,222,20,f,1,1.61619115875,01,03,60.0184955965,PLT_learning_01,B,2014_Mrz_27_1324,P23,
stim_fb/ques.jpg,stim_fb/negf.jpg,stim_fb/posf.jpg,stim_01/b.jpg,stim_01/a.jpg,1,1,f,3,43,223,5,f,1,0.699794215855,01,03,60.0184955965,PLT_learning_01,B,2014_Mrz_27_1324,P23,
stim_fb/ques.jpg,stim_fb/negf.jpg,stim_fb/posf.jpg,stim_01/c.jpg,stim_01/d.jpg,2,2,j,3,44,224,32,j,1,0.516520661797,01,03,60.0184955965,PLT_learning_01,B,2014_Mrz_27_1324,P23,
stim_fb/ques.jpg,stim_fb/negf.jpg,stim_fb/posf.jpg,stim_01/f.jpg,stim_01/e.jpg,1,3,f,3,45,225,42,f,1,0.616526418123,01,03,60.0184955965,PLT_learning_01,B,2014_Mrz_27_1324,P23,
stim_fb/ques.jpg,stim_fb/negf.jpg,stim_fb/posf.jpg,stim_01/a.jpg,stim_01/b.jpg,2,1,j,3,46,226,17,j,1,0.633148381034,01,03,60.0184955965,PLT_learning_01,B,2014_Mrz_27_1324,P23,
stim_fb/ques.jpg,stim_fb/posf.jpg,stim_fb/negf.jpg,stim_01/c.jpg,stim_01/d.jpg,2,2,j,3,47,227,38,j,1,0.599838221373,01,03,60.0184955965,PLT_learning_01,B,2014_Mrz_27_1324,P23,
stim_fb/ques.jpg,stim_fb/posf.jpg,stim_fb/negf.jpg,stim_01/c.jpg,stim_01/d.jpg,2,2,j,3,48,228,37,j,1,0.499871715732,01,03,60.0184955965,PLT_learning_01,B,2014_Mrz_27_1324,P23,
stim_fb/ques.jpg,stim_fb/posf.jpg,stim_fb/negf.jpg,stim_01/e.jpg,stim_01/f.jpg,2,3,j,3,49,229,57,j,1,0.733103521389,01,03,60.0184955965,PLT_learning_01,B,2014_Mrz_27_1324,P23,
stim_fb/ques.jpg,stim_fb/negf.jpg,stim_fb/posf.jpg,stim_01/d.jpg,stim_01/c.jpg,1,2,f,3,50,230,24,f,1,0.666510600256,01,03,60.0184955965,PLT_learning_01,B,2014_Mrz_27_1324,P23,
stim_fb/ques.jpg,stim_fb/negf.jpg,stim_fb/posf.jpg,stim_01/e.jpg,stim_01/f.jpg,2,3,j,3,51,231,55,j,1,0.566545712642,01,03,60.0184955965,PLT_learning_01,B,2014_Mrz_27_1324,P23,
stim_fb/ques.jpg,stim_fb/posf.jpg,stim_fb/negf.jpg,stim_01/f.jpg,stim_01/e.jpg,1,3,f,3,52,232,49,f,1,1.0163846904,01,03,60.0184955965,PLT_learning_01,B,2014_Mrz_27_1324,P23,
stim_fb/ques.jpg,stim_fb/posf.jpg,stim_fb/negf.jpg,stim_01/f.jpg,stim_01/e.jpg,1,3,f,3,53,233,47,f,1,0.58315136897,01,03,60.0184955965,PLT_learning_01,B,2014_Mrz_27_1324,P23,
stim_fb/ques.jpg,stim_fb/negf.jpg,stim_fb/posf.jpg,stim_01/a.jpg,stim_01/b.jpg,2,1,j,3,54,234,13,j,1,0.749793787288,01,03,60.0184955965,PLT_learning_01,B,2014_Mrz_27_1324,P23,
stim_fb/ques.jpg,stim_fb/negf.jpg,stim_fb/posf.jpg,stim_01/d.jpg,stim_01/c.jpg,1,2,f,3,55,235,26,f,1,0.499856762518,01,03,60.0184955965,PLT_learning_01,B,2014_Mrz_27_1324,P23,
stim_fb/ques.jpg,stim_fb/posf.jpg,stim_fb/negf.jpg,stim_01/f.jpg,stim_01/e.jpg,1,3,f,3,56,236,46,f,1,0.466559721507,01,03,60.0184955965,PLT_learning_01,B,2014_Mrz_27_1324,P23,
stim_fb/ques.jpg,stim_fb/negf.jpg,stim_fb/posf.jpg,stim_01/b.jpg,stim_01/a.jpg,1,1,f,3,57,237,7,f,1,0.633113003989,01,03,60.0184955965,PLT_learning_01,B,2014_Mrz_27_1324,P23,
stim_fb/ques.jpg,stim_fb/negf.jpg,stim_fb/posf.jpg,stim_01/d.jpg,stim_01/c.jpg,1,2,f,3,58,238,22,f,1,0.549888408777,01,03,60.0184955965,PLT_learning_01,B,2014_Mrz_27_1324,P23,
stim_fb/ques.jpg,stim_fb/negf.jpg,stim_fb/posf.jpg,stim_01/c.jpg,stim_01/d.jpg,2,2,j,3,59,239,36,j,1,0.533220599768,01,03,60.0184955965,PLT_learning_01,B,2014_Mrz_27_1324,P23,
stim_fb/ques.jpg,stim_fb/posf.jpg,stim_fb/negf.jpg,stim_01/f.jpg,stim_01/e.jpg,1,3,f,4,0,240,49,f,1,0.683162635008,01,03,60.0184955965,PLT_learning_01,B,2014_Mrz_27_1324,P23,
stim_fb/ques.jpg,stim_fb/negf.jpg,stim_fb/posf.jpg,stim_01/a.jpg,stim_01/b.jpg,2,1,j,4,1,241,12,j,1,1.09969183806,01,03,60.0184955965,PLT_learning_01,B,2014_Mrz_27_1324,P23,
stim_fb/ques.jpg,stim_fb/negf.jpg,stim_fb/posf.jpg,stim_01/a.jpg,stim_01/b.jpg,2,1,j,4,2,242,16,j,1,0.499830329733,01,03,60.0184955965,PLT_learning_01,B,2014_Mrz_27_1324,P23,
stim_fb/ques.jpg,stim_fb/negf.jpg,stim_fb/posf.jpg,stim_01/c.jpg,stim_01/d.jpg,2,2,j,4,3,243,34,j,1,0.633137641305,01,03,60.0184955965,PLT_learning_01,B,2014_Mrz_27_1324,P23,
stim_fb/ques.jpg,stim_fb/negf.jpg,stim_fb/posf.jpg,stim_01/d.jpg,stim_01/c.jpg,1,2,f,4,4,244,24,f,1,0.633126426394,01,03,60.0184955965,PLT_learning_01,B,2014_Mrz_27_1324,P23,
stim_fb/ques.jpg,stim_fb/negf.jpg,stim_fb/posf.jpg,stim_01/c.jpg,stim_01/d.jpg,2,2,j,4,5,245,36,j,1,0.516546742706,01,03,60.0184955965,PLT_learning_01,B,2014_Mrz_27_1324,P23,
stim_fb/ques.jpg,stim_fb/negf.jpg,stim_fb/posf.jpg,stim_01/a.jpg,stim_01/b.jpg,2,1,j,4,6,246,15,j,1,1.04970462138,01,03,60.0184955965,PLT_learning_01,B,2014_Mrz_27_1324,P23,
stim_fb/ques.jpg,stim_fb/negf.jpg,stim_fb/posf.jpg,stim_01/e.jpg,stim_01/f.jpg,2,3,j,4,7,247,55,j,1,0.549874102172,01,03,60.0184955965,PLT_learning_01,B,2014_Mrz_27_1324,P23,
stim_fb/ques.jpg,stim_fb/posf.jpg,stim_fb/negf.jpg,stim_01/b.jpg,stim_01/a.jpg,1,1,f,4,8,248,8,f,1,0.783183221242,01,03,60.0184955965,PLT_learning_01,B,2014_Mrz_27_1324,P23,
stim_fb/ques.jpg,stim_fb/negf.jpg,stim_fb/posf.jpg,stim_01/f.jpg,stim_01/e.jpg,1,3,f,4,9,249,43,f,1,0.533191237693,01,03,60.0184955965,PLT_learning_01,B,2014_Mrz_27_1324,P23,
stim_fb/ques.jpg,stim_fb/negf.jpg,stim_fb/posf.jpg,stim_01/c.jpg,stim_01/d.jpg,2,2,j,4,10,250,32,j,1,0.666477575065,01,03,60.0184955965,PLT_learning_01,B,2014_Mrz_27_1324,P23,
stim_fb/ques.jpg,stim_fb/negf.jpg,stim_fb/posf.jpg,stim_01/b.jpg,stim_01/a.jpg,1,1,f,4,11,251,0,f,1,0.533165899633,01,03,60.0184955965,PLT_learning_01,B,2014_Mrz_27_1324,P23,
stim_fb/ques.jpg,stim_fb/negf.jpg,stim_fb/posf.jpg,stim_01/a.jpg,stim_01/b.jpg,2,1,j,4,12,252,13,j,1,0.533089040349,01,03,60.0184955965,PLT_learning_01,B,2014_Mrz_27_1324,P23,
stim_fb/ques.jpg,stim_fb/negf.jpg,stim_fb/posf.jpg,stim_01/d.jpg,stim_01/c.jpg,1,2,f,4,13,253,25,f,1,0.716476039744,01,03,60.0184955965,PLT_learning_01,B,2014_Mrz_27_1324,P23,
stim_fb/ques.jpg,stim_fb/negf.jpg,stim_fb/posf.jpg,stim_01/b.jpg,stim_01/a.jpg,1,1,f,4,14,254,3,f,1,0.66555472833,01,03,60.0184955965,PLT_learning_01,B,2014_Mrz_27_1324,P23,
stim_fb/ques.jpg,stim_fb/posf.jpg,stim_fb/negf.jpg,stim_01/b.jpg,stim_01/a.jpg,1,1,f,4,15,255,9,f,1,0.5998422905,01,03,60.0184955965,PLT_learning_01,B,2014_Mrz_27_1324,P23,
stim_fb/ques.jpg,stim_fb/posf.jpg,stim_fb/negf.jpg,stim_01/c.jpg,stim_01/d.jpg,2,2,j,4,16,256,38,j,1,0.466561303444,01,03,60.0184955965,PLT_learning_01,B,2014_Mrz_27_1324,P23,
stim_fb/ques.jpg,stim_fb/negf.jpg,stim_fb/posf.jpg,stim_01/c.jpg,stim_01/d.jpg,2,2,j,4,17,257,35,j,1,0.533214148712,01,03,60.0184955965,PLT_learning_01,B,2014_Mrz_27_1324,P23,
stim_fb/ques.jpg,stim_fb/negf.jpg,stim_fb/posf.jpg,stim_01/d.jpg,stim_01/c.jpg,1,2,f,4,18,258,22,f,1,0.566522073811,01,03,60.0184955965,PLT_learning_01,B,2014_Mrz_27_1324,P23,
stim_fb/ques.jpg,stim_fb/negf.jpg,stim_fb/posf.jpg,stim_01/d.jpg,stim_01/c.jpg,1,2,f,4,19,259,23,f,1,0.533220813299,01,03,60.0184955965,PLT_learning_01,B,2014_Mrz_27_1324,P23,
stim_fb/ques.jpg,stim_fb/negf.jpg,stim_fb/posf.jpg,stim_01/a.jpg,stim_01/b.jpg,2,1,j,4,20,260,10,j,1,0.599842004789,01,03,60.0184955965,PLT_learning_01,B,2014_Mrz_27_1324,P23,
stim_fb/ques.jpg,stim_fb/posf.jpg,stim_fb/negf.jpg,stim_01/a.jpg,stim_01/b.jpg,2,1,j,4,21,261,18,j,1,0.666477514915,01,03,60.0184955965,PLT_learning_01,B,2014_Mrz_27_1324,P23,
stim_fb/ques.jpg,stim_fb/posf.jpg,stim_fb/negf.jpg,stim_01/f.jpg,stim_01/e.jpg,1,3,f,4,22,262,46,f,1,0.466552452416,01,03,60.0184955965,PLT_learning_01,B,2014_Mrz_27_1324,P23,
stim_fb/ques.jpg,stim_fb/negf.jpg,stim_fb/posf.jpg,stim_01/c.jpg,stim_01/d.jpg,2,2,j,4,23,263,33,j,1,0.433221826821,01,03,60.0184955965,PLT_learning_01,B,2014_Mrz_27_1324,P23,
stim_fb/ques.jpg,stim_fb/negf.jpg,stim_fb/posf.jpg,stim_01/d.jpg,stim_01/c.jpg,1,2,f,4,24,264,26,f,1,0.516609788612,01,03,60.0184955965,PLT_learning_01,B,2014_Mrz_27_1324,P23,
stim_fb/ques.jpg,stim_fb/posf.jpg,stim_fb/negf.jpg,stim_01/d.jpg,stim_01/c.jpg,1,2,f,4,25,265,29,f,1,0.549892414747,01,03,60.0184955965,PLT_learning_01,B,2014_Mrz_27_1324,P23,
stim_fb/ques.jpg,stim_fb/negf.jpg,stim_fb/posf.jpg,stim_01/e.jpg,stim_01/f.jpg,2,3,j,4,26,266,52,j,1,0.516545344226,01,03,60.0184955965,PLT_learning_01,B,2014_Mrz_27_1324,P23,
stim_fb/ques.jpg,stim_fb/negf.jpg,stim_fb/posf.jpg,stim_01/b.jpg,stim_01/a.jpg,1,1,f,4,27,267,5,f,1,0.516536760864,01,03,60.0184955965,PLT_learning_01,B,2014_Mrz_27_1324,P23,
stim_fb/ques.jpg,stim_fb/negf.jpg,stim_fb/posf.jpg,stim_01/d.jpg,stim_01/c.jpg,1,2,f,4,28,268,21,f,1,0.566550106578,01,03,60.0184955965,PLT_learning_01,B,2014_Mrz_27_1324,P23,
stim_fb/ques.jpg,stim_fb/negf.jpg,stim_fb/posf.jpg,stim_01/f.jpg,stim_01/e.jpg,1,3,f,4,29,269,41,f,1,0.48322697714,01,03,60.0184955965,PLT_learning_01,B,2014_Mrz_27_1324,P23,
stim_fb/ques.jpg,stim_fb/posf.jpg,stim_fb/negf.jpg,stim_01/c.jpg,stim_01/d.jpg,2,2,j,4,30,270,39,j,1,0.483224504987,01,03,60.0184955965,PLT_learning_01,B,2014_Mrz_27_1324,P23,
stim_fb/ques.jpg,stim_fb/negf.jpg,stim_fb/posf.jpg,stim_01/c.jpg,stim_01/d.jpg,2,2,j,4,31,271,30,j,1,0.499890341086,01,03,60.0184955965,PLT_learning_01,B,2014_Mrz_27_1324,P23,
stim_fb/ques.jpg,stim_fb/negf.jpg,stim_fb/posf.jpg,stim_01/f.jpg,stim_01/e.jpg,1,3,f,4,32,272,40,f,1,0.533221065928,01,03,60.0184955965,PLT_learning_01,B,2014_Mrz_27_1324,P23,
stim_fb/ques.jpg,stim_fb/negf.jpg,stim_fb/posf.jpg,stim_01/f.jpg,stim_01/e.jpg,1,3,f,4,33,273,44,f,1,0.54986347372,01,03,60.0184955965,PLT_learning_01,B,2014_Mrz_27_1324,P23,
stim_fb/ques.jpg,stim_fb/posf.jpg,stim_fb/negf.jpg,stim_01/f.jpg,stim_01/e.jpg,1,3,f,4,34,274,47,f,1,0.499882380274,01,03,60.0184955965,PLT_learning_01,B,2014_Mrz_27_1324,P23,
stim_fb/ques.jpg,stim_fb/negf.jpg,stim_fb/posf.jpg,stim_01/b.jpg,stim_01/a.jpg,1,1,f,4,35,275,4,f,1,0.49988814863,01,03,60.0184955965,PLT_learning_01,B,2014_Mrz_27_1324,P23,
stim_fb/ques.jpg,stim_fb/negf.jpg,stim_fb/posf.jpg,stim_01/f.jpg,stim_01/e.jpg,1,3,f,4,36,276,45,f,1,0.599831851521,01,03,60.0184955965,PLT_learning_01,B,2014_Mrz_27_1324,P23,
stim_fb/ques.jpg,stim_fb/negf.jpg,stim_fb/posf.jpg,stim_01/a.jpg,stim_01/b.jpg,2,1,j,4,37,277,14,j,1,0.633196172975,01,03,60.0184955965,PLT_learning_01,B,2014_Mrz_27_1324,P23,
stim_fb/ques.jpg,stim_fb/negf.jpg,stim_fb/posf.jpg,stim_01/b.jpg,stim_01/a.jpg,1,1,f,4,38,278,6,f,1,0.866391732424,01,03,60.0184955965,PLT_learning_01,B,2014_Mrz_27_1324,P23,
stim_fb/ques.jpg,stim_fb/negf.jpg,stim_fb/posf.jpg,stim_01/b.jpg,stim_01/a.jpg,1,1,f,4,39,279,7,f,1,1.13293093386,01,03,60.0184955965,PLT_learning_01,B,2014_Mrz_27_1324,P23,
stim_fb/ques.jpg,stim_fb/negf.jpg,stim_fb/posf.jpg,stim_01/e.jpg,stim_01/f.jpg,2,3,j,4,40,280,51,j,1,0.599816417108,01,03,60.0184955965,PLT_learning_01,B,2014_Mrz_27_1324,P23,
stim_fb/ques.jpg,stim_fb/posf.jpg,stim_fb/negf.jpg,stim_01/d.jpg,stim_01/c.jpg,1,2,f,4,41,281,28,f,1,0.533189791093,01,03,60.0184955965,PLT_learning_01,B,2014_Mrz_27_1324,P23,
stim_fb/ques.jpg,stim_fb/negf.jpg,stim_fb/posf.jpg,stim_01/b.jpg,stim_01/a.jpg,1,1,f,4,42,282,2,f,1,0.866427344053,01,03,60.0184955965,PLT_learning_01,B,2014_Mrz_27_1324,P23,
stim_fb/ques.jpg,stim_fb/negf.jpg,stim_fb/posf.jpg,stim_01/d.jpg,stim_01/c.jpg,1,2,f,4,43,283,20,f,1,0.683165200393,01,03,60.0184955965,PLT_learning_01,B,2014_Mrz_27_1324,P23,
stim_fb/ques.jpg,stim_fb/posf.jpg,stim_fb/negf.jpg,stim_01/f.jpg,stim_01/e.jpg,1,3,f,4,44,284,48,f,1,0.616493931271,01,03,60.0184955965,PLT_learning_01,B,2014_Mrz_27_1324,P23,
stim_fb/ques.jpg,stim_fb/posf.jpg,stim_fb/negf.jpg,stim_01/e.jpg,stim_01/f.jpg,2,3,j,4,45,285,56,j,1,0.499764495889,01,03,60.0184955965,PLT_learning_01,B,2014_Mrz_27_1324,P23,
stim_fb/ques.jpg,stim_fb/negf.jpg,stim_fb/posf.jpg,stim_01/a.jpg,stim_01/b.jpg,2,1,j,4,46,286,17,j,1,0.583202300726,01,03,60.0184955965,PLT_learning_01,B,2014_Mrz_27_1324,P23,
stim_fb/ques.jpg,stim_fb/posf.jpg,stim_fb/negf.jpg,stim_01/d.jpg,stim_01/c.jpg,1,2,f,4,47,287,27,f,1,0.63316441995,01,03,60.0184955965,PLT_learning_01,B,2014_Mrz_27_1324,P23,
stim_fb/ques.jpg,stim_fb/negf.jpg,stim_fb/posf.jpg,stim_01/f.jpg,stim_01/e.jpg,1,3,f,4,48,288,42,f,1,0.449869654102,01,03,60.0184955965,PLT_learning_01,B,2014_Mrz_27_1324,P23,
stim_fb/ques.jpg,stim_fb/negf.jpg,stim_fb/posf.jpg,stim_01/e.jpg,stim_01/f.jpg,2,3,j,4,49,289,50,j,1,0.499880458491,01,03,60.0184955965,PLT_learning_01,B,2014_Mrz_27_1324,P23,
stim_fb/ques.jpg,stim_fb/negf.jpg,stim_fb/posf.jpg,stim_01/a.jpg,stim_01/b.jpg,2,1,j,4,50,290,11,j,1,0.48315860197,01,03,60.0184955965,PLT_learning_01,B,2014_Mrz_27_1324,P23,
stim_fb/ques.jpg,stim_fb/posf.jpg,stim_fb/negf.jpg,stim_01/a.jpg,stim_01/b.jpg,2,1,j,4,51,291,19,j,1,0.483208757796,01,03,60.0184955965,PLT_learning_01,B,2014_Mrz_27_1324,P23,
stim_fb/ques.jpg,stim_fb/posf.jpg,stim_fb/negf.jpg,stim_01/c.jpg,stim_01/d.jpg,2,2,j,4,52,292,37,j,1,0.433225703469,01,03,60.0184955965,PLT_learning_01,B,2014_Mrz_27_1324,P23,
stim_fb/ques.jpg,stim_fb/posf.jpg,stim_fb/negf.jpg,stim_01/e.jpg,stim_01/f.jpg,2,3,j,4,53,293,58,j,1,0.499871460097,01,03,60.0184955965,PLT_learning_01,B,2014_Mrz_27_1324,P23,
stim_fb/ques.jpg,stim_fb/negf.jpg,stim_fb/posf.jpg,stim_01/e.jpg,stim_01/f.jpg,2,3,j,4,54,294,54,j,1,0.399894545551,01,03,60.0184955965,PLT_learning_01,B,2014_Mrz_27_1324,P23,
stim_fb/ques.jpg,stim_fb/negf.jpg,stim_fb/posf.jpg,stim_01/b.jpg,stim_01/a.jpg,1,1,f,4,55,295,1,f,1,0.483236336432,01,03,60.0184955965,PLT_learning_01,B,2014_Mrz_27_1324,P23,
stim_fb/ques.jpg,stim_fb/posf.jpg,stim_fb/negf.jpg,stim_01/e.jpg,stim_01/f.jpg,2,3,j,4,56,296,59,j,1,0.399914918253,01,03,60.0184955965,PLT_learning_01,B,2014_Mrz_27_1324,P23,
stim_fb/ques.jpg,stim_fb/negf.jpg,stim_fb/posf.jpg,stim_01/e.jpg,stim_01/f.jpg,2,3,j,4,57,297,53,j,1,0.433243032598,01,03,60.0184955965,PLT_learning_01,B,2014_Mrz_27_1324,P23,
stim_fb/ques.jpg,stim_fb/posf.jpg,stim_fb/negf.jpg,stim_01/e.jpg,stim_01/f.jpg,2,3,j,4,58,298,57,j,1,0.549894932012,01,03,60.0184955965,PLT_learning_01,B,2014_Mrz_27_1324,P23,
stim_fb/ques.jpg,stim_fb/negf.jpg,stim_fb/posf.jpg,stim_01/c.jpg,stim_01/d.jpg,2,2,j,4,59,299,31,j,1,0.433243167935,01,03,60.0184955965,PLT_learning_01,B,2014_Mrz_27_1324,P23,
stim_fb/ques.jpg,stim_fb/negf.jpg,stim_fb/posf.jpg,stim_01/a.jpg,stim_01/b.jpg,2,1,j,5,0,300,15,j,1,1.24964406266,01,03,60.0184955965,PLT_learning_01,B,2014_Mrz_27_1324,P23,
stim_fb/ques.jpg,stim_fb/negf.jpg,stim_fb/posf.jpg,stim_01/f.jpg,stim_01/e.jpg,1,3,f,5,1,301,40,f,1,0.61648919749,01,03,60.0184955965,PLT_learning_01,B,2014_Mrz_27_1324,P23,
stim_fb/ques.jpg,stim_fb/negf.jpg,stim_fb/posf.jpg,stim_01/c.jpg,stim_01/d.jpg,2,2,j,5,2,302,30,j,1,0.483204207471,01,03,60.0184955965,PLT_learning_01,B,2014_Mrz_27_1324,P23,
stim_fb/ques.jpg,stim_fb/posf.jpg,stim_fb/negf.jpg,stim_01/c.jpg,stim_01/d.jpg,2,2,j,5,3,303,38,j,1,0.449907608561,01,03,60.0184955965,PLT_learning_01,B,2014_Mrz_27_1324,P23,
stim_fb/ques.jpg,stim_fb/negf.jpg,stim_fb/posf.jpg,stim_01/c.jpg,stim_01/d.jpg,2,2,j,5,4,304,32,j,1,0.466553351654,01,03,60.0184955965,PLT_learning_01,B,2014_Mrz_27_1324,P23,
stim_fb/ques.jpg,stim_fb/negf.jpg,stim_fb/posf.jpg,stim_01/a.jpg,stim_01/b.jpg,2,1,j,5,5,305,13,j,1,0.499894229764,01,03,60.0184955965,PLT_learning_01,B,2014_Mrz_27_1324,P23,
stim_fb/ques.jpg,stim_fb/negf.jpg,stim_fb/posf.jpg,stim_01/f.jpg,stim_01/e.jpg,1,3,f,5,6,306,41,f,1,0.54991320549,01,03,60.0184955965,PLT_learning_01,B,2014_Mrz_27_1324,P23,
stim_fb/ques.jpg,stim_fb/negf.jpg,stim_fb/posf.jpg,stim_01/c.jpg,stim_01/d.jpg,2,2,j,5,7,307,31,j,1,0.449905554449,01,03,60.0184955965,PLT_learning_01,B,2014_Mrz_27_1324,P23,
stim_fb/ques.jpg,stim_fb/posf.jpg,stim_fb/negf.jpg,stim_01/d.jpg,stim_01/c.jpg,1,2,f,5,8,308,27,f,1,0.499851288895,01,03,60.0184955965,PLT_learning_01,B,2014_Mrz_27_1324,P23,
stim_fb/ques.jpg,stim_fb/posf.jpg,stim_fb/negf.jpg,stim_01/e.jpg,stim_01/f.jpg,2,3,j,5,9,309,59,j,1,0.466562686887,01,03,60.0184955965,PLT_learning_01,B,2014_Mrz_27_1324,P23,
stim_fb/ques.jpg,stim_fb/negf.jpg,stim_fb/posf.jpg,stim_01/d.jpg,stim_01/c.jpg,1,2,f,5,10,310,26,f,1,0.566530735368,01,03,60.0184955965,PLT_learning_01,B,2014_Mrz_27_1324,P23,
stim_fb/ques.jpg,stim_fb/negf.jpg,stim_fb/posf.jpg,stim_01/a.jpg,stim_01/b.jpg,2,1,j,5,11,311,14,j,1,0.533229838762,01,03,60.0184955965,PLT_learning_01,B,2014_Mrz_27_1324,P23,
stim_fb/ques.jpg,stim_fb/negf.jpg,stim_fb/posf.jpg,stim_01/c.jpg,stim_01/d.jpg,2,2,j,5,12,312,34,j,1,0.516547816378,01,03,60.0184955965,PLT_learning_01,B,2014_Mrz_27_1324,P23,
stim_fb/ques.jpg,stim_fb/negf.jpg,stim_fb/posf.jpg,stim_01/b.jpg,stim_01/a.jpg,1,1,f,5,13,313,6,f,1,0.516547413375,01,03,60.0184955965,PLT_learning_01,B,2014_Mrz_27_1324,P23,
stim_fb/ques.jpg,stim_fb/negf.jpg,stim_fb/posf.jpg,stim_01/b.jpg,stim_01/a.jpg,1,1,f,5,14,314,5,j,0,0.533203249588,01,03,60.0184955965,PLT_learning_01,B,2014_Mrz_27_1324,P23,
stim_fb/ques.jpg,stim_fb/negf.jpg,stim_fb/posf.jpg,stim_01/b.jpg,stim_01/a.jpg,1,1,f,5,15,315,2,f,1,0.683148917869,01,03,60.0184955965,PLT_learning_01,B,2014_Mrz_27_1324,P23,
stim_fb/ques.jpg,stim_fb/posf.jpg,stim_fb/negf.jpg,stim_01/b.jpg,stim_01/a.jpg,1,1,f,5,16,316,9,f,1,0.483238189043,01,03,60.0184955965,PLT_learning_01,B,2014_Mrz_27_1324,P23,
stim_fb/ques.jpg,stim_fb/negf.jpg,stim_fb/posf.jpg,stim_01/e.jpg,stim_01/f.jpg,2,3,j,5,17,317,51,j,1,0.516492818502,01,03,60.0184955965,PLT_learning_01,B,2014_Mrz_27_1324,P23,
stim_fb/ques.jpg,stim_fb/negf.jpg,stim_fb/posf.jpg,stim_01/e.jpg,stim_01/f.jpg,2,3,j,5,18,318,54,j,1,0.749771080777,01,03,60.0184955965,PLT_learning_01,B,2014_Mrz_27_1324,P23,
stim_fb/ques.jpg,stim_fb/posf.jpg,stim_fb/negf.jpg,stim_01/c.jpg,stim_01/d.jpg,2,2,j,5,19,319,37,j,1,0.583196045157,01,03,60.0184955965,PLT_learning_01,B,2014_Mrz_27_1324,P23,
stim_fb/ques.jpg,stim_fb/negf.jpg,stim_fb/posf.jpg,stim_01/b.jpg,stim_01/a.jpg,1,1,f,5,20,320,4,f,1,0.616485546404,01,03,60.0184955965,PLT_learning_01,B,2014_Mrz_27_1324,P23,
stim_fb/ques.jpg,stim_fb/negf.jpg,stim_fb/posf.jpg,stim_01/c.jpg,stim_01/d.jpg,2,2,j,5,21,321,35,j,1,0.8997495126,01,03,60.0184955965,PLT_learning_01,B,2014_Mrz_27_1324,P23,
stim_fb/ques.jpg,stim_fb/negf.jpg,stim_fb/posf.jpg,stim_01/b.jpg,stim_01/a.jpg,1,1,f,5,22,322,1,f,1,1.08304198374,01,03,60.0184955965,PLT_learning_01,B,2014_Mrz_27_1324,P23,
stim_fb/ques.jpg,stim_fb/negf.jpg,stim_fb/posf.jpg,stim_01/d.jpg,stim_01/c.jpg,1,2,f,5,23,323,20,f,1,0.49988460882,01,03,60.0184955965,PLT_learning_01,B,2014_Mrz_27_1324,P23,
stim_fb/ques.jpg,stim_fb/posf.jpg,stim_fb/negf.jpg,stim_01/e.jpg,stim_01/f.jpg,2,3,j,5,24,324,58,j,1,0.533189454255,01,03,60.0184955965,PLT_learning_01,B,2014_Mrz_27_1324,P23,
stim_fb/ques.jpg,stim_fb/posf.jpg,stim_fb/negf.jpg,stim_01/f.jpg,stim_01/e.jpg,1,3,f,5,25,325,46,f,1,0.549844691977,01,03,60.0184955965,PLT_learning_01,B,2014_Mrz_27_1324,P23,
stim_fb/ques.jpg,stim_fb/posf.jpg,stim_fb/negf.jpg,stim_01/f.jpg,stim_01/e.jpg,1,3,f,5,26,326,49,f,1,0.549866375943,01,03,60.0184955965,PLT_learning_01,B,2014_Mrz_27_1324,P23,
stim_fb/ques.jpg,stim_fb/posf.jpg,stim_fb/negf.jpg,stim_01/e.jpg,stim_01/f.jpg,2,3,j,5,27,327,56,j,1,0.633165746251,01,03,60.0184955965,PLT_learning_01,B,2014_Mrz_27_1324,P23,
stim_fb/ques.jpg,stim_fb/posf.jpg,stim_fb/negf.jpg,stim_01/c.jpg,stim_01/d.jpg,2,2,j,5,28,328,39,j,1,0.549865338361,01,03,60.0184955965,PLT_learning_01,B,2014_Mrz_27_1324,P23,
stim_fb/ques.jpg,stim_fb/negf.jpg,stim_fb/posf.jpg,stim_01/b.jpg,stim_01/a.jpg,1,1,f,5,29,329,3,f,1,0.73318481972,01,03,60.0184955965,PLT_learning_01,B,2014_Mrz_27_1324,P23,
stim_fb/ques.jpg,stim_fb/negf.jpg,stim_fb/posf.jpg,stim_01/d.jpg,stim_01/c.jpg,1,2,f,5,30,330,22,f,1,0.833130498529,01,03,60.0184955965,PLT_learning_01,B,2014_Mrz_27_1324,P23,
stim_fb/ques.jpg,stim_fb/posf.jpg,stim_fb/negf.jpg,stim_01/b.jpg,stim_01/a.jpg,1,1,f,5,31,331,8,f,1,0.683117585892,01,03,60.0184955965,PLT_learning_01,B,2014_Mrz_27_1324,P23,
stim_fb/ques.jpg,stim_fb/negf.jpg,stim_fb/posf.jpg,stim_01/d.jpg,stim_01/c.jpg,1,2,f,5,32,332,23,f,1,0.599862242155,01,03,60.0184955965,PLT_learning_01,B,2014_Mrz_27_1324,P23,
stim_fb/ques.jpg,stim_fb/negf.jpg,stim_fb/posf.jpg,stim_01/f.jpg,stim_01/e.jpg,1,3,f,5,33,333,42,f,1,0.599848606219,01,03,60.0184955965,PLT_learning_01,B,2014_Mrz_27_1324,P23,
stim_fb/ques.jpg,stim_fb/negf.jpg,stim_fb/posf.jpg,stim_01/a.jpg,stim_01/b.jpg,2,1,j,5,34,334,10,j,1,0.549958185434,01,03,60.0184955965,PLT_learning_01,B,2014_Mrz_27_1324,P23,
stim_fb/ques.jpg,stim_fb/negf.jpg,stim_fb/posf.jpg,stim_01/e.jpg,stim_01/f.jpg,2,3,j,5,35,335,55,j,1,0.433240352928,01,03,60.0184955965,PLT_learning_01,B,2014_Mrz_27_1324,P23,
stim_fb/ques.jpg,stim_fb/negf.jpg,stim_fb/posf.jpg,stim_01/e.jpg,stim_01/f.jpg,2,3,j,5,36,336,52,j,1,0.566555447871,01,03,60.0184955965,PLT_learning_01,B,2014_Mrz_27_1324,P23,
stim_fb/ques.jpg,stim_fb/negf.jpg,stim_fb/posf.jpg,stim_01/e.jpg,stim_01/f.jpg,2,3,j,5,37,337,53,j,1,0.516522646737,01,03,60.0184955965,PLT_learning_01,B,2014_Mrz_27_1324,P23,
stim_fb/ques.jpg,stim_fb/negf.jpg,stim_fb/posf.jpg,stim_01/d.jpg,stim_01/c.jpg,1,2,f,5,38,338,24,f,1,0.566543327707,01,03,60.0184955965,PLT_learning_01,B,2014_Mrz_27_1324,P23,
stim_fb/ques.jpg,stim_fb/posf.jpg,stim_fb/negf.jpg,stim_01/f.jpg,stim_01/e.jpg,1,3,f,5,39,339,48,f,1,0.583199729326,01,03,60.0184955965,PLT_learning_01,B,2014_Mrz_27_1324,P23,
stim_fb/ques.jpg,stim_fb/negf.jpg,stim_fb/posf.jpg,stim_01/a.jpg,stim_01/b.jpg,2,1,j,5,40,340,16,j,1,0.583168908621,01,03,60.0184955965,PLT_learning_01,B,2014_Mrz_27_1324,P23,
stim_fb/ques.jpg,stim_fb/posf.jpg,stim_fb/negf.jpg,stim_01/a.jpg,stim_01/b.jpg,2,1,j,5,41,341,19,j,1,0.433245549862,01,03,60.0184955965,PLT_learning_01,B,2014_Mrz_27_1324,P23,
stim_fb/ques.jpg,stim_fb/posf.jpg,stim_fb/negf.jpg,stim_01/f.jpg,stim_01/e.jpg,1,3,f,5,42,342,47,f,1,0.516534685699,01,03,60.0184955965,PLT_learning_01,B,2014_Mrz_27_1324,P23,
stim_fb/ques.jpg,stim_fb/posf.jpg,stim_fb/negf.jpg,stim_01/e.jpg,stim_01/f.jpg,2,3,j,5,43,343,57,j,1,0.416581118258,01,03,60.0184955965,PLT_learning_01,B,2014_Mrz_27_1324,P23,
stim_fb/ques.jpg,stim_fb/negf.jpg,stim_fb/posf.jpg,stim_01/a.jpg,stim_01/b.jpg,2,1,j,5,44,344,12,j,1,0.449903407104,01,03,60.0184955965,PLT_learning_01,B,2014_Mrz_27_1324,P23,
stim_fb/ques.jpg,stim_fb/posf.jpg,stim_fb/negf.jpg,stim_01/a.jpg,stim_01/b.jpg,2,1,j,5,45,345,18,j,1,0.383240173983,01,03,60.0184955965,PLT_learning_01,B,2014_Mrz_27_1324,P23,
stim_fb/ques.jpg,stim_fb/posf.jpg,stim_fb/negf.jpg,stim_01/d.jpg,stim_01/c.jpg,1,2,f,5,46,346,28,f,1,0.649827089168,01,03,60.0184955965,PLT_learning_01,B,2014_Mrz_27_1324,P23,
stim_fb/ques.jpg,stim_fb/negf.jpg,stim_fb/posf.jpg,stim_01/f.jpg,stim_01/e.jpg,1,3,f,5,47,347,45,f,1,0.549918627985,01,03,60.0184955965,PLT_learning_01,B,2014_Mrz_27_1324,P23,
stim_fb/ques.jpg,stim_fb/negf.jpg,stim_fb/posf.jpg,stim_01/a.jpg,stim_01/b.jpg,2,1,j,5,48,348,11,j,1,0.499905907828,01,03,60.0184955965,PLT_learning_01,B,2014_Mrz_27_1324,P23,
stim_fb/ques.jpg,stim_fb/negf.jpg,stim_fb/posf.jpg,stim_01/d.jpg,stim_01/c.jpg,1,2,f,5,49,349,21,f,1,0.56652037759,01,03,60.0184955965,PLT_learning_01,B,2014_Mrz_27_1324,P23,
stim_fb/ques.jpg,stim_fb/negf.jpg,stim_fb/posf.jpg,stim_01/d.jpg,stim_01/c.jpg,1,2,f,5,50,350,25,f,1,0.59989496359,01,03,60.0184955965,PLT_learning_01,B,2014_Mrz_27_1324,P23,
stim_fb/ques.jpg,stim_fb/negf.jpg,stim_fb/posf.jpg,stim_01/f.jpg,stim_01/e.jpg,1,3,f,5,51,351,44,f,1,1.09969697184,01,03,60.0184955965,PLT_learning_01,B,2014_Mrz_27_1324,P23,
stim_fb/ques.jpg,stim_fb/negf.jpg,stim_fb/posf.jpg,stim_01/e.jpg,stim_01/f.jpg,2,3,j,5,52,352,50,j,1,0.866433434209,01,03,60.0184955965,PLT_learning_01,B,2014_Mrz_27_1324,P23,
stim_fb/ques.jpg,stim_fb/negf.jpg,stim_fb/posf.jpg,stim_01/a.jpg,stim_01/b.jpg,2,1,j,5,53,353,17,f,0,1.06636430115,01,03,60.0184955965,PLT_learning_01,B,2014_Mrz_27_1324,P23,
stim_fb/ques.jpg,stim_fb/negf.jpg,stim_fb/posf.jpg,stim_01/c.jpg,stim_01/d.jpg,2,2,j,5,54,354,36,j,1,0.616533251129,01,03,60.0184955965,PLT_learning_01,B,2014_Mrz_27_1324,P23,
stim_fb/ques.jpg,stim_fb/negf.jpg,stim_fb/posf.jpg,stim_01/f.jpg,stim_01/e.jpg,1,3,f,5,55,355,43,f,1,0.49988765841,01,03,60.0184955965,PLT_learning_01,B,2014_Mrz_27_1324,P23,
stim_fb/ques.jpg,stim_fb/negf.jpg,stim_fb/posf.jpg,stim_01/b.jpg,stim_01/a.jpg,1,1,f,5,56,356,0,f,1,0.516533055642,01,03,60.0184955965,PLT_learning_01,B,2014_Mrz_27_1324,P23,
stim_fb/ques.jpg,stim_fb/negf.jpg,stim_fb/posf.jpg,stim_01/c.jpg,stim_01/d.jpg,2,2,j,5,57,357,33,j,1,0.616496195908,01,03,60.0184955965,PLT_learning_01,B,2014_Mrz_27_1324,P23,
stim_fb/ques.jpg,stim_fb/negf.jpg,stim_fb/posf.jpg,stim_01/b.jpg,stim_01/a.jpg,1,1,f,5,58,358,7,f,1,0.716480926907,01,03,60.0184955965,PLT_learning_01,B,2014_Mrz_27_1324,P23,
stim_fb/ques.jpg,stim_fb/posf.jpg,stim_fb/negf.jpg,stim_01/d.jpg,stim_01/c.jpg,1,2,f,5,59,359,29,f,1,0.549858099345,01,03,60.0184955965,PLT_learning_01,B,2014_Mrz_27_1324,P23,
