Fb3,Fb2,Fb1,Symbol2,Symbol1,PosCond,Pair,Correct,trials.thisRepN,trials.thisTrialN,trials.thisN,trials.thisIndex,Response.keys,Response.corr,Response.rt,Version,Session Number,frameRate,expName,StimCondition,date,Participant,
stim_fb/ques.jpg,stim_fb/posf.jpg,stim_fb/negf.jpg,stim_02/a.jpg,stim_02/b.jpg,2,1,j,0,0,0,18,j,1,1.58289291775,02,02,60.026184119,PLT_learning_02,B,2014_Mrz_14_1515,P24,
stim_fb/ques.jpg,stim_fb/posf.jpg,stim_fb/negf.jpg,stim_02/d.jpg,stim_02/c.jpg,1,2,f,0,1,1,28,f,1,1.31629240873,02,02,60.026184119,PLT_learning_02,B,2014_Mrz_14_1515,P24,
stim_fb/ques.jpg,stim_fb/negf.jpg,stim_fb/posf.jpg,stim_02/d.jpg,stim_02/c.jpg,1,2,f,0,2,2,23,None,0,,02,02,60.026184119,PLT_learning_02,B,2014_Mrz_14_1515,P24,
stim_fb/ques.jpg,stim_fb/posf.jpg,stim_fb/negf.jpg,stim_02/f.jpg,stim_02/e.jpg,1,3,f,0,3,3,46,j,0,1.39959020613,02,02,60.026184119,PLT_learning_02,B,2014_Mrz_14_1515,P24,
stim_fb/ques.jpg,stim_fb/negf.jpg,stim_fb/posf.jpg,stim_02/b.jpg,stim_02/a.jpg,1,1,f,0,4,4,1,j,0,1.53288733736,02,02,60.026184119,PLT_learning_02,B,2014_Mrz_14_1515,P24,
stim_fb/ques.jpg,stim_fb/negf.jpg,stim_fb/posf.jpg,stim_02/a.jpg,stim_02/b.jpg,2,1,j,0,5,5,10,j,1,1.54951883701,02,02,60.026184119,PLT_learning_02,B,2014_Mrz_14_1515,P24,
stim_fb/ques.jpg,stim_fb/negf.jpg,stim_fb/posf.jpg,stim_02/b.jpg,stim_02/a.jpg,1,1,f,0,6,6,7,f,1,1.48308185396,02,02,60.026184119,PLT_learning_02,B,2014_Mrz_14_1515,P24,
stim_fb/ques.jpg,stim_fb/negf.jpg,stim_fb/posf.jpg,stim_02/a.jpg,stim_02/b.jpg,2,1,j,0,7,7,16,j,1,1.29960608264,02,02,60.026184119,PLT_learning_02,B,2014_Mrz_14_1515,P24,
stim_fb/ques.jpg,stim_fb/negf.jpg,stim_fb/posf.jpg,stim_02/b.jpg,stim_02/a.jpg,1,1,f,0,8,8,4,f,1,1.11634596903,02,02,60.026184119,PLT_learning_02,B,2014_Mrz_14_1515,P24,
stim_fb/ques.jpg,stim_fb/negf.jpg,stim_fb/posf.jpg,stim_02/c.jpg,stim_02/d.jpg,2,2,j,0,9,9,36,f,0,1.33291219422,02,02,60.026184119,PLT_learning_02,B,2014_Mrz_14_1515,P24,
stim_fb/ques.jpg,stim_fb/posf.jpg,stim_fb/negf.jpg,stim_02/b.jpg,stim_02/a.jpg,1,1,f,0,10,10,8,f,1,1.53287206535,02,02,60.026184119,PLT_learning_02,B,2014_Mrz_14_1515,P24,
stim_fb/ques.jpg,stim_fb/negf.jpg,stim_fb/posf.jpg,stim_02/f.jpg,stim_02/e.jpg,1,3,f,0,11,11,44,j,0,1.11633238723,02,02,60.026184119,PLT_learning_02,B,2014_Mrz_14_1515,P24,
stim_fb/ques.jpg,stim_fb/negf.jpg,stim_fb/posf.jpg,stim_02/e.jpg,stim_02/f.jpg,2,3,j,0,12,12,54,j,1,1.63284001158,02,02,60.026184119,PLT_learning_02,B,2014_Mrz_14_1515,P24,
stim_fb/ques.jpg,stim_fb/negf.jpg,stim_fb/posf.jpg,stim_02/f.jpg,stim_02/e.jpg,1,3,f,0,13,13,41,f,1,0.816454566302,02,02,60.026184119,PLT_learning_02,B,2014_Mrz_14_1515,P24,
stim_fb/ques.jpg,stim_fb/negf.jpg,stim_fb/posf.jpg,stim_02/b.jpg,stim_02/a.jpg,1,1,f,0,14,14,0,f,1,1.11634432394,02,02,60.026184119,PLT_learning_02,B,2014_Mrz_14_1515,P24,
stim_fb/ques.jpg,stim_fb/negf.jpg,stim_fb/posf.jpg,stim_02/a.jpg,stim_02/b.jpg,2,1,j,0,15,15,14,j,1,1.08290409958,02,02,60.026184119,PLT_learning_02,B,2014_Mrz_14_1515,P24,
stim_fb/ques.jpg,stim_fb/posf.jpg,stim_fb/negf.jpg,stim_02/d.jpg,stim_02/c.jpg,1,2,f,0,16,16,27,f,1,1.36627084356,02,02,60.026184119,PLT_learning_02,B,2014_Mrz_14_1515,P24,
stim_fb/ques.jpg,stim_fb/posf.jpg,stim_fb/negf.jpg,stim_02/a.jpg,stim_02/b.jpg,2,1,j,0,17,17,19,j,1,0.899739867596,02,02,60.026184119,PLT_learning_02,B,2014_Mrz_14_1515,P24,
stim_fb/ques.jpg,stim_fb/negf.jpg,stim_fb/posf.jpg,stim_02/c.jpg,stim_02/d.jpg,2,2,j,0,18,18,31,f,0,1.68282687338,02,02,60.026184119,PLT_learning_02,B,2014_Mrz_14_1515,P24,
stim_fb/ques.jpg,stim_fb/negf.jpg,stim_fb/posf.jpg,stim_02/e.jpg,stim_02/f.jpg,2,3,j,0,19,19,52,j,1,1.14967274204,02,02,60.026184119,PLT_learning_02,B,2014_Mrz_14_1515,P24,
stim_fb/ques.jpg,stim_fb/negf.jpg,stim_fb/posf.jpg,stim_02/a.jpg,stim_02/b.jpg,2,1,j,0,20,20,12,j,1,0.983071890167,02,02,60.026184119,PLT_learning_02,B,2014_Mrz_14_1515,P24,
stim_fb/ques.jpg,stim_fb/negf.jpg,stim_fb/posf.jpg,stim_02/a.jpg,stim_02/b.jpg,2,1,j,0,21,21,17,j,1,0.89977620102,02,02,60.026184119,PLT_learning_02,B,2014_Mrz_14_1515,P24,
stim_fb/ques.jpg,stim_fb/posf.jpg,stim_fb/negf.jpg,stim_02/e.jpg,stim_02/f.jpg,2,3,j,0,22,22,56,j,1,1.09969594629,02,02,60.026184119,PLT_learning_02,B,2014_Mrz_14_1515,P24,
stim_fb/ques.jpg,stim_fb/negf.jpg,stim_fb/posf.jpg,stim_02/e.jpg,stim_02/f.jpg,2,3,j,0,23,23,55,j,1,0.783105137913,02,02,60.026184119,PLT_learning_02,B,2014_Mrz_14_1515,P24,
stim_fb/ques.jpg,stim_fb/posf.jpg,stim_fb/negf.jpg,stim_02/c.jpg,stim_02/d.jpg,2,2,j,0,24,24,38,f,0,1.24968388778,02,02,60.026184119,PLT_learning_02,B,2014_Mrz_14_1515,P24,
stim_fb/ques.jpg,stim_fb/negf.jpg,stim_fb/posf.jpg,stim_02/a.jpg,stim_02/b.jpg,2,1,j,0,25,25,13,j,1,1.03305960309,02,02,60.026184119,PLT_learning_02,B,2014_Mrz_14_1515,P24,
stim_fb/ques.jpg,stim_fb/negf.jpg,stim_fb/posf.jpg,stim_02/e.jpg,stim_02/f.jpg,2,3,j,0,26,26,53,j,1,0.966437434164,02,02,60.026184119,PLT_learning_02,B,2014_Mrz_14_1515,P24,
stim_fb/ques.jpg,stim_fb/negf.jpg,stim_fb/posf.jpg,stim_02/a.jpg,stim_02/b.jpg,2,1,j,0,27,27,11,j,1,0.949722648241,02,02,60.026184119,PLT_learning_02,B,2014_Mrz_14_1515,P24,
stim_fb/ques.jpg,stim_fb/posf.jpg,stim_fb/negf.jpg,stim_02/d.jpg,stim_02/c.jpg,1,2,f,0,28,28,29,j,0,1.182977801,02,02,60.026184119,PLT_learning_02,B,2014_Mrz_14_1515,P24,
stim_fb/ques.jpg,stim_fb/negf.jpg,stim_fb/posf.jpg,stim_02/f.jpg,stim_02/e.jpg,1,3,f,0,29,29,45,f,1,0.833099659778,02,02,60.026184119,PLT_learning_02,B,2014_Mrz_14_1515,P24,
stim_fb/ques.jpg,stim_fb/negf.jpg,stim_fb/posf.jpg,stim_02/f.jpg,stim_02/e.jpg,1,3,f,0,30,30,40,f,1,0.616500274057,02,02,60.026184119,PLT_learning_02,B,2014_Mrz_14_1515,P24,
stim_fb/ques.jpg,stim_fb/negf.jpg,stim_fb/posf.jpg,stim_02/e.jpg,stim_02/f.jpg,2,3,j,0,31,31,51,j,1,0.649848436296,02,02,60.026184119,PLT_learning_02,B,2014_Mrz_14_1515,P24,
stim_fb/ques.jpg,stim_fb/posf.jpg,stim_fb/negf.jpg,stim_02/c.jpg,stim_02/d.jpg,2,2,j,0,32,32,37,f,0,0.899666484965,02,02,60.026184119,PLT_learning_02,B,2014_Mrz_14_1515,P24,
stim_fb/ques.jpg,stim_fb/negf.jpg,stim_fb/posf.jpg,stim_02/d.jpg,stim_02/c.jpg,1,2,f,0,33,33,20,j,0,0.7997687996,02,02,60.026184119,PLT_learning_02,B,2014_Mrz_14_1515,P24,
stim_fb/ques.jpg,stim_fb/negf.jpg,stim_fb/posf.jpg,stim_02/f.jpg,stim_02/e.jpg,1,3,f,0,34,34,43,f,1,0.83307086311,02,02,60.026184119,PLT_learning_02,B,2014_Mrz_14_1515,P24,
stim_fb/ques.jpg,stim_fb/negf.jpg,stim_fb/posf.jpg,stim_02/d.jpg,stim_02/c.jpg,1,2,f,0,35,35,25,j,0,0.766456032451,02,02,60.026184119,PLT_learning_02,B,2014_Mrz_14_1515,P24,
stim_fb/ques.jpg,stim_fb/posf.jpg,stim_fb/negf.jpg,stim_02/e.jpg,stim_02/f.jpg,2,3,j,0,36,36,59,j,1,0.733199258655,02,02,60.026184119,PLT_learning_02,B,2014_Mrz_14_1515,P24,
stim_fb/ques.jpg,stim_fb/posf.jpg,stim_fb/negf.jpg,stim_02/f.jpg,stim_02/e.jpg,1,3,f,0,37,37,49,f,1,0.583188153517,02,02,60.026184119,PLT_learning_02,B,2014_Mrz_14_1515,P24,
stim_fb/ques.jpg,stim_fb/negf.jpg,stim_fb/posf.jpg,stim_02/b.jpg,stim_02/a.jpg,1,1,f,0,38,38,2,f,1,1.04968422762,02,02,60.026184119,PLT_learning_02,B,2014_Mrz_14_1515,P24,
stim_fb/ques.jpg,stim_fb/negf.jpg,stim_fb/posf.jpg,stim_02/d.jpg,stim_02/c.jpg,1,2,f,0,39,39,26,j,0,0.86641101341,02,02,60.026184119,PLT_learning_02,B,2014_Mrz_14_1515,P24,
stim_fb/ques.jpg,stim_fb/posf.jpg,stim_fb/negf.jpg,stim_02/c.jpg,stim_02/d.jpg,2,2,j,0,40,40,39,f,0,0.766464447393,02,02,60.026184119,PLT_learning_02,B,2014_Mrz_14_1515,P24,
stim_fb/ques.jpg,stim_fb/negf.jpg,stim_fb/posf.jpg,stim_02/e.jpg,stim_02/f.jpg,2,3,j,0,41,41,50,j,1,0.84969914174,02,02,60.026184119,PLT_learning_02,B,2014_Mrz_14_1515,P24,
stim_fb/ques.jpg,stim_fb/posf.jpg,stim_fb/negf.jpg,stim_02/e.jpg,stim_02/f.jpg,2,3,j,0,42,42,58,j,1,0.549854102397,02,02,60.026184119,PLT_learning_02,B,2014_Mrz_14_1515,P24,
stim_fb/ques.jpg,stim_fb/negf.jpg,stim_fb/posf.jpg,stim_02/c.jpg,stim_02/d.jpg,2,2,j,0,43,43,35,f,0,1.33288989673,02,02,60.026184119,PLT_learning_02,B,2014_Mrz_14_1515,P24,
stim_fb/ques.jpg,stim_fb/negf.jpg,stim_fb/posf.jpg,stim_02/d.jpg,stim_02/c.jpg,1,2,f,0,44,44,24,j,0,0.616482223133,02,02,60.026184119,PLT_learning_02,B,2014_Mrz_14_1515,P24,
stim_fb/ques.jpg,stim_fb/posf.jpg,stim_fb/negf.jpg,stim_02/f.jpg,stim_02/e.jpg,1,3,f,0,45,45,48,f,1,0.583197341383,02,02,60.026184119,PLT_learning_02,B,2014_Mrz_14_1515,P24,
stim_fb/ques.jpg,stim_fb/negf.jpg,stim_fb/posf.jpg,stim_02/f.jpg,stim_02/e.jpg,1,3,f,0,46,46,42,f,1,0.583185693395,02,02,60.026184119,PLT_learning_02,B,2014_Mrz_14_1515,P24,
stim_fb/ques.jpg,stim_fb/negf.jpg,stim_fb/posf.jpg,stim_02/b.jpg,stim_02/a.jpg,1,1,f,0,47,47,6,f,1,0.649857994084,02,02,60.026184119,PLT_learning_02,B,2014_Mrz_14_1515,P24,
stim_fb/ques.jpg,stim_fb/negf.jpg,stim_fb/posf.jpg,stim_02/c.jpg,stim_02/d.jpg,2,2,j,0,48,48,33,f,0,0.816438734902,02,02,60.026184119,PLT_learning_02,B,2014_Mrz_14_1515,P24,
stim_fb/ques.jpg,stim_fb/posf.jpg,stim_fb/negf.jpg,stim_02/f.jpg,stim_02/e.jpg,1,3,f,0,49,49,47,f,1,0.699782525761,02,02,60.026184119,PLT_learning_02,B,2014_Mrz_14_1515,P24,
stim_fb/ques.jpg,stim_fb/negf.jpg,stim_fb/posf.jpg,stim_02/d.jpg,stim_02/c.jpg,1,2,f,0,50,50,21,f,1,0.64982144412,02,02,60.026184119,PLT_learning_02,B,2014_Mrz_14_1515,P24,
stim_fb/ques.jpg,stim_fb/negf.jpg,stim_fb/posf.jpg,stim_02/c.jpg,stim_02/d.jpg,2,2,j,0,51,51,30,j,1,0.533199842107,02,02,60.026184119,PLT_learning_02,B,2014_Mrz_14_1515,P24,
stim_fb/ques.jpg,stim_fb/posf.jpg,stim_fb/negf.jpg,stim_02/e.jpg,stim_02/f.jpg,2,3,j,0,52,52,57,j,1,0.733140811194,02,02,60.026184119,PLT_learning_02,B,2014_Mrz_14_1515,P24,
stim_fb/ques.jpg,stim_fb/negf.jpg,stim_fb/posf.jpg,stim_02/b.jpg,stim_02/a.jpg,1,1,f,0,53,53,5,f,1,0.699821932835,02,02,60.026184119,PLT_learning_02,B,2014_Mrz_14_1515,P24,
stim_fb/ques.jpg,stim_fb/posf.jpg,stim_fb/negf.jpg,stim_02/b.jpg,stim_02/a.jpg,1,1,f,0,54,54,9,f,1,0.816417282513,02,02,60.026184119,PLT_learning_02,B,2014_Mrz_14_1515,P24,
stim_fb/ques.jpg,stim_fb/negf.jpg,stim_fb/posf.jpg,stim_02/d.jpg,stim_02/c.jpg,1,2,f,0,55,55,22,f,1,0.599856139968,02,02,60.026184119,PLT_learning_02,B,2014_Mrz_14_1515,P24,
stim_fb/ques.jpg,stim_fb/negf.jpg,stim_fb/posf.jpg,stim_02/a.jpg,stim_02/b.jpg,2,1,j,0,56,56,15,j,1,0.932965276331,02,02,60.026184119,PLT_learning_02,B,2014_Mrz_14_1515,P24,
stim_fb/ques.jpg,stim_fb/negf.jpg,stim_fb/posf.jpg,stim_02/b.jpg,stim_02/a.jpg,1,1,f,0,57,57,3,f,1,0.816448394943,02,02,60.026184119,PLT_learning_02,B,2014_Mrz_14_1515,P24,
stim_fb/ques.jpg,stim_fb/negf.jpg,stim_fb/posf.jpg,stim_02/c.jpg,stim_02/d.jpg,2,2,j,0,58,58,32,j,1,0.899741085627,02,02,60.026184119,PLT_learning_02,B,2014_Mrz_14_1515,P24,
stim_fb/ques.jpg,stim_fb/negf.jpg,stim_fb/posf.jpg,stim_02/c.jpg,stim_02/d.jpg,2,2,j,0,59,59,34,j,1,0.749807441269,02,02,60.026184119,PLT_learning_02,B,2014_Mrz_14_1515,P24,
stim_fb/ques.jpg,stim_fb/negf.jpg,stim_fb/posf.jpg,stim_02/e.jpg,stim_02/f.jpg,2,3,j,1,0,60,52,j,1,0.816531660169,02,02,60.026184119,PLT_learning_02,B,2014_Mrz_14_1515,P24,
stim_fb/ques.jpg,stim_fb/negf.jpg,stim_fb/posf.jpg,stim_02/b.jpg,stim_02/a.jpg,1,1,f,1,1,61,3,f,1,0.666510419807,02,02,60.026184119,PLT_learning_02,B,2014_Mrz_14_1515,P24,
stim_fb/ques.jpg,stim_fb/negf.jpg,stim_fb/posf.jpg,stim_02/d.jpg,stim_02/c.jpg,1,2,f,1,2,62,24,f,1,0.649832358281,02,02,60.026184119,PLT_learning_02,B,2014_Mrz_14_1515,P24,
stim_fb/ques.jpg,stim_fb/posf.jpg,stim_fb/negf.jpg,stim_02/e.jpg,stim_02/f.jpg,2,3,j,1,3,63,59,j,1,0.683162791397,02,02,60.026184119,PLT_learning_02,B,2014_Mrz_14_1515,P24,
stim_fb/ques.jpg,stim_fb/negf.jpg,stim_fb/posf.jpg,stim_02/d.jpg,stim_02/c.jpg,1,2,f,1,4,64,23,f,1,0.96637505592,02,02,60.026184119,PLT_learning_02,B,2014_Mrz_14_1515,P24,
stim_fb/ques.jpg,stim_fb/negf.jpg,stim_fb/posf.jpg,stim_02/a.jpg,stim_02/b.jpg,2,1,j,1,5,65,13,j,1,1.04972093097,02,02,60.026184119,PLT_learning_02,B,2014_Mrz_14_1515,P24,
stim_fb/ques.jpg,stim_fb/posf.jpg,stim_fb/negf.jpg,stim_02/e.jpg,stim_02/f.jpg,2,3,j,1,6,66,56,j,1,0.733130691006,02,02,60.026184119,PLT_learning_02,B,2014_Mrz_14_1515,P24,
stim_fb/ques.jpg,stim_fb/negf.jpg,stim_fb/posf.jpg,stim_02/c.jpg,stim_02/d.jpg,2,2,j,1,7,67,33,j,1,0.766455812904,02,02,60.026184119,PLT_learning_02,B,2014_Mrz_14_1515,P24,
stim_fb/ques.jpg,stim_fb/negf.jpg,stim_fb/posf.jpg,stim_02/d.jpg,stim_02/c.jpg,1,2,f,1,8,68,20,f,1,0.666535998465,02,02,60.026184119,PLT_learning_02,B,2014_Mrz_14_1515,P24,
stim_fb/ques.jpg,stim_fb/negf.jpg,stim_fb/posf.jpg,stim_02/a.jpg,stim_02/b.jpg,2,1,j,1,9,69,16,j,1,0.883023280188,02,02,60.026184119,PLT_learning_02,B,2014_Mrz_14_1515,P24,
stim_fb/ques.jpg,stim_fb/negf.jpg,stim_fb/posf.jpg,stim_02/a.jpg,stim_02/b.jpg,2,1,j,1,10,70,12,j,1,0.949702558241,02,02,60.026184119,PLT_learning_02,B,2014_Mrz_14_1515,P24,
stim_fb/ques.jpg,stim_fb/negf.jpg,stim_fb/posf.jpg,stim_02/a.jpg,stim_02/b.jpg,2,1,j,1,11,71,15,j,1,0.733130961681,02,02,60.026184119,PLT_learning_02,B,2014_Mrz_14_1515,P24,
stim_fb/ques.jpg,stim_fb/posf.jpg,stim_fb/negf.jpg,stim_02/f.jpg,stim_02/e.jpg,1,3,f,1,12,72,48,f,1,0.899732027082,02,02,60.026184119,PLT_learning_02,B,2014_Mrz_14_1515,P24,
stim_fb/ques.jpg,stim_fb/posf.jpg,stim_fb/negf.jpg,stim_02/c.jpg,stim_02/d.jpg,2,2,j,1,13,73,37,j,1,0.799805280391,02,02,60.026184119,PLT_learning_02,B,2014_Mrz_14_1515,P24,
stim_fb/ques.jpg,stim_fb/negf.jpg,stim_fb/posf.jpg,stim_02/c.jpg,stim_02/d.jpg,2,2,j,1,14,74,32,j,1,0.899849412224,02,02,60.026184119,PLT_learning_02,B,2014_Mrz_14_1515,P24,
stim_fb/ques.jpg,stim_fb/negf.jpg,stim_fb/posf.jpg,stim_02/f.jpg,stim_02/e.jpg,1,3,f,1,15,75,45,j,0,0.983086518573,02,02,60.026184119,PLT_learning_02,B,2014_Mrz_14_1515,P24,
stim_fb/ques.jpg,stim_fb/posf.jpg,stim_fb/negf.jpg,stim_02/f.jpg,stim_02/e.jpg,1,3,f,1,16,76,46,f,1,0.783136136059,02,02,60.026184119,PLT_learning_02,B,2014_Mrz_14_1515,P24,
stim_fb/ques.jpg,stim_fb/posf.jpg,stim_fb/negf.jpg,stim_02/f.jpg,stim_02/e.jpg,1,3,f,1,17,77,47,j,0,0.633161878625,02,02,60.026184119,PLT_learning_02,B,2014_Mrz_14_1515,P24,
stim_fb/ques.jpg,stim_fb/negf.jpg,stim_fb/posf.jpg,stim_02/a.jpg,stim_02/b.jpg,2,1,j,1,18,78,11,j,1,0.766397383489,02,02,60.026184119,PLT_learning_02,B,2014_Mrz_14_1515,P24,
stim_fb/ques.jpg,stim_fb/negf.jpg,stim_fb/posf.jpg,stim_02/f.jpg,stim_02/e.jpg,1,3,f,1,19,79,41,f,1,1.49957389052,02,02,60.026184119,PLT_learning_02,B,2014_Mrz_14_1515,P24,
stim_fb/ques.jpg,stim_fb/negf.jpg,stim_fb/posf.jpg,stim_02/d.jpg,stim_02/c.jpg,1,2,f,1,20,80,26,f,1,0.883094981636,02,02,60.026184119,PLT_learning_02,B,2014_Mrz_14_1515,P24,
stim_fb/ques.jpg,stim_fb/negf.jpg,stim_fb/posf.jpg,stim_02/f.jpg,stim_02/e.jpg,1,3,f,1,21,81,44,j,0,1.01637593561,02,02,60.026184119,PLT_learning_02,B,2014_Mrz_14_1515,P24,
stim_fb/ques.jpg,stim_fb/posf.jpg,stim_fb/negf.jpg,stim_02/d.jpg,stim_02/c.jpg,1,2,f,1,22,82,29,f,1,0.783129787258,02,02,60.026184119,PLT_learning_02,B,2014_Mrz_14_1515,P24,
stim_fb/ques.jpg,stim_fb/posf.jpg,stim_fb/negf.jpg,stim_02/a.jpg,stim_02/b.jpg,2,1,j,1,23,83,19,j,1,0.899769560494,02,02,60.026184119,PLT_learning_02,B,2014_Mrz_14_1515,P24,
stim_fb/ques.jpg,stim_fb/negf.jpg,stim_fb/posf.jpg,stim_02/d.jpg,stim_02/c.jpg,1,2,f,1,24,84,21,f,1,0.616533852625,02,02,60.026184119,PLT_learning_02,B,2014_Mrz_14_1515,P24,
stim_fb/ques.jpg,stim_fb/posf.jpg,stim_fb/negf.jpg,stim_02/e.jpg,stim_02/f.jpg,2,3,j,1,25,85,57,j,1,1.11631021605,02,02,60.026184119,PLT_learning_02,B,2014_Mrz_14_1515,P24,
stim_fb/ques.jpg,stim_fb/posf.jpg,stim_fb/negf.jpg,stim_02/a.jpg,stim_02/b.jpg,2,1,j,1,26,86,18,j,1,1.03304593106,02,02,60.026184119,PLT_learning_02,B,2014_Mrz_14_1515,P24,
stim_fb/ques.jpg,stim_fb/negf.jpg,stim_fb/posf.jpg,stim_02/e.jpg,stim_02/f.jpg,2,3,j,1,27,87,54,j,1,1.23293336391,02,02,60.026184119,PLT_learning_02,B,2014_Mrz_14_1515,P24,
stim_fb/ques.jpg,stim_fb/posf.jpg,stim_fb/negf.jpg,stim_02/d.jpg,stim_02/c.jpg,1,2,f,1,28,88,27,f,1,0.783124860998,02,02,60.026184119,PLT_learning_02,B,2014_Mrz_14_1515,P24,
stim_fb/ques.jpg,stim_fb/posf.jpg,stim_fb/negf.jpg,stim_02/d.jpg,stim_02/c.jpg,1,2,f,1,29,89,28,f,1,0.566540822472,02,02,60.026184119,PLT_learning_02,B,2014_Mrz_14_1515,P24,
stim_fb/ques.jpg,stim_fb/negf.jpg,stim_fb/posf.jpg,stim_02/a.jpg,stim_02/b.jpg,2,1,j,1,30,90,10,j,1,0.749791778288,02,02,60.026184119,PLT_learning_02,B,2014_Mrz_14_1515,P24,
stim_fb/ques.jpg,stim_fb/negf.jpg,stim_fb/posf.jpg,stim_02/c.jpg,stim_02/d.jpg,2,2,j,1,31,91,34,j,1,0.716472259335,02,02,60.026184119,PLT_learning_02,B,2014_Mrz_14_1515,P24,
stim_fb/ques.jpg,stim_fb/negf.jpg,stim_fb/posf.jpg,stim_02/d.jpg,stim_02/c.jpg,1,2,f,1,32,92,22,f,1,0.533268668399,02,02,60.026184119,PLT_learning_02,B,2014_Mrz_14_1515,P24,
stim_fb/ques.jpg,stim_fb/negf.jpg,stim_fb/posf.jpg,stim_02/c.jpg,stim_02/d.jpg,2,2,j,1,33,93,36,j,1,0.583237515367,02,02,60.026184119,PLT_learning_02,B,2014_Mrz_14_1515,P24,
stim_fb/ques.jpg,stim_fb/negf.jpg,stim_fb/posf.jpg,stim_02/e.jpg,stim_02/f.jpg,2,3,j,1,34,94,51,f,0,1.19969329669,02,02,60.026184119,PLT_learning_02,B,2014_Mrz_14_1515,P24,
stim_fb/ques.jpg,stim_fb/posf.jpg,stim_fb/negf.jpg,stim_02/c.jpg,stim_02/d.jpg,2,2,j,1,35,95,38,j,1,0.749813405112,02,02,60.026184119,PLT_learning_02,B,2014_Mrz_14_1515,P24,
stim_fb/ques.jpg,stim_fb/negf.jpg,stim_fb/posf.jpg,stim_02/a.jpg,stim_02/b.jpg,2,1,j,1,36,96,14,j,1,0.733134802239,02,02,60.026184119,PLT_learning_02,B,2014_Mrz_14_1515,P24,
stim_fb/ques.jpg,stim_fb/negf.jpg,stim_fb/posf.jpg,stim_02/f.jpg,stim_02/e.jpg,1,3,f,1,37,97,40,f,1,1.16635450578,02,02,60.026184119,PLT_learning_02,B,2014_Mrz_14_1515,P24,
stim_fb/ques.jpg,stim_fb/negf.jpg,stim_fb/posf.jpg,stim_02/f.jpg,stim_02/e.jpg,1,3,f,1,38,98,42,f,1,0.666502155239,02,02,60.026184119,PLT_learning_02,B,2014_Mrz_14_1515,P24,
stim_fb/ques.jpg,stim_fb/negf.jpg,stim_fb/posf.jpg,stim_02/e.jpg,stim_02/f.jpg,2,3,j,1,39,99,50,j,1,0.599840434883,02,02,60.026184119,PLT_learning_02,B,2014_Mrz_14_1515,P24,
stim_fb/ques.jpg,stim_fb/negf.jpg,stim_fb/posf.jpg,stim_02/c.jpg,stim_02/d.jpg,2,2,j,1,40,100,30,j,1,0.69978072127,02,02,60.026184119,PLT_learning_02,B,2014_Mrz_14_1515,P24,
stim_fb/ques.jpg,stim_fb/negf.jpg,stim_fb/posf.jpg,stim_02/b.jpg,stim_02/a.jpg,1,1,f,1,41,101,2,f,1,0.849761489909,02,02,60.026184119,PLT_learning_02,B,2014_Mrz_14_1515,P24,
stim_fb/ques.jpg,stim_fb/negf.jpg,stim_fb/posf.jpg,stim_02/b.jpg,stim_02/a.jpg,1,1,f,1,42,102,6,f,1,0.583232315425,02,02,60.026184119,PLT_learning_02,B,2014_Mrz_14_1515,P24,
stim_fb/ques.jpg,stim_fb/negf.jpg,stim_fb/posf.jpg,stim_02/b.jpg,stim_02/a.jpg,1,1,f,1,43,103,4,f,1,0.749800755631,02,02,60.026184119,PLT_learning_02,B,2014_Mrz_14_1515,P24,
stim_fb/ques.jpg,stim_fb/negf.jpg,stim_fb/posf.jpg,stim_02/e.jpg,stim_02/f.jpg,2,3,j,1,44,104,55,None,0,,02,02,60.026184119,PLT_learning_02,B,2014_Mrz_14_1515,P24,
stim_fb/ques.jpg,stim_fb/negf.jpg,stim_fb/posf.jpg,stim_02/b.jpg,stim_02/a.jpg,1,1,f,1,45,105,1,f,1,0.716478283328,02,02,60.026184119,PLT_learning_02,B,2014_Mrz_14_1515,P24,
stim_fb/ques.jpg,stim_fb/negf.jpg,stim_fb/posf.jpg,stim_02/e.jpg,stim_02/f.jpg,2,3,j,1,46,106,53,j,1,0.649800776683,02,02,60.026184119,PLT_learning_02,B,2014_Mrz_14_1515,P24,
stim_fb/ques.jpg,stim_fb/negf.jpg,stim_fb/posf.jpg,stim_02/b.jpg,stim_02/a.jpg,1,1,f,1,47,107,7,f,1,0.566527481269,02,02,60.026184119,PLT_learning_02,B,2014_Mrz_14_1515,P24,
stim_fb/ques.jpg,stim_fb/posf.jpg,stim_fb/negf.jpg,stim_02/e.jpg,stim_02/f.jpg,2,3,j,1,48,108,58,j,1,0.683155194491,02,02,60.026184119,PLT_learning_02,B,2014_Mrz_14_1515,P24,
stim_fb/ques.jpg,stim_fb/negf.jpg,stim_fb/posf.jpg,stim_02/a.jpg,stim_02/b.jpg,2,1,j,1,49,109,17,j,1,0.783160027519,02,02,60.026184119,PLT_learning_02,B,2014_Mrz_14_1515,P24,
stim_fb/ques.jpg,stim_fb/posf.jpg,stim_fb/negf.jpg,stim_02/f.jpg,stim_02/e.jpg,1,3,f,1,50,110,49,f,1,0.89970102292,02,02,60.026184119,PLT_learning_02,B,2014_Mrz_14_1515,P24,
stim_fb/ques.jpg,stim_fb/negf.jpg,stim_fb/posf.jpg,stim_02/c.jpg,stim_02/d.jpg,2,2,j,1,51,111,31,j,1,0.999711113032,02,02,60.026184119,PLT_learning_02,B,2014_Mrz_14_1515,P24,
stim_fb/ques.jpg,stim_fb/posf.jpg,stim_fb/negf.jpg,stim_02/c.jpg,stim_02/d.jpg,2,2,j,1,52,112,39,j,1,0.616519251287,02,02,60.026184119,PLT_learning_02,B,2014_Mrz_14_1515,P24,
stim_fb/ques.jpg,stim_fb/negf.jpg,stim_fb/posf.jpg,stim_02/c.jpg,stim_02/d.jpg,2,2,j,1,53,113,35,j,1,0.816395403059,02,02,60.026184119,PLT_learning_02,B,2014_Mrz_14_1515,P24,
stim_fb/ques.jpg,stim_fb/negf.jpg,stim_fb/posf.jpg,stim_02/b.jpg,stim_02/a.jpg,1,1,f,1,54,114,0,f,1,0.533223926046,02,02,60.026184119,PLT_learning_02,B,2014_Mrz_14_1515,P24,
stim_fb/ques.jpg,stim_fb/negf.jpg,stim_fb/posf.jpg,stim_02/f.jpg,stim_02/e.jpg,1,3,f,1,55,115,43,f,1,1.01636537031,02,02,60.026184119,PLT_learning_02,B,2014_Mrz_14_1515,P24,
stim_fb/ques.jpg,stim_fb/negf.jpg,stim_fb/posf.jpg,stim_02/d.jpg,stim_02/c.jpg,1,2,f,1,56,116,25,f,1,0.74979496923,02,02,60.026184119,PLT_learning_02,B,2014_Mrz_14_1515,P24,
stim_fb/ques.jpg,stim_fb/negf.jpg,stim_fb/posf.jpg,stim_02/b.jpg,stim_02/a.jpg,1,1,f,1,57,117,5,f,1,0.666480215637,02,02,60.026184119,PLT_learning_02,B,2014_Mrz_14_1515,P24,
stim_fb/ques.jpg,stim_fb/posf.jpg,stim_fb/negf.jpg,stim_02/b.jpg,stim_02/a.jpg,1,1,f,1,58,118,9,f,1,0.533185481367,02,02,60.026184119,PLT_learning_02,B,2014_Mrz_14_1515,P24,
stim_fb/ques.jpg,stim_fb/posf.jpg,stim_fb/negf.jpg,stim_02/b.jpg,stim_02/a.jpg,1,1,f,1,59,119,8,f,1,0.566494074128,02,02,60.026184119,PLT_learning_02,B,2014_Mrz_14_1515,P24,
stim_fb/ques.jpg,stim_fb/negf.jpg,stim_fb/posf.jpg,stim_02/f.jpg,stim_02/e.jpg,1,3,f,2,0,120,44,f,1,0.816496204929,02,02,60.026184119,PLT_learning_02,B,2014_Mrz_14_1515,P24,
stim_fb/ques.jpg,stim_fb/posf.jpg,stim_fb/negf.jpg,stim_02/e.jpg,stim_02/f.jpg,2,3,j,2,1,121,56,j,1,0.666444751376,02,02,60.026184119,PLT_learning_02,B,2014_Mrz_14_1515,P24,
stim_fb/ques.jpg,stim_fb/posf.jpg,stim_fb/negf.jpg,stim_02/c.jpg,stim_02/d.jpg,2,2,j,2,2,122,37,j,1,0.633166086096,02,02,60.026184119,PLT_learning_02,B,2014_Mrz_14_1515,P24,
stim_fb/ques.jpg,stim_fb/negf.jpg,stim_fb/posf.jpg,stim_02/a.jpg,stim_02/b.jpg,2,1,j,2,3,123,14,j,1,0.716525789559,02,02,60.026184119,PLT_learning_02,B,2014_Mrz_14_1515,P24,
stim_fb/ques.jpg,stim_fb/negf.jpg,stim_fb/posf.jpg,stim_02/a.jpg,stim_02/b.jpg,2,1,j,2,4,124,10,j,1,0.683148496822,02,02,60.026184119,PLT_learning_02,B,2014_Mrz_14_1515,P24,
stim_fb/ques.jpg,stim_fb/negf.jpg,stim_fb/posf.jpg,stim_02/f.jpg,stim_02/e.jpg,1,3,f,2,5,125,40,f,1,0.699814922387,02,02,60.026184119,PLT_learning_02,B,2014_Mrz_14_1515,P24,
stim_fb/ques.jpg,stim_fb/negf.jpg,stim_fb/posf.jpg,stim_02/a.jpg,stim_02/b.jpg,2,1,j,2,6,126,16,j,1,0.783081183294,02,02,60.026184119,PLT_learning_02,B,2014_Mrz_14_1515,P24,
stim_fb/ques.jpg,stim_fb/negf.jpg,stim_fb/posf.jpg,stim_02/b.jpg,stim_02/a.jpg,1,1,f,2,7,127,0,f,1,0.899750992281,02,02,60.026184119,PLT_learning_02,B,2014_Mrz_14_1515,P24,
stim_fb/ques.jpg,stim_fb/negf.jpg,stim_fb/posf.jpg,stim_02/a.jpg,stim_02/b.jpg,2,1,j,2,8,128,17,j,1,0.599882485536,02,02,60.026184119,PLT_learning_02,B,2014_Mrz_14_1515,P24,
stim_fb/ques.jpg,stim_fb/negf.jpg,stim_fb/posf.jpg,stim_02/a.jpg,stim_02/b.jpg,2,1,j,2,9,129,12,j,1,0.733115214491,02,02,60.026184119,PLT_learning_02,B,2014_Mrz_14_1515,P24,
stim_fb/ques.jpg,stim_fb/negf.jpg,stim_fb/posf.jpg,stim_02/b.jpg,stim_02/a.jpg,1,1,f,2,10,130,6,f,1,0.466719292639,02,02,60.026184119,PLT_learning_02,B,2014_Mrz_14_1515,P24,
stim_fb/ques.jpg,stim_fb/negf.jpg,stim_fb/posf.jpg,stim_02/e.jpg,stim_02/f.jpg,2,3,j,2,11,131,51,j,1,0.899700662023,02,02,60.026184119,PLT_learning_02,B,2014_Mrz_14_1515,P24,
stim_fb/ques.jpg,stim_fb/posf.jpg,stim_fb/negf.jpg,stim_02/f.jpg,stim_02/e.jpg,1,3,f,2,12,132,47,f,1,0.666497716191,02,02,60.026184119,PLT_learning_02,B,2014_Mrz_14_1515,P24,
stim_fb/ques.jpg,stim_fb/negf.jpg,stim_fb/posf.jpg,stim_02/d.jpg,stim_02/c.jpg,1,2,f,2,13,133,24,f,1,0.833134221795,02,02,60.026184119,PLT_learning_02,B,2014_Mrz_14_1515,P24,
stim_fb/ques.jpg,stim_fb/negf.jpg,stim_fb/posf.jpg,stim_02/f.jpg,stim_02/e.jpg,1,3,f,2,14,134,41,f,1,0.783095315468,02,02,60.026184119,PLT_learning_02,B,2014_Mrz_14_1515,P24,
stim_fb/ques.jpg,stim_fb/posf.jpg,stim_fb/negf.jpg,stim_02/c.jpg,stim_02/d.jpg,2,2,j,2,15,135,38,j,1,0.933046261885,02,02,60.026184119,PLT_learning_02,B,2014_Mrz_14_1515,P24,
stim_fb/ques.jpg,stim_fb/posf.jpg,stim_fb/negf.jpg,stim_02/c.jpg,stim_02/d.jpg,2,2,j,2,16,136,39,j,1,0.783132999251,02,02,60.026184119,PLT_learning_02,B,2014_Mrz_14_1515,P24,
stim_fb/ques.jpg,stim_fb/negf.jpg,stim_fb/posf.jpg,stim_02/d.jpg,stim_02/c.jpg,1,2,f,2,17,137,25,f,1,0.549809997632,02,02,60.026184119,PLT_learning_02,B,2014_Mrz_14_1515,P24,
stim_fb/ques.jpg,stim_fb/posf.jpg,stim_fb/negf.jpg,stim_02/b.jpg,stim_02/a.jpg,1,1,f,2,18,138,9,f,1,0.649822896736,02,02,60.026184119,PLT_learning_02,B,2014_Mrz_14_1515,P24,
stim_fb/ques.jpg,stim_fb/negf.jpg,stim_fb/posf.jpg,stim_02/d.jpg,stim_02/c.jpg,1,2,f,2,19,139,21,f,1,0.633180488941,02,02,60.026184119,PLT_learning_02,B,2014_Mrz_14_1515,P24,
stim_fb/ques.jpg,stim_fb/posf.jpg,stim_fb/negf.jpg,stim_02/e.jpg,stim_02/f.jpg,2,3,j,2,20,140,59,j,1,0.666485030621,02,02,60.026184119,PLT_learning_02,B,2014_Mrz_14_1515,P24,
stim_fb/ques.jpg,stim_fb/negf.jpg,stim_fb/posf.jpg,stim_02/b.jpg,stim_02/a.jpg,1,1,f,2,21,141,3,f,1,0.583157594463,02,02,60.026184119,PLT_learning_02,B,2014_Mrz_14_1515,P24,
stim_fb/ques.jpg,stim_fb/negf.jpg,stim_fb/posf.jpg,stim_02/e.jpg,stim_02/f.jpg,2,3,j,2,22,142,54,j,1,0.64984147096,02,02,60.026184119,PLT_learning_02,B,2014_Mrz_14_1515,P24,
stim_fb/ques.jpg,stim_fb/posf.jpg,stim_fb/negf.jpg,stim_02/e.jpg,stim_02/f.jpg,2,3,j,2,23,143,58,j,1,0.666516158088,02,02,60.026184119,PLT_learning_02,B,2014_Mrz_14_1515,P24,
stim_fb/ques.jpg,stim_fb/posf.jpg,stim_fb/negf.jpg,stim_02/d.jpg,stim_02/c.jpg,1,2,f,2,24,144,29,f,1,0.633048583662,02,02,60.026184119,PLT_learning_02,B,2014_Mrz_14_1515,P24,
stim_fb/ques.jpg,stim_fb/negf.jpg,stim_fb/posf.jpg,stim_02/b.jpg,stim_02/a.jpg,1,1,f,2,25,145,2,f,1,0.616498857531,02,02,60.026184119,PLT_learning_02,B,2014_Mrz_14_1515,P24,
stim_fb/ques.jpg,stim_fb/negf.jpg,stim_fb/posf.jpg,stim_02/d.jpg,stim_02/c.jpg,1,2,f,2,26,146,26,f,1,0.649856454251,02,02,60.026184119,PLT_learning_02,B,2014_Mrz_14_1515,P24,
stim_fb/ques.jpg,stim_fb/negf.jpg,stim_fb/posf.jpg,stim_02/a.jpg,stim_02/b.jpg,2,1,j,2,27,147,15,j,1,0.699763999653,02,02,60.026184119,PLT_learning_02,B,2014_Mrz_14_1515,P24,
stim_fb/ques.jpg,stim_fb/posf.jpg,stim_fb/negf.jpg,stim_02/f.jpg,stim_02/e.jpg,1,3,f,2,28,148,48,f,1,0.699814510363,02,02,60.026184119,PLT_learning_02,B,2014_Mrz_14_1515,P24,
stim_fb/ques.jpg,stim_fb/negf.jpg,stim_fb/posf.jpg,stim_02/b.jpg,stim_02/a.jpg,1,1,f,2,29,149,5,f,1,0.53316768307,02,02,60.026184119,PLT_learning_02,B,2014_Mrz_14_1515,P24,
stim_fb/ques.jpg,stim_fb/negf.jpg,stim_fb/posf.jpg,stim_02/c.jpg,stim_02/d.jpg,2,2,j,2,30,150,30,j,1,0.666503571765,02,02,60.026184119,PLT_learning_02,B,2014_Mrz_14_1515,P24,
stim_fb/ques.jpg,stim_fb/posf.jpg,stim_fb/negf.jpg,stim_02/f.jpg,stim_02/e.jpg,1,3,f,2,31,151,49,f,1,0.633200996981,02,02,60.026184119,PLT_learning_02,B,2014_Mrz_14_1515,P24,
stim_fb/ques.jpg,stim_fb/negf.jpg,stim_fb/posf.jpg,stim_02/c.jpg,stim_02/d.jpg,2,2,j,2,32,152,31,j,1,0.733150338905,02,02,60.026184119,PLT_learning_02,B,2014_Mrz_14_1515,P24,
stim_fb/ques.jpg,stim_fb/negf.jpg,stim_fb/posf.jpg,stim_02/e.jpg,stim_02/f.jpg,2,3,j,2,33,153,52,j,1,0.783114560363,02,02,60.026184119,PLT_learning_02,B,2014_Mrz_14_1515,P24,
stim_fb/ques.jpg,stim_fb/negf.jpg,stim_fb/posf.jpg,stim_02/a.jpg,stim_02/b.jpg,2,1,j,2,34,154,11,j,1,0.86638565129,02,02,60.026184119,PLT_learning_02,B,2014_Mrz_14_1515,P24,
stim_fb/ques.jpg,stim_fb/posf.jpg,stim_fb/negf.jpg,stim_02/f.jpg,stim_02/e.jpg,1,3,f,2,35,155,46,f,1,0.499901249235,02,02,60.026184119,PLT_learning_02,B,2014_Mrz_14_1515,P24,
stim_fb/ques.jpg,stim_fb/negf.jpg,stim_fb/posf.jpg,stim_02/e.jpg,stim_02/f.jpg,2,3,j,2,36,156,55,j,1,0.549882402829,02,02,60.026184119,PLT_learning_02,B,2014_Mrz_14_1515,P24,
stim_fb/ques.jpg,stim_fb/negf.jpg,stim_fb/posf.jpg,stim_02/e.jpg,stim_02/f.jpg,2,3,j,2,37,157,50,j,1,0.499989407639,02,02,60.026184119,PLT_learning_02,B,2014_Mrz_14_1515,P24,
stim_fb/ques.jpg,stim_fb/negf.jpg,stim_fb/posf.jpg,stim_02/f.jpg,stim_02/e.jpg,1,3,f,2,38,158,42,f,1,0.583205455578,02,02,60.026184119,PLT_learning_02,B,2014_Mrz_14_1515,P24,
stim_fb/ques.jpg,stim_fb/negf.jpg,stim_fb/posf.jpg,stim_02/c.jpg,stim_02/d.jpg,2,2,j,2,39,159,34,j,1,0.866445797979,02,02,60.026184119,PLT_learning_02,B,2014_Mrz_14_1515,P24,
stim_fb/ques.jpg,stim_fb/negf.jpg,stim_fb/posf.jpg,stim_02/d.jpg,stim_02/c.jpg,1,2,f,2,40,160,22,f,1,0.449936699963,02,02,60.026184119,PLT_learning_02,B,2014_Mrz_14_1515,P24,
stim_fb/ques.jpg,stim_fb/posf.jpg,stim_fb/negf.jpg,stim_02/a.jpg,stim_02/b.jpg,2,1,j,2,41,161,19,j,1,0.699873896159,02,02,60.026184119,PLT_learning_02,B,2014_Mrz_14_1515,P24,
stim_fb/ques.jpg,stim_fb/negf.jpg,stim_fb/posf.jpg,stim_02/f.jpg,stim_02/e.jpg,1,3,f,2,42,162,43,f,1,0.549862222606,02,02,60.026184119,PLT_learning_02,B,2014_Mrz_14_1515,P24,
stim_fb/ques.jpg,stim_fb/posf.jpg,stim_fb/negf.jpg,stim_02/a.jpg,stim_02/b.jpg,2,1,j,2,43,163,18,j,1,0.683195834634,02,02,60.026184119,PLT_learning_02,B,2014_Mrz_14_1515,P24,
stim_fb/ques.jpg,stim_fb/negf.jpg,stim_fb/posf.jpg,stim_02/c.jpg,stim_02/d.jpg,2,2,j,2,44,164,33,j,1,0.799654343749,02,02,60.026184119,PLT_learning_02,B,2014_Mrz_14_1515,P24,
stim_fb/ques.jpg,stim_fb/negf.jpg,stim_fb/posf.jpg,stim_02/b.jpg,stim_02/a.jpg,1,1,f,2,45,165,4,f,1,0.583155970422,02,02,60.026184119,PLT_learning_02,B,2014_Mrz_14_1515,P24,
stim_fb/ques.jpg,stim_fb/posf.jpg,stim_fb/negf.jpg,stim_02/e.jpg,stim_02/f.jpg,2,3,j,2,46,166,57,j,1,0.716469799212,02,02,60.026184119,PLT_learning_02,B,2014_Mrz_14_1515,P24,
stim_fb/ques.jpg,stim_fb/negf.jpg,stim_fb/posf.jpg,stim_02/e.jpg,stim_02/f.jpg,2,3,j,2,47,167,53,j,1,0.649834409387,02,02,60.026184119,PLT_learning_02,B,2014_Mrz_14_1515,P24,
stim_fb/ques.jpg,stim_fb/posf.jpg,stim_fb/negf.jpg,stim_02/d.jpg,stim_02/c.jpg,1,2,f,2,48,168,27,f,1,0.63318825126,02,02,60.026184119,PLT_learning_02,B,2014_Mrz_14_1515,P24,
stim_fb/ques.jpg,stim_fb/negf.jpg,stim_fb/posf.jpg,stim_02/a.jpg,stim_02/b.jpg,2,1,j,2,49,169,13,j,1,0.716463218836,02,02,60.026184119,PLT_learning_02,B,2014_Mrz_14_1515,P24,
stim_fb/ques.jpg,stim_fb/negf.jpg,stim_fb/posf.jpg,stim_02/c.jpg,stim_02/d.jpg,2,2,j,2,50,170,32,j,1,0.733142381101,02,02,60.026184119,PLT_learning_02,B,2014_Mrz_14_1515,P24,
stim_fb/ques.jpg,stim_fb/negf.jpg,stim_fb/posf.jpg,stim_02/b.jpg,stim_02/a.jpg,1,1,f,2,51,171,1,f,1,0.549873759319,02,02,60.026184119,PLT_learning_02,B,2014_Mrz_14_1515,P24,
stim_fb/ques.jpg,stim_fb/negf.jpg,stim_fb/posf.jpg,stim_02/c.jpg,stim_02/d.jpg,2,2,j,2,52,172,35,j,1,0.516553702026,02,02,60.026184119,PLT_learning_02,B,2014_Mrz_14_1515,P24,
stim_fb/ques.jpg,stim_fb/posf.jpg,stim_fb/negf.jpg,stim_02/b.jpg,stim_02/a.jpg,1,1,f,2,53,173,8,f,1,0.633207384879,02,02,60.026184119,PLT_learning_02,B,2014_Mrz_14_1515,P24,
stim_fb/ques.jpg,stim_fb/posf.jpg,stim_fb/negf.jpg,stim_02/d.jpg,stim_02/c.jpg,1,2,f,2,54,174,28,f,1,0.64979559178,02,02,60.026184119,PLT_learning_02,B,2014_Mrz_14_1515,P24,
stim_fb/ques.jpg,stim_fb/negf.jpg,stim_fb/posf.jpg,stim_02/d.jpg,stim_02/c.jpg,1,2,f,2,55,175,20,f,1,0.499860025639,02,02,60.026184119,PLT_learning_02,B,2014_Mrz_14_1515,P24,
stim_fb/ques.jpg,stim_fb/negf.jpg,stim_fb/posf.jpg,stim_02/c.jpg,stim_02/d.jpg,2,2,j,2,56,176,36,j,1,0.56653407969,02,02,60.026184119,PLT_learning_02,B,2014_Mrz_14_1515,P24,
stim_fb/ques.jpg,stim_fb/negf.jpg,stim_fb/posf.jpg,stim_02/d.jpg,stim_02/c.jpg,1,2,f,2,57,177,23,f,1,0.449896471844,02,02,60.026184119,PLT_learning_02,B,2014_Mrz_14_1515,P24,
stim_fb/ques.jpg,stim_fb/negf.jpg,stim_fb/posf.jpg,stim_02/f.jpg,stim_02/e.jpg,1,3,f,2,58,178,45,j,0,0.58316906501,02,02,60.026184119,PLT_learning_02,B,2014_Mrz_14_1515,P24,
stim_fb/ques.jpg,stim_fb/negf.jpg,stim_fb/posf.jpg,stim_02/b.jpg,stim_02/a.jpg,1,1,f,2,59,179,7,f,1,0.649846794209,02,02,60.026184119,PLT_learning_02,B,2014_Mrz_14_1515,P24,
stim_fb/ques.jpg,stim_fb/negf.jpg,stim_fb/posf.jpg,stim_02/f.jpg,stim_02/e.jpg,1,3,f,3,0,180,43,f,1,0.683206688647,02,02,60.026184119,PLT_learning_02,B,2014_Mrz_14_1515,P24,
stim_fb/ques.jpg,stim_fb/negf.jpg,stim_fb/posf.jpg,stim_02/d.jpg,stim_02/c.jpg,1,2,f,3,1,181,26,f,1,0.533202843577,02,02,60.026184119,PLT_learning_02,B,2014_Mrz_14_1515,P24,
stim_fb/ques.jpg,stim_fb/negf.jpg,stim_fb/posf.jpg,stim_02/b.jpg,stim_02/a.jpg,1,1,f,3,2,182,1,f,1,0.616500908636,02,02,60.026184119,PLT_learning_02,B,2014_Mrz_14_1515,P24,
stim_fb/ques.jpg,stim_fb/posf.jpg,stim_fb/negf.jpg,stim_02/c.jpg,stim_02/d.jpg,2,2,j,3,3,183,39,j,1,0.816409790867,02,02,60.026184119,PLT_learning_02,B,2014_Mrz_14_1515,P24,
stim_fb/ques.jpg,stim_fb/negf.jpg,stim_fb/posf.jpg,stim_02/f.jpg,stim_02/e.jpg,1,3,f,3,4,184,42,f,1,0.533173956685,02,02,60.026184119,PLT_learning_02,B,2014_Mrz_14_1515,P24,
stim_fb/ques.jpg,stim_fb/negf.jpg,stim_fb/posf.jpg,stim_02/c.jpg,stim_02/d.jpg,2,2,j,3,5,185,30,j,1,0.649850785141,02,02,60.026184119,PLT_learning_02,B,2014_Mrz_14_1515,P24,
stim_fb/ques.jpg,stim_fb/negf.jpg,stim_fb/posf.jpg,stim_02/b.jpg,stim_02/a.jpg,1,1,f,3,6,186,2,f,1,0.549881121642,02,02,60.026184119,PLT_learning_02,B,2014_Mrz_14_1515,P24,
stim_fb/ques.jpg,stim_fb/posf.jpg,stim_fb/negf.jpg,stim_02/a.jpg,stim_02/b.jpg,2,1,j,3,7,187,18,j,1,0.74980312252,02,02,60.026184119,PLT_learning_02,B,2014_Mrz_14_1515,P24,
stim_fb/ques.jpg,stim_fb/negf.jpg,stim_fb/posf.jpg,stim_02/d.jpg,stim_02/c.jpg,1,2,f,3,8,188,20,f,1,0.533209947256,02,02,60.026184119,PLT_learning_02,B,2014_Mrz_14_1515,P24,
stim_fb/ques.jpg,stim_fb/posf.jpg,stim_fb/negf.jpg,stim_02/d.jpg,stim_02/c.jpg,1,2,f,3,9,189,29,f,1,0.499869917257,02,02,60.026184119,PLT_learning_02,B,2014_Mrz_14_1515,P24,
stim_fb/ques.jpg,stim_fb/negf.jpg,stim_fb/posf.jpg,stim_02/a.jpg,stim_02/b.jpg,2,1,j,3,10,190,17,j,1,0.666545974294,02,02,60.026184119,PLT_learning_02,B,2014_Mrz_14_1515,P24,
stim_fb/ques.jpg,stim_fb/posf.jpg,stim_fb/negf.jpg,stim_02/e.jpg,stim_02/f.jpg,2,3,j,3,11,191,56,j,1,0.766430264321,02,02,60.026184119,PLT_learning_02,B,2014_Mrz_14_1515,P24,
stim_fb/ques.jpg,stim_fb/negf.jpg,stim_fb/posf.jpg,stim_02/a.jpg,stim_02/b.jpg,2,1,j,3,12,192,15,j,1,0.716485799032,02,02,60.026184119,PLT_learning_02,B,2014_Mrz_14_1515,P24,
stim_fb/ques.jpg,stim_fb/posf.jpg,stim_fb/negf.jpg,stim_02/f.jpg,stim_02/e.jpg,1,3,f,3,13,193,48,f,1,0.616504677015,02,02,60.026184119,PLT_learning_02,B,2014_Mrz_14_1515,P24,
stim_fb/ques.jpg,stim_fb/negf.jpg,stim_fb/posf.jpg,stim_02/f.jpg,stim_02/e.jpg,1,3,f,3,14,194,40,f,1,0.483182189675,02,02,60.026184119,PLT_learning_02,B,2014_Mrz_14_1515,P24,
stim_fb/ques.jpg,stim_fb/negf.jpg,stim_fb/posf.jpg,stim_02/b.jpg,stim_02/a.jpg,1,1,f,3,15,195,6,f,1,0.599801021794,02,02,60.026184119,PLT_learning_02,B,2014_Mrz_14_1515,P24,
stim_fb/ques.jpg,stim_fb/posf.jpg,stim_fb/negf.jpg,stim_02/b.jpg,stim_02/a.jpg,1,1,f,3,16,196,9,f,1,0.533252530235,02,02,60.026184119,PLT_learning_02,B,2014_Mrz_14_1515,P24,
stim_fb/ques.jpg,stim_fb/posf.jpg,stim_fb/negf.jpg,stim_02/b.jpg,stim_02/a.jpg,1,1,f,3,17,197,8,f,1,0.483190682811,02,02,60.026184119,PLT_learning_02,B,2014_Mrz_14_1515,P24,
stim_fb/ques.jpg,stim_fb/negf.jpg,stim_fb/posf.jpg,stim_02/b.jpg,stim_02/a.jpg,1,1,f,3,18,198,0,f,1,0.466565249264,02,02,60.026184119,PLT_learning_02,B,2014_Mrz_14_1515,P24,
stim_fb/ques.jpg,stim_fb/negf.jpg,stim_fb/posf.jpg,stim_02/e.jpg,stim_02/f.jpg,2,3,j,3,19,199,53,j,1,0.666506753683,02,02,60.026184119,PLT_learning_02,B,2014_Mrz_14_1515,P24,
stim_fb/ques.jpg,stim_fb/negf.jpg,stim_fb/posf.jpg,stim_02/c.jpg,stim_02/d.jpg,2,2,j,3,20,200,31,j,1,0.866438986026,02,02,60.026184119,PLT_learning_02,B,2014_Mrz_14_1515,P24,
stim_fb/ques.jpg,stim_fb/posf.jpg,stim_fb/negf.jpg,stim_02/f.jpg,stim_02/e.jpg,1,3,f,3,21,201,47,f,1,0.533206792405,02,02,60.026184119,PLT_learning_02,B,2014_Mrz_14_1515,P24,
stim_fb/ques.jpg,stim_fb/posf.jpg,stim_fb/negf.jpg,stim_02/e.jpg,stim_02/f.jpg,2,3,j,3,22,202,59,j,1,1.03303922136,02,02,60.026184119,PLT_learning_02,B,2014_Mrz_14_1515,P24,
stim_fb/ques.jpg,stim_fb/negf.jpg,stim_fb/posf.jpg,stim_02/b.jpg,stim_02/a.jpg,1,1,f,3,23,203,4,f,1,0.616522183584,02,02,60.026184119,PLT_learning_02,B,2014_Mrz_14_1515,P24,
stim_fb/ques.jpg,stim_fb/negf.jpg,stim_fb/posf.jpg,stim_02/a.jpg,stim_02/b.jpg,2,1,j,3,24,204,14,j,1,0.7498204727,02,02,60.026184119,PLT_learning_02,B,2014_Mrz_14_1515,P24,
stim_fb/ques.jpg,stim_fb/negf.jpg,stim_fb/posf.jpg,stim_02/e.jpg,stim_02/f.jpg,2,3,j,3,25,205,51,j,1,0.599865406029,02,02,60.026184119,PLT_learning_02,B,2014_Mrz_14_1515,P24,
stim_fb/ques.jpg,stim_fb/negf.jpg,stim_fb/posf.jpg,stim_02/e.jpg,stim_02/f.jpg,2,3,j,3,26,206,52,j,1,0.633174082999,02,02,60.026184119,PLT_learning_02,B,2014_Mrz_14_1515,P24,
stim_fb/ques.jpg,stim_fb/negf.jpg,stim_fb/posf.jpg,stim_02/a.jpg,stim_02/b.jpg,2,1,j,3,27,207,12,j,1,0.699830212441,02,02,60.026184119,PLT_learning_02,B,2014_Mrz_14_1515,P24,
stim_fb/ques.jpg,stim_fb/posf.jpg,stim_fb/negf.jpg,stim_02/d.jpg,stim_02/c.jpg,1,2,f,3,28,208,27,f,1,0.699819304295,02,02,60.026184119,PLT_learning_02,B,2014_Mrz_14_1515,P24,
stim_fb/ques.jpg,stim_fb/negf.jpg,stim_fb/posf.jpg,stim_02/c.jpg,stim_02/d.jpg,2,2,j,3,29,209,34,j,1,0.566579288203,02,02,60.026184119,PLT_learning_02,B,2014_Mrz_14_1515,P24,
stim_fb/ques.jpg,stim_fb/negf.jpg,stim_fb/posf.jpg,stim_02/b.jpg,stim_02/a.jpg,1,1,f,3,30,210,5,f,1,0.749781769378,02,02,60.026184119,PLT_learning_02,B,2014_Mrz_14_1515,P24,
stim_fb/ques.jpg,stim_fb/posf.jpg,stim_fb/negf.jpg,stim_02/e.jpg,stim_02/f.jpg,2,3,j,3,31,211,58,j,1,0.51649353729,02,02,60.026184119,PLT_learning_02,B,2014_Mrz_14_1515,P24,
stim_fb/ques.jpg,stim_fb/negf.jpg,stim_fb/posf.jpg,stim_02/e.jpg,stim_02/f.jpg,2,3,j,3,32,212,50,j,1,0.616512872411,02,02,60.026184119,PLT_learning_02,B,2014_Mrz_14_1515,P24,
stim_fb/ques.jpg,stim_fb/negf.jpg,stim_fb/posf.jpg,stim_02/b.jpg,stim_02/a.jpg,1,1,f,3,33,213,3,f,1,0.616497236499,02,02,60.026184119,PLT_learning_02,B,2014_Mrz_14_1515,P24,
stim_fb/ques.jpg,stim_fb/negf.jpg,stim_fb/posf.jpg,stim_02/f.jpg,stim_02/e.jpg,1,3,f,3,34,214,45,f,1,0.783105104831,02,02,60.026184119,PLT_learning_02,B,2014_Mrz_14_1515,P24,
stim_fb/ques.jpg,stim_fb/negf.jpg,stim_fb/posf.jpg,stim_02/d.jpg,stim_02/c.jpg,1,2,f,3,35,215,25,f,1,0.516508021337,02,02,60.026184119,PLT_learning_02,B,2014_Mrz_14_1515,P24,
stim_fb/ques.jpg,stim_fb/negf.jpg,stim_fb/posf.jpg,stim_02/a.jpg,stim_02/b.jpg,2,1,j,3,36,216,13,j,1,0.699858500844,02,02,60.026184119,PLT_learning_02,B,2014_Mrz_14_1515,P24,
stim_fb/ques.jpg,stim_fb/posf.jpg,stim_fb/negf.jpg,stim_02/f.jpg,stim_02/e.jpg,1,3,f,3,37,217,46,f,1,0.483249849061,02,02,60.026184119,PLT_learning_02,B,2014_Mrz_14_1515,P24,
stim_fb/ques.jpg,stim_fb/negf.jpg,stim_fb/posf.jpg,stim_02/a.jpg,stim_02/b.jpg,2,1,j,3,38,218,10,j,1,0.683176288991,02,02,60.026184119,PLT_learning_02,B,2014_Mrz_14_1515,P24,
stim_fb/ques.jpg,stim_fb/negf.jpg,stim_fb/posf.jpg,stim_02/d.jpg,stim_02/c.jpg,1,2,f,3,39,219,24,f,1,0.466567757507,02,02,60.026184119,PLT_learning_02,B,2014_Mrz_14_1515,P24,
stim_fb/ques.jpg,stim_fb/posf.jpg,stim_fb/negf.jpg,stim_02/c.jpg,stim_02/d.jpg,2,2,j,3,40,220,38,j,1,0.58316643346,02,02,60.026184119,PLT_learning_02,B,2014_Mrz_14_1515,P24,
stim_fb/ques.jpg,stim_fb/posf.jpg,stim_fb/negf.jpg,stim_02/a.jpg,stim_02/b.jpg,2,1,j,3,41,221,19,j,1,0.566510203269,02,02,60.026184119,PLT_learning_02,B,2014_Mrz_14_1515,P24,
stim_fb/ques.jpg,stim_fb/negf.jpg,stim_fb/posf.jpg,stim_02/c.jpg,stim_02/d.jpg,2,2,j,3,42,222,36,j,1,0.583222643354,02,02,60.026184119,PLT_learning_02,B,2014_Mrz_14_1515,P24,
stim_fb/ques.jpg,stim_fb/negf.jpg,stim_fb/posf.jpg,stim_02/d.jpg,stim_02/c.jpg,1,2,f,3,43,223,23,f,1,0.449914534798,02,02,60.026184119,PLT_learning_02,B,2014_Mrz_14_1515,P24,
stim_fb/ques.jpg,stim_fb/negf.jpg,stim_fb/posf.jpg,stim_02/e.jpg,stim_02/f.jpg,2,3,j,3,44,224,54,j,1,0.733140723976,02,02,60.026184119,PLT_learning_02,B,2014_Mrz_14_1515,P24,
stim_fb/ques.jpg,stim_fb/negf.jpg,stim_fb/posf.jpg,stim_02/b.jpg,stim_02/a.jpg,1,1,f,3,45,225,7,f,1,0.666519069335,02,02,60.026184119,PLT_learning_02,B,2014_Mrz_14_1515,P24,
stim_fb/ques.jpg,stim_fb/negf.jpg,stim_fb/posf.jpg,stim_02/d.jpg,stim_02/c.jpg,1,2,f,3,46,226,22,f,1,0.533153695258,02,02,60.026184119,PLT_learning_02,B,2014_Mrz_14_1515,P24,
stim_fb/ques.jpg,stim_fb/negf.jpg,stim_fb/posf.jpg,stim_02/a.jpg,stim_02/b.jpg,2,1,j,3,47,227,11,j,1,0.516546571278,02,02,60.026184119,PLT_learning_02,B,2014_Mrz_14_1515,P24,
stim_fb/ques.jpg,stim_fb/negf.jpg,stim_fb/posf.jpg,stim_02/e.jpg,stim_02/f.jpg,2,3,j,3,48,228,55,j,1,0.64983038838,02,02,60.026184119,PLT_learning_02,B,2014_Mrz_14_1515,P24,
stim_fb/ques.jpg,stim_fb/negf.jpg,stim_fb/posf.jpg,stim_02/f.jpg,stim_02/e.jpg,1,3,f,3,49,229,41,f,1,0.466551297543,02,02,60.026184119,PLT_learning_02,B,2014_Mrz_14_1515,P24,
stim_fb/ques.jpg,stim_fb/negf.jpg,stim_fb/posf.jpg,stim_02/d.jpg,stim_02/c.jpg,1,2,f,3,50,230,21,f,1,0.533174789758,02,02,60.026184119,PLT_learning_02,B,2014_Mrz_14_1515,P24,
stim_fb/ques.jpg,stim_fb/posf.jpg,stim_fb/negf.jpg,stim_02/c.jpg,stim_02/d.jpg,2,2,j,3,51,231,37,j,1,0.66649319594,02,02,60.026184119,PLT_learning_02,B,2014_Mrz_14_1515,P24,
stim_fb/ques.jpg,stim_fb/posf.jpg,stim_fb/negf.jpg,stim_02/f.jpg,stim_02/e.jpg,1,3,f,3,52,232,49,f,1,0.699861087282,02,02,60.026184119,PLT_learning_02,B,2014_Mrz_14_1515,P24,
stim_fb/ques.jpg,stim_fb/negf.jpg,stim_fb/posf.jpg,stim_02/c.jpg,stim_02/d.jpg,2,2,j,3,53,233,33,j,1,0.566492741811,02,02,60.026184119,PLT_learning_02,B,2014_Mrz_14_1515,P24,
stim_fb/ques.jpg,stim_fb/negf.jpg,stim_fb/posf.jpg,stim_02/c.jpg,stim_02/d.jpg,2,2,j,3,54,234,32,j,1,0.54985626177,02,02,60.026184119,PLT_learning_02,B,2014_Mrz_14_1515,P24,
stim_fb/ques.jpg,stim_fb/negf.jpg,stim_fb/posf.jpg,stim_02/a.jpg,stim_02/b.jpg,2,1,j,3,55,235,16,j,1,0.566538759338,02,02,60.026184119,PLT_learning_02,B,2014_Mrz_14_1515,P24,
stim_fb/ques.jpg,stim_fb/posf.jpg,stim_fb/negf.jpg,stim_02/d.jpg,stim_02/c.jpg,1,2,f,3,56,236,28,f,1,0.533190720405,02,02,60.026184119,PLT_learning_02,B,2014_Mrz_14_1515,P24,
stim_fb/ques.jpg,stim_fb/negf.jpg,stim_fb/posf.jpg,stim_02/c.jpg,stim_02/d.jpg,2,2,j,3,57,237,35,j,1,0.616498228968,02,02,60.026184119,PLT_learning_02,B,2014_Mrz_14_1515,P24,
stim_fb/ques.jpg,stim_fb/posf.jpg,stim_fb/negf.jpg,stim_02/e.jpg,stim_02/f.jpg,2,3,j,3,58,238,57,j,1,0.799784513709,02,02,60.026184119,PLT_learning_02,B,2014_Mrz_14_1515,P24,
stim_fb/ques.jpg,stim_fb/negf.jpg,stim_fb/posf.jpg,stim_02/f.jpg,stim_02/e.jpg,1,3,f,3,59,239,44,f,1,0.683160433529,02,02,60.026184119,PLT_learning_02,B,2014_Mrz_14_1515,P24,
stim_fb/ques.jpg,stim_fb/negf.jpg,stim_fb/posf.jpg,stim_02/f.jpg,stim_02/e.jpg,1,3,f,4,0,240,40,f,1,0.566499878572,02,02,60.026184119,PLT_learning_02,B,2014_Mrz_14_1515,P24,
stim_fb/ques.jpg,stim_fb/posf.jpg,stim_fb/negf.jpg,stim_02/e.jpg,stim_02/f.jpg,2,3,j,4,1,241,57,j,1,0.566520362552,02,02,60.026184119,PLT_learning_02,B,2014_Mrz_14_1515,P24,
stim_fb/ques.jpg,stim_fb/negf.jpg,stim_fb/posf.jpg,stim_02/b.jpg,stim_02/a.jpg,1,1,f,4,2,242,7,f,1,0.533218440392,02,02,60.026184119,PLT_learning_02,B,2014_Mrz_14_1515,P24,
stim_fb/ques.jpg,stim_fb/posf.jpg,stim_fb/negf.jpg,stim_02/c.jpg,stim_02/d.jpg,2,2,j,4,3,243,37,j,1,1.11634658857,02,02,60.026184119,PLT_learning_02,B,2014_Mrz_14_1515,P24,
stim_fb/ques.jpg,stim_fb/negf.jpg,stim_fb/posf.jpg,stim_02/f.jpg,stim_02/e.jpg,1,3,f,4,4,244,44,f,1,0.699835111633,02,02,60.026184119,PLT_learning_02,B,2014_Mrz_14_1515,P24,
stim_fb/ques.jpg,stim_fb/negf.jpg,stim_fb/posf.jpg,stim_02/e.jpg,stim_02/f.jpg,2,3,j,4,5,245,52,j,1,0.666475382608,02,02,60.026184119,PLT_learning_02,B,2014_Mrz_14_1515,P24,
stim_fb/ques.jpg,stim_fb/posf.jpg,stim_fb/negf.jpg,stim_02/b.jpg,stim_02/a.jpg,1,1,f,4,6,246,9,f,1,0.666474345026,02,02,60.026184119,PLT_learning_02,B,2014_Mrz_14_1515,P24,
stim_fb/ques.jpg,stim_fb/negf.jpg,stim_fb/posf.jpg,stim_02/d.jpg,stim_02/c.jpg,1,2,f,4,7,247,22,f,1,0.68315277948,02,02,60.026184119,PLT_learning_02,B,2014_Mrz_14_1515,P24,
stim_fb/ques.jpg,stim_fb/negf.jpg,stim_fb/posf.jpg,stim_02/f.jpg,stim_02/e.jpg,1,3,f,4,8,248,41,f,1,0.749820481724,02,02,60.026184119,PLT_learning_02,B,2014_Mrz_14_1515,P24,
stim_fb/ques.jpg,stim_fb/negf.jpg,stim_fb/posf.jpg,stim_02/c.jpg,stim_02/d.jpg,2,2,j,4,9,249,35,j,1,1.01636911764,02,02,60.026184119,PLT_learning_02,B,2014_Mrz_14_1515,P24,
stim_fb/ques.jpg,stim_fb/negf.jpg,stim_fb/posf.jpg,stim_02/a.jpg,stim_02/b.jpg,2,1,j,4,10,250,15,j,1,0.799736586428,02,02,60.026184119,PLT_learning_02,B,2014_Mrz_14_1515,P24,
stim_fb/ques.jpg,stim_fb/posf.jpg,stim_fb/negf.jpg,stim_02/c.jpg,stim_02/d.jpg,2,2,j,4,11,251,39,j,1,0.699800023307,02,02,60.026184119,PLT_learning_02,B,2014_Mrz_14_1515,P24,
stim_fb/ques.jpg,stim_fb/negf.jpg,stim_fb/posf.jpg,stim_02/c.jpg,stim_02/d.jpg,2,2,j,4,12,252,32,j,1,0.649842875457,02,02,60.026184119,PLT_learning_02,B,2014_Mrz_14_1515,P24,
stim_fb/ques.jpg,stim_fb/posf.jpg,stim_fb/negf.jpg,stim_02/d.jpg,stim_02/c.jpg,1,2,f,4,13,253,29,f,1,0.466534467656,02,02,60.026184119,PLT_learning_02,B,2014_Mrz_14_1515,P24,
stim_fb/ques.jpg,stim_fb/negf.jpg,stim_fb/posf.jpg,stim_02/a.jpg,stim_02/b.jpg,2,1,j,4,14,254,14,j,1,0.666505523623,02,02,60.026184119,PLT_learning_02,B,2014_Mrz_14_1515,P24,
stim_fb/ques.jpg,stim_fb/posf.jpg,stim_fb/negf.jpg,stim_02/d.jpg,stim_02/c.jpg,1,2,f,4,15,255,28,f,1,0.516571984526,02,02,60.026184119,PLT_learning_02,B,2014_Mrz_14_1515,P24,
stim_fb/ques.jpg,stim_fb/posf.jpg,stim_fb/negf.jpg,stim_02/d.jpg,stim_02/c.jpg,1,2,f,4,16,256,27,f,1,0.583224947088,02,02,60.026184119,PLT_learning_02,B,2014_Mrz_14_1515,P24,
stim_fb/ques.jpg,stim_fb/posf.jpg,stim_fb/negf.jpg,stim_02/f.jpg,stim_02/e.jpg,1,3,f,4,17,257,48,f,1,0.766447259617,02,02,60.026184119,PLT_learning_02,B,2014_Mrz_14_1515,P24,
stim_fb/ques.jpg,stim_fb/negf.jpg,stim_fb/posf.jpg,stim_02/b.jpg,stim_02/a.jpg,1,1,f,4,18,258,0,f,1,0.716453805409,02,02,60.026184119,PLT_learning_02,B,2014_Mrz_14_1515,P24,
stim_fb/ques.jpg,stim_fb/negf.jpg,stim_fb/posf.jpg,stim_02/a.jpg,stim_02/b.jpg,2,1,j,4,19,259,12,j,1,0.749791206867,02,02,60.026184119,PLT_learning_02,B,2014_Mrz_14_1515,P24,
stim_fb/ques.jpg,stim_fb/negf.jpg,stim_fb/posf.jpg,stim_02/b.jpg,stim_02/a.jpg,1,1,f,4,20,260,2,f,1,0.533190747474,02,02,60.026184119,PLT_learning_02,B,2014_Mrz_14_1515,P24,
stim_fb/ques.jpg,stim_fb/posf.jpg,stim_fb/negf.jpg,stim_02/a.jpg,stim_02/b.jpg,2,1,j,4,21,261,18,j,1,0.716390630181,02,02,60.026184119,PLT_learning_02,B,2014_Mrz_14_1515,P24,
stim_fb/ques.jpg,stim_fb/posf.jpg,stim_fb/negf.jpg,stim_02/a.jpg,stim_02/b.jpg,2,1,j,4,22,262,19,j,1,0.766459454968,02,02,60.026184119,PLT_learning_02,B,2014_Mrz_14_1515,P24,
stim_fb/ques.jpg,stim_fb/negf.jpg,stim_fb/posf.jpg,stim_02/c.jpg,stim_02/d.jpg,2,2,j,4,23,263,36,j,1,0.766451827985,02,02,60.026184119,PLT_learning_02,B,2014_Mrz_14_1515,P24,
stim_fb/ques.jpg,stim_fb/negf.jpg,stim_fb/posf.jpg,stim_02/d.jpg,stim_02/c.jpg,1,2,f,4,24,264,23,f,1,0.43324403409,02,02,60.026184119,PLT_learning_02,B,2014_Mrz_14_1515,P24,
stim_fb/ques.jpg,stim_fb/negf.jpg,stim_fb/posf.jpg,stim_02/a.jpg,stim_02/b.jpg,2,1,j,4,25,265,17,j,1,0.816440933373,02,02,60.026184119,PLT_learning_02,B,2014_Mrz_14_1515,P24,
stim_fb/ques.jpg,stim_fb/posf.jpg,stim_fb/negf.jpg,stim_02/e.jpg,stim_02/f.jpg,2,3,j,4,26,266,59,j,1,0.716466521055,02,02,60.026184119,PLT_learning_02,B,2014_Mrz_14_1515,P24,
stim_fb/ques.jpg,stim_fb/posf.jpg,stim_fb/negf.jpg,stim_02/f.jpg,stim_02/e.jpg,1,3,f,4,27,267,47,f,1,0.533180964125,02,02,60.026184119,PLT_learning_02,B,2014_Mrz_14_1515,P24,
stim_fb/ques.jpg,stim_fb/negf.jpg,stim_fb/posf.jpg,stim_02/c.jpg,stim_02/d.jpg,2,2,j,4,28,268,33,j,1,0.649820271199,02,02,60.026184119,PLT_learning_02,B,2014_Mrz_14_1515,P24,
stim_fb/ques.jpg,stim_fb/negf.jpg,stim_fb/posf.jpg,stim_02/a.jpg,stim_02/b.jpg,2,1,j,4,29,269,16,j,1,0.666502928161,02,02,60.026184119,PLT_learning_02,B,2014_Mrz_14_1515,P24,
stim_fb/ques.jpg,stim_fb/negf.jpg,stim_fb/posf.jpg,stim_02/f.jpg,stim_02/e.jpg,1,3,f,4,30,270,43,f,1,0.549865124829,02,02,60.026184119,PLT_learning_02,B,2014_Mrz_14_1515,P24,
stim_fb/ques.jpg,stim_fb/negf.jpg,stim_fb/posf.jpg,stim_02/e.jpg,stim_02/f.jpg,2,3,j,4,31,271,50,j,1,0.583199798499,02,02,60.026184119,PLT_learning_02,B,2014_Mrz_14_1515,P24,
stim_fb/ques.jpg,stim_fb/negf.jpg,stim_fb/posf.jpg,stim_02/c.jpg,stim_02/d.jpg,2,2,j,4,32,272,30,j,1,0.649771149951,02,02,60.026184119,PLT_learning_02,B,2014_Mrz_14_1515,P24,
stim_fb/ques.jpg,stim_fb/negf.jpg,stim_fb/posf.jpg,stim_02/c.jpg,stim_02/d.jpg,2,2,j,4,33,273,31,j,1,0.466547920136,02,02,60.026184119,PLT_learning_02,B,2014_Mrz_14_1515,P24,
stim_fb/ques.jpg,stim_fb/negf.jpg,stim_fb/posf.jpg,stim_02/e.jpg,stim_02/f.jpg,2,3,j,4,34,274,55,j,1,0.616535407496,02,02,60.026184119,PLT_learning_02,B,2014_Mrz_14_1515,P24,
stim_fb/ques.jpg,stim_fb/negf.jpg,stim_fb/posf.jpg,stim_02/c.jpg,stim_02/d.jpg,2,2,j,4,35,275,34,j,1,0.766446558873,02,02,60.026184119,PLT_learning_02,B,2014_Mrz_14_1515,P24,
stim_fb/ques.jpg,stim_fb/posf.jpg,stim_fb/negf.jpg,stim_02/f.jpg,stim_02/e.jpg,1,3,f,4,36,276,49,f,1,0.599836645451,02,02,60.026184119,PLT_learning_02,B,2014_Mrz_14_1515,P24,
stim_fb/ques.jpg,stim_fb/negf.jpg,stim_fb/posf.jpg,stim_02/a.jpg,stim_02/b.jpg,2,1,j,4,37,277,11,j,1,0.683147651718,02,02,60.026184119,PLT_learning_02,B,2014_Mrz_14_1515,P24,
stim_fb/ques.jpg,stim_fb/posf.jpg,stim_fb/negf.jpg,stim_02/e.jpg,stim_02/f.jpg,2,3,j,4,38,278,56,j,1,0.583185046786,02,02,60.026184119,PLT_learning_02,B,2014_Mrz_14_1515,P24,
stim_fb/ques.jpg,stim_fb/negf.jpg,stim_fb/posf.jpg,stim_02/b.jpg,stim_02/a.jpg,1,1,f,4,39,279,3,f,1,0.583237608598,02,02,60.026184119,PLT_learning_02,B,2014_Mrz_14_1515,P24,
stim_fb/ques.jpg,stim_fb/posf.jpg,stim_fb/negf.jpg,stim_02/e.jpg,stim_02/f.jpg,2,3,j,4,40,280,58,j,1,0.699810122444,02,02,60.026184119,PLT_learning_02,B,2014_Mrz_14_1515,P24,
stim_fb/ques.jpg,stim_fb/negf.jpg,stim_fb/posf.jpg,stim_02/a.jpg,stim_02/b.jpg,2,1,j,4,41,281,10,j,1,0.799778835577,02,02,60.026184119,PLT_learning_02,B,2014_Mrz_14_1515,P24,
stim_fb/ques.jpg,stim_fb/posf.jpg,stim_fb/negf.jpg,stim_02/b.jpg,stim_02/a.jpg,1,1,f,4,42,282,8,f,1,0.54986447822,02,02,60.026184119,PLT_learning_02,B,2014_Mrz_14_1515,P24,
stim_fb/ques.jpg,stim_fb/negf.jpg,stim_fb/posf.jpg,stim_02/e.jpg,stim_02/f.jpg,2,3,j,4,43,283,51,j,1,0.616506544662,02,02,60.026184119,PLT_learning_02,B,2014_Mrz_14_1515,P24,
stim_fb/ques.jpg,stim_fb/negf.jpg,stim_fb/posf.jpg,stim_02/f.jpg,stim_02/e.jpg,1,3,f,4,44,284,45,f,1,0.56649540945,02,02,60.026184119,PLT_learning_02,B,2014_Mrz_14_1515,P24,
stim_fb/ques.jpg,stim_fb/negf.jpg,stim_fb/posf.jpg,stim_02/e.jpg,stim_02/f.jpg,2,3,j,4,45,285,54,j,1,0.583179726544,02,02,60.026184119,PLT_learning_02,B,2014_Mrz_14_1515,P24,
stim_fb/ques.jpg,stim_fb/posf.jpg,stim_fb/negf.jpg,stim_02/c.jpg,stim_02/d.jpg,2,2,j,4,46,286,38,j,1,0.649848782155,02,02,60.026184119,PLT_learning_02,B,2014_Mrz_14_1515,P24,
stim_fb/ques.jpg,stim_fb/negf.jpg,stim_fb/posf.jpg,stim_02/a.jpg,stim_02/b.jpg,2,1,j,4,47,287,13,j,1,0.633164783856,02,02,60.026184119,PLT_learning_02,B,2014_Mrz_14_1515,P24,
stim_fb/ques.jpg,stim_fb/negf.jpg,stim_fb/posf.jpg,stim_02/b.jpg,stim_02/a.jpg,1,1,f,4,48,288,5,f,1,0.599871207469,02,02,60.026184119,PLT_learning_02,B,2014_Mrz_14_1515,P24,
stim_fb/ques.jpg,stim_fb/negf.jpg,stim_fb/posf.jpg,stim_02/f.jpg,stim_02/e.jpg,1,3,f,4,49,289,42,f,1,0.683152761436,02,02,60.026184119,PLT_learning_02,B,2014_Mrz_14_1515,P24,
stim_fb/ques.jpg,stim_fb/negf.jpg,stim_fb/posf.jpg,stim_02/b.jpg,stim_02/a.jpg,1,1,f,4,50,290,6,f,1,0.533197980474,02,02,60.026184119,PLT_learning_02,B,2014_Mrz_14_1515,P24,
stim_fb/ques.jpg,stim_fb/posf.jpg,stim_fb/negf.jpg,stim_02/f.jpg,stim_02/e.jpg,1,3,f,4,51,291,46,f,1,0.61656996049,02,02,60.026184119,PLT_learning_02,B,2014_Mrz_14_1515,P24,
stim_fb/ques.jpg,stim_fb/negf.jpg,stim_fb/posf.jpg,stim_02/d.jpg,stim_02/c.jpg,1,2,f,4,52,292,25,f,1,0.433234527431,02,02,60.026184119,PLT_learning_02,B,2014_Mrz_14_1515,P24,
stim_fb/ques.jpg,stim_fb/negf.jpg,stim_fb/posf.jpg,stim_02/d.jpg,stim_02/c.jpg,1,2,f,4,53,293,20,f,1,0.416580613,02,02,60.026184119,PLT_learning_02,B,2014_Mrz_14_1515,P24,
stim_fb/ques.jpg,stim_fb/negf.jpg,stim_fb/posf.jpg,stim_02/b.jpg,stim_02/a.jpg,1,1,f,4,54,294,4,f,1,0.699819226098,02,02,60.026184119,PLT_learning_02,B,2014_Mrz_14_1515,P24,
stim_fb/ques.jpg,stim_fb/negf.jpg,stim_fb/posf.jpg,stim_02/d.jpg,stim_02/c.jpg,1,2,f,4,55,295,24,f,1,0.549848761104,02,02,60.026184119,PLT_learning_02,B,2014_Mrz_14_1515,P24,
stim_fb/ques.jpg,stim_fb/negf.jpg,stim_fb/posf.jpg,stim_02/e.jpg,stim_02/f.jpg,2,3,j,4,56,296,53,j,1,0.599857397097,02,02,60.026184119,PLT_learning_02,B,2014_Mrz_14_1515,P24,
stim_fb/ques.jpg,stim_fb/negf.jpg,stim_fb/posf.jpg,stim_02/b.jpg,stim_02/a.jpg,1,1,f,4,57,297,1,f,1,0.466556614776,02,02,60.026184119,PLT_learning_02,B,2014_Mrz_14_1515,P24,
stim_fb/ques.jpg,stim_fb/negf.jpg,stim_fb/posf.jpg,stim_02/d.jpg,stim_02/c.jpg,1,2,f,4,58,298,26,f,1,0.61656648083,02,02,60.026184119,PLT_learning_02,B,2014_Mrz_14_1515,P24,
stim_fb/ques.jpg,stim_fb/negf.jpg,stim_fb/posf.jpg,stim_02/d.jpg,stim_02/c.jpg,1,2,f,4,59,299,21,f,1,0.483075526217,02,02,60.026184119,PLT_learning_02,B,2014_Mrz_14_1515,P24,
stim_fb/ques.jpg,stim_fb/negf.jpg,stim_fb/posf.jpg,stim_02/b.jpg,stim_02/a.jpg,1,1,f,5,0,300,0,f,1,0.649845798733,02,02,60.026184119,PLT_learning_02,B,2014_Mrz_14_1515,P24,
stim_fb/ques.jpg,stim_fb/negf.jpg,stim_fb/posf.jpg,stim_02/a.jpg,stim_02/b.jpg,2,1,j,5,1,301,14,j,1,0.616517004697,02,02,60.026184119,PLT_learning_02,B,2014_Mrz_14_1515,P24,
stim_fb/ques.jpg,stim_fb/posf.jpg,stim_fb/negf.jpg,stim_02/d.jpg,stim_02/c.jpg,1,2,f,5,2,302,28,f,1,0.499896356057,02,02,60.026184119,PLT_learning_02,B,2014_Mrz_14_1515,P24,
stim_fb/ques.jpg,stim_fb/negf.jpg,stim_fb/posf.jpg,stim_02/d.jpg,stim_02/c.jpg,1,2,f,5,3,303,23,f,1,0.483187967053,02,02,60.026184119,PLT_learning_02,B,2014_Mrz_14_1515,P24,
stim_fb/ques.jpg,stim_fb/negf.jpg,stim_fb/posf.jpg,stim_02/c.jpg,stim_02/d.jpg,2,2,j,5,4,304,32,j,1,0.533502716888,02,02,60.026184119,PLT_learning_02,B,2014_Mrz_14_1515,P24,
stim_fb/ques.jpg,stim_fb/posf.jpg,stim_fb/negf.jpg,stim_02/d.jpg,stim_02/c.jpg,1,2,f,5,5,305,29,f,1,0.466556401243,02,02,60.026184119,PLT_learning_02,B,2014_Mrz_14_1515,P24,
stim_fb/ques.jpg,stim_fb/posf.jpg,stim_fb/negf.jpg,stim_02/d.jpg,stim_02/c.jpg,1,2,f,5,6,306,27,f,1,0.433230542512,02,02,60.026184119,PLT_learning_02,B,2014_Mrz_14_1515,P24,
stim_fb/ques.jpg,stim_fb/negf.jpg,stim_fb/posf.jpg,stim_02/c.jpg,stim_02/d.jpg,2,2,j,5,7,307,36,j,1,0.466550449431,02,02,60.026184119,PLT_learning_02,B,2014_Mrz_14_1515,P24,
stim_fb/ques.jpg,stim_fb/negf.jpg,stim_fb/posf.jpg,stim_02/e.jpg,stim_02/f.jpg,2,3,j,5,8,308,53,j,1,0.649840198796,02,02,60.026184119,PLT_learning_02,B,2014_Mrz_14_1515,P24,
stim_fb/ques.jpg,stim_fb/negf.jpg,stim_fb/posf.jpg,stim_02/b.jpg,stim_02/a.jpg,1,1,f,5,9,309,2,f,1,0.833111250626,02,02,60.026184119,PLT_learning_02,B,2014_Mrz_14_1515,P24,
stim_fb/ques.jpg,stim_fb/negf.jpg,stim_fb/posf.jpg,stim_02/e.jpg,stim_02/f.jpg,2,3,j,5,10,310,55,j,1,0.549906760449,02,02,60.026184119,PLT_learning_02,B,2014_Mrz_14_1515,P24,
stim_fb/ques.jpg,stim_fb/negf.jpg,stim_fb/posf.jpg,stim_02/c.jpg,stim_02/d.jpg,2,2,j,5,11,311,33,j,1,0.816434184577,02,02,60.026184119,PLT_learning_02,B,2014_Mrz_14_1515,P24,
stim_fb/ques.jpg,stim_fb/negf.jpg,stim_fb/posf.jpg,stim_02/c.jpg,stim_02/d.jpg,2,2,j,5,12,312,34,j,1,0.466547565253,02,02,60.026184119,PLT_learning_02,B,2014_Mrz_14_1515,P24,
stim_fb/ques.jpg,stim_fb/negf.jpg,stim_fb/posf.jpg,stim_02/f.jpg,stim_02/e.jpg,1,3,f,5,13,313,44,f,1,0.583173272482,02,02,60.026184119,PLT_learning_02,B,2014_Mrz_14_1515,P24,
stim_fb/ques.jpg,stim_fb/negf.jpg,stim_fb/posf.jpg,stim_02/c.jpg,stim_02/d.jpg,2,2,j,5,14,314,30,j,1,0.69979079033,02,02,60.026184119,PLT_learning_02,B,2014_Mrz_14_1515,P24,
stim_fb/ques.jpg,stim_fb/negf.jpg,stim_fb/posf.jpg,stim_02/b.jpg,stim_02/a.jpg,1,1,f,5,15,315,6,f,1,0.59980408642,02,02,60.026184119,PLT_learning_02,B,2014_Mrz_14_1515,P24,
stim_fb/ques.jpg,stim_fb/posf.jpg,stim_fb/negf.jpg,stim_02/e.jpg,stim_02/f.jpg,2,3,j,5,16,316,58,j,1,0.616502060502,02,02,60.026184119,PLT_learning_02,B,2014_Mrz_14_1515,P24,
stim_fb/ques.jpg,stim_fb/posf.jpg,stim_fb/negf.jpg,stim_02/c.jpg,stim_02/d.jpg,2,2,j,5,17,317,39,j,1,0.633153974955,02,02,60.026184119,PLT_learning_02,B,2014_Mrz_14_1515,P24,
stim_fb/ques.jpg,stim_fb/negf.jpg,stim_fb/posf.jpg,stim_02/a.jpg,stim_02/b.jpg,2,1,j,5,18,318,11,j,1,0.566520651271,02,02,60.026184119,PLT_learning_02,B,2014_Mrz_14_1515,P24,
stim_fb/ques.jpg,stim_fb/negf.jpg,stim_fb/posf.jpg,stim_02/a.jpg,stim_02/b.jpg,2,1,j,5,19,319,12,j,1,0.616494265101,02,02,60.026184119,PLT_learning_02,B,2014_Mrz_14_1515,P24,
stim_fb/ques.jpg,stim_fb/negf.jpg,stim_fb/posf.jpg,stim_02/b.jpg,stim_02/a.jpg,1,1,f,5,20,320,3,f,1,0.549863443646,02,02,60.026184119,PLT_learning_02,B,2014_Mrz_14_1515,P24,
stim_fb/ques.jpg,stim_fb/posf.jpg,stim_fb/negf.jpg,stim_02/c.jpg,stim_02/d.jpg,2,2,j,5,21,321,38,j,1,0.716489411021,02,02,60.026184119,PLT_learning_02,B,2014_Mrz_14_1515,P24,
stim_fb/ques.jpg,stim_fb/negf.jpg,stim_fb/posf.jpg,stim_02/b.jpg,stim_02/a.jpg,1,1,f,5,22,322,1,f,1,0.533187063304,02,02,60.026184119,PLT_learning_02,B,2014_Mrz_14_1515,P24,
stim_fb/ques.jpg,stim_fb/posf.jpg,stim_fb/negf.jpg,stim_02/e.jpg,stim_02/f.jpg,2,3,j,5,23,323,59,j,1,0.599838892043,02,02,60.026184119,PLT_learning_02,B,2014_Mrz_14_1515,P24,
stim_fb/ques.jpg,stim_fb/posf.jpg,stim_fb/negf.jpg,stim_02/f.jpg,stim_02/e.jpg,1,3,f,5,24,324,47,f,1,0.499882873501,02,02,60.026184119,PLT_learning_02,B,2014_Mrz_14_1515,P24,
stim_fb/ques.jpg,stim_fb/negf.jpg,stim_fb/posf.jpg,stim_02/e.jpg,stim_02/f.jpg,2,3,j,5,25,325,52,j,1,0.516553677966,02,02,60.026184119,PLT_learning_02,B,2014_Mrz_14_1515,P24,
stim_fb/ques.jpg,stim_fb/posf.jpg,stim_fb/negf.jpg,stim_02/f.jpg,stim_02/e.jpg,1,3,f,5,26,326,46,f,1,0.483209455533,02,02,60.026184119,PLT_learning_02,B,2014_Mrz_14_1515,P24,
stim_fb/ques.jpg,stim_fb/negf.jpg,stim_fb/posf.jpg,stim_02/d.jpg,stim_02/c.jpg,1,2,f,5,27,327,22,f,1,0.69986558347,02,02,60.026184119,PLT_learning_02,B,2014_Mrz_14_1515,P24,
stim_fb/ques.jpg,stim_fb/negf.jpg,stim_fb/posf.jpg,stim_02/d.jpg,stim_02/c.jpg,1,2,f,5,28,328,26,f,1,0.416600757133,02,02,60.026184119,PLT_learning_02,B,2014_Mrz_14_1515,P24,
stim_fb/ques.jpg,stim_fb/negf.jpg,stim_fb/posf.jpg,stim_02/c.jpg,stim_02/d.jpg,2,2,j,5,29,329,31,j,1,0.449896447784,02,02,60.026184119,PLT_learning_02,B,2014_Mrz_14_1515,P24,
stim_fb/ques.jpg,stim_fb/negf.jpg,stim_fb/posf.jpg,stim_02/c.jpg,stim_02/d.jpg,2,2,j,5,30,330,35,j,1,0.71651206039,02,02,60.026184119,PLT_learning_02,B,2014_Mrz_14_1515,P24,
stim_fb/ques.jpg,stim_fb/posf.jpg,stim_fb/negf.jpg,stim_02/f.jpg,stim_02/e.jpg,1,3,f,5,31,331,48,f,1,0.583121321188,02,02,60.026184119,PLT_learning_02,B,2014_Mrz_14_1515,P24,
stim_fb/ques.jpg,stim_fb/negf.jpg,stim_fb/posf.jpg,stim_02/f.jpg,stim_02/e.jpg,1,3,f,5,32,332,45,f,1,0.516584110705,02,02,60.026184119,PLT_learning_02,B,2014_Mrz_14_1515,P24,
stim_fb/ques.jpg,stim_fb/posf.jpg,stim_fb/negf.jpg,stim_02/c.jpg,stim_02/d.jpg,2,2,j,5,33,333,37,j,1,1.06621674192,02,02,60.026184119,PLT_learning_02,B,2014_Mrz_14_1515,P24,
stim_fb/ques.jpg,stim_fb/negf.jpg,stim_fb/posf.jpg,stim_02/e.jpg,stim_02/f.jpg,2,3,j,5,34,334,50,j,1,0.583184270856,02,02,60.026184119,PLT_learning_02,B,2014_Mrz_14_1515,P24,
stim_fb/ques.jpg,stim_fb/negf.jpg,stim_fb/posf.jpg,stim_02/a.jpg,stim_02/b.jpg,2,1,j,5,35,335,10,j,1,0.583140602173,02,02,60.026184119,PLT_learning_02,B,2014_Mrz_14_1515,P24,
stim_fb/ques.jpg,stim_fb/negf.jpg,stim_fb/posf.jpg,stim_02/d.jpg,stim_02/c.jpg,1,2,f,5,36,336,24,f,1,0.583192914366,02,02,60.026184119,PLT_learning_02,B,2014_Mrz_14_1515,P24,
stim_fb/ques.jpg,stim_fb/negf.jpg,stim_fb/posf.jpg,stim_02/e.jpg,stim_02/f.jpg,2,3,j,5,37,337,51,j,1,0.599836461995,02,02,60.026184119,PLT_learning_02,B,2014_Mrz_14_1515,P24,
stim_fb/ques.jpg,stim_fb/posf.jpg,stim_fb/negf.jpg,stim_02/b.jpg,stim_02/a.jpg,1,1,f,5,38,338,9,f,1,0.549875461555,02,02,60.026184119,PLT_learning_02,B,2014_Mrz_14_1515,P24,
stim_fb/ques.jpg,stim_fb/negf.jpg,stim_fb/posf.jpg,stim_02/a.jpg,stim_02/b.jpg,2,1,j,5,39,339,15,j,1,0.566573369473,02,02,60.026184119,PLT_learning_02,B,2014_Mrz_14_1515,P24,
stim_fb/ques.jpg,stim_fb/negf.jpg,stim_fb/posf.jpg,stim_02/f.jpg,stim_02/e.jpg,1,3,f,5,40,340,41,f,1,0.483217539651,02,02,60.026184119,PLT_learning_02,B,2014_Mrz_14_1515,P24,
stim_fb/ques.jpg,stim_fb/negf.jpg,stim_fb/posf.jpg,stim_02/d.jpg,stim_02/c.jpg,1,2,f,5,41,341,21,f,1,0.633189634704,02,02,60.026184119,PLT_learning_02,B,2014_Mrz_14_1515,P24,
stim_fb/ques.jpg,stim_fb/negf.jpg,stim_fb/posf.jpg,stim_02/a.jpg,stim_02/b.jpg,2,1,j,5,42,342,13,j,1,0.633143394623,02,02,60.026184119,PLT_learning_02,B,2014_Mrz_14_1515,P24,
stim_fb/ques.jpg,stim_fb/negf.jpg,stim_fb/posf.jpg,stim_02/a.jpg,stim_02/b.jpg,2,1,j,5,43,343,16,j,1,0.54985162423,02,02,60.026184119,PLT_learning_02,B,2014_Mrz_14_1515,P24,
stim_fb/ques.jpg,stim_fb/negf.jpg,stim_fb/posf.jpg,stim_02/b.jpg,stim_02/a.jpg,1,1,f,5,44,344,4,f,1,0.549877238978,02,02,60.026184119,PLT_learning_02,B,2014_Mrz_14_1515,P24,
stim_fb/ques.jpg,stim_fb/negf.jpg,stim_fb/posf.jpg,stim_02/f.jpg,stim_02/e.jpg,1,3,f,5,45,345,42,f,1,0.633170449957,02,02,60.026184119,PLT_learning_02,B,2014_Mrz_14_1515,P24,
stim_fb/ques.jpg,stim_fb/posf.jpg,stim_fb/negf.jpg,stim_02/e.jpg,stim_02/f.jpg,2,3,j,5,46,346,57,j,1,0.599823659131,02,02,60.026184119,PLT_learning_02,B,2014_Mrz_14_1515,P24,
stim_fb/ques.jpg,stim_fb/negf.jpg,stim_fb/posf.jpg,stim_02/a.jpg,stim_02/b.jpg,2,1,j,5,47,347,17,j,1,0.616502400349,02,02,60.026184119,PLT_learning_02,B,2014_Mrz_14_1515,P24,
stim_fb/ques.jpg,stim_fb/posf.jpg,stim_fb/negf.jpg,stim_02/a.jpg,stim_02/b.jpg,2,1,j,5,48,348,19,j,1,0.549819723838,02,02,60.026184119,PLT_learning_02,B,2014_Mrz_14_1515,P24,
stim_fb/ques.jpg,stim_fb/negf.jpg,stim_fb/posf.jpg,stim_02/d.jpg,stim_02/c.jpg,1,2,f,5,49,349,25,f,1,0.633104537919,02,02,60.026184119,PLT_learning_02,B,2014_Mrz_14_1515,P24,
stim_fb/ques.jpg,stim_fb/negf.jpg,stim_fb/posf.jpg,stim_02/f.jpg,stim_02/e.jpg,1,3,f,5,50,350,40,f,1,0.533176161172,02,02,60.026184119,PLT_learning_02,B,2014_Mrz_14_1515,P24,
stim_fb/ques.jpg,stim_fb/posf.jpg,stim_fb/negf.jpg,stim_02/a.jpg,stim_02/b.jpg,2,1,j,5,51,351,18,j,1,0.699777250633,02,02,60.026184119,PLT_learning_02,B,2014_Mrz_14_1515,P24,
stim_fb/ques.jpg,stim_fb/negf.jpg,stim_fb/posf.jpg,stim_02/b.jpg,stim_02/a.jpg,1,1,f,5,52,352,7,f,1,0.44989012605,02,02,60.026184119,PLT_learning_02,B,2014_Mrz_14_1515,P24,
stim_fb/ques.jpg,stim_fb/negf.jpg,stim_fb/posf.jpg,stim_02/f.jpg,stim_02/e.jpg,1,3,f,5,53,353,43,f,1,0.633190299359,02,02,60.026184119,PLT_learning_02,B,2014_Mrz_14_1515,P24,
stim_fb/ques.jpg,stim_fb/posf.jpg,stim_fb/negf.jpg,stim_02/e.jpg,stim_02/f.jpg,2,3,j,5,54,354,56,j,1,0.56647871791,02,02,60.026184119,PLT_learning_02,B,2014_Mrz_14_1515,P24,
stim_fb/ques.jpg,stim_fb/negf.jpg,stim_fb/posf.jpg,stim_02/e.jpg,stim_02/f.jpg,2,3,j,5,55,355,54,j,1,0.566513929543,02,02,60.026184119,PLT_learning_02,B,2014_Mrz_14_1515,P24,
stim_fb/ques.jpg,stim_fb/posf.jpg,stim_fb/negf.jpg,stim_02/f.jpg,stim_02/e.jpg,1,3,f,5,56,356,49,f,1,0.44986721804,02,02,60.026184119,PLT_learning_02,B,2014_Mrz_14_1515,P24,
stim_fb/ques.jpg,stim_fb/negf.jpg,stim_fb/posf.jpg,stim_02/d.jpg,stim_02/c.jpg,1,2,f,5,57,357,20,f,1,0.549856261772,02,02,60.026184119,PLT_learning_02,B,2014_Mrz_14_1515,P24,
stim_fb/ques.jpg,stim_fb/posf.jpg,stim_fb/negf.jpg,stim_02/b.jpg,stim_02/a.jpg,1,1,f,5,58,358,8,f,1,0.466601026304,02,02,60.026184119,PLT_learning_02,B,2014_Mrz_14_1515,P24,
stim_fb/ques.jpg,stim_fb/negf.jpg,stim_fb/posf.jpg,stim_02/b.jpg,stim_02/a.jpg,1,1,f,5,59,359,5,f,1,0.46656499062,02,02,60.026184119,PLT_learning_02,B,2014_Mrz_14_1515,P24,
