Fb3,Fb2,Fb1,Symbol2,Symbol1,PosCond,Pair,Correct,trials.thisRepN,trials.thisTrialN,trials.thisN,trials.thisIndex,Response.keys,Response.corr,Response.rt,Version,Session Number,frameRate,expName,StimCondition,date,Participant,
stim_fb/ques.jpg,stim_fb/negf.jpg,stim_fb/posf.jpg,stim_03/a.jpg,stim_03/b.jpg,2,1,j,0,0,0,17,f,0,1.149649825,03,03,60.0232280953,PLT_learning_3,B,2014_Mrz_25_1802,P25,
stim_fb/ques.jpg,stim_fb/negf.jpg,stim_fb/posf.jpg,stim_03/e.jpg,stim_03/f.jpg,2,3,j,0,1,1,52,f,0,1.01632860081,03,03,60.0232280953,PLT_learning_3,B,2014_Mrz_25_1802,P25,
stim_fb/ques.jpg,stim_fb/negf.jpg,stim_fb/posf.jpg,stim_03/a.jpg,stim_03/b.jpg,2,1,j,0,2,2,11,f,0,1.13300674654,03,03,60.0232280953,PLT_learning_3,B,2014_Mrz_25_1802,P25,
stim_fb/ques.jpg,stim_fb/negf.jpg,stim_fb/posf.jpg,stim_03/c.jpg,stim_03/d.jpg,2,2,j,0,3,3,36,f,0,1.16626843156,03,03,60.0232280953,PLT_learning_3,B,2014_Mrz_25_1802,P25,
stim_fb/ques.jpg,stim_fb/negf.jpg,stim_fb/posf.jpg,stim_03/f.jpg,stim_03/e.jpg,1,3,f,0,4,4,43,j,0,1.03302859291,03,03,60.0232280953,PLT_learning_3,B,2014_Mrz_25_1802,P25,
stim_fb/ques.jpg,stim_fb/negf.jpg,stim_fb/posf.jpg,stim_03/d.jpg,stim_03/c.jpg,1,2,f,0,5,5,24,f,1,1.41626895035,03,03,60.0232280953,PLT_learning_3,B,2014_Mrz_25_1802,P25,
stim_fb/ques.jpg,stim_fb/negf.jpg,stim_fb/posf.jpg,stim_03/a.jpg,stim_03/b.jpg,2,1,j,0,6,6,14,f,0,1.13300229246,03,03,60.0232280953,PLT_learning_3,B,2014_Mrz_25_1802,P25,
stim_fb/ques.jpg,stim_fb/negf.jpg,stim_fb/posf.jpg,stim_03/d.jpg,stim_03/c.jpg,1,2,f,0,7,7,22,f,1,1.06636210569,03,03,60.0232280953,PLT_learning_3,B,2014_Mrz_25_1802,P25,
stim_fb/ques.jpg,stim_fb/negf.jpg,stim_fb/posf.jpg,stim_03/f.jpg,stim_03/e.jpg,1,3,f,0,8,8,41,j,0,1.09969423503,03,03,60.0232280953,PLT_learning_3,B,2014_Mrz_25_1802,P25,
stim_fb/ques.jpg,stim_fb/posf.jpg,stim_fb/negf.jpg,stim_03/e.jpg,stim_03/f.jpg,2,3,j,0,9,9,59,f,0,0.966409593879,03,03,60.0232280953,PLT_learning_3,B,2014_Mrz_25_1802,P25,
stim_fb/ques.jpg,stim_fb/posf.jpg,stim_fb/negf.jpg,stim_03/a.jpg,stim_03/b.jpg,2,1,j,0,10,10,19,f,0,1.18300573453,03,03,60.0232280953,PLT_learning_3,B,2014_Mrz_25_1802,P25,
stim_fb/ques.jpg,stim_fb/negf.jpg,stim_fb/posf.jpg,stim_03/c.jpg,stim_03/d.jpg,2,2,j,0,11,11,31,f,0,0.933056243728,03,03,60.0232280953,PLT_learning_3,B,2014_Mrz_25_1802,P25,
stim_fb/ques.jpg,stim_fb/posf.jpg,stim_fb/negf.jpg,stim_03/b.jpg,stim_03/a.jpg,1,1,f,0,12,12,8,j,0,0.949727730891,03,03,60.0232280953,PLT_learning_3,B,2014_Mrz_25_1802,P25,
stim_fb/ques.jpg,stim_fb/negf.jpg,stim_fb/posf.jpg,stim_03/e.jpg,stim_03/f.jpg,2,3,j,0,13,13,53,f,0,1.04972374898,03,03,60.0232280953,PLT_learning_3,B,2014_Mrz_25_1802,P25,
stim_fb/ques.jpg,stim_fb/negf.jpg,stim_fb/posf.jpg,stim_03/c.jpg,stim_03/d.jpg,2,2,j,0,14,14,30,f,0,1.23298544753,03,03,60.0232280953,PLT_learning_3,B,2014_Mrz_25_1802,P25,
stim_fb/ques.jpg,stim_fb/negf.jpg,stim_fb/posf.jpg,stim_03/a.jpg,stim_03/b.jpg,2,1,j,0,15,15,10,j,1,0.766468059384,03,03,60.0232280953,PLT_learning_3,B,2014_Mrz_25_1802,P25,
stim_fb/ques.jpg,stim_fb/posf.jpg,stim_fb/negf.jpg,stim_03/e.jpg,stim_03/f.jpg,2,3,j,0,16,16,58,j,1,0.733119740755,03,03,60.0232280953,PLT_learning_3,B,2014_Mrz_25_1802,P25,
stim_fb/ques.jpg,stim_fb/negf.jpg,stim_fb/posf.jpg,stim_03/b.jpg,stim_03/a.jpg,1,1,f,0,17,17,7,f,1,0.833099813157,03,03,60.0232280953,PLT_learning_3,B,2014_Mrz_25_1802,P25,
stim_fb/ques.jpg,stim_fb/negf.jpg,stim_fb/posf.jpg,stim_03/c.jpg,stim_03/d.jpg,2,2,j,0,18,18,35,j,1,1.1330300335,03,03,60.0232280953,PLT_learning_3,B,2014_Mrz_25_1802,P25,
stim_fb/ques.jpg,stim_fb/negf.jpg,stim_fb/posf.jpg,stim_03/f.jpg,stim_03/e.jpg,1,3,f,0,19,19,44,f,1,0.766460396313,03,03,60.0232280953,PLT_learning_3,B,2014_Mrz_25_1802,P25,
stim_fb/ques.jpg,stim_fb/posf.jpg,stim_fb/negf.jpg,stim_03/a.jpg,stim_03/b.jpg,2,1,j,0,20,20,18,f,0,0.833112862634,03,03,60.0232280953,PLT_learning_3,B,2014_Mrz_25_1802,P25,
stim_fb/ques.jpg,stim_fb/posf.jpg,stim_fb/negf.jpg,stim_03/c.jpg,stim_03/d.jpg,2,2,j,0,21,21,39,j,1,0.783110788976,03,03,60.0232280953,PLT_learning_3,B,2014_Mrz_25_1802,P25,
stim_fb/ques.jpg,stim_fb/posf.jpg,stim_fb/negf.jpg,stim_03/f.jpg,stim_03/e.jpg,1,3,f,0,22,22,48,j,0,0.79976112751,03,03,60.0232280953,PLT_learning_3,B,2014_Mrz_25_1802,P25,
stim_fb/ques.jpg,stim_fb/negf.jpg,stim_fb/posf.jpg,stim_03/d.jpg,stim_03/c.jpg,1,2,f,0,23,23,20,f,1,0.966403269136,03,03,60.0232280953,PLT_learning_3,B,2014_Mrz_25_1802,P25,
stim_fb/ques.jpg,stim_fb/negf.jpg,stim_fb/posf.jpg,stim_03/d.jpg,stim_03/c.jpg,1,2,f,0,24,24,23,j,0,0.899791876032,03,03,60.0232280953,PLT_learning_3,B,2014_Mrz_25_1802,P25,
stim_fb/ques.jpg,stim_fb/posf.jpg,stim_fb/negf.jpg,stim_03/d.jpg,stim_03/c.jpg,1,2,f,0,25,25,27,j,0,0.866425274904,03,03,60.0232280953,PLT_learning_3,B,2014_Mrz_25_1802,P25,
stim_fb/ques.jpg,stim_fb/negf.jpg,stim_fb/posf.jpg,stim_03/b.jpg,stim_03/a.jpg,1,1,f,0,26,26,4,j,0,1.01637515066,03,03,60.0232280953,PLT_learning_3,B,2014_Mrz_25_1802,P25,
stim_fb/ques.jpg,stim_fb/negf.jpg,stim_fb/posf.jpg,stim_03/e.jpg,stim_03/f.jpg,2,3,j,0,27,27,51,f,0,0.799734649609,03,03,60.0232280953,PLT_learning_3,B,2014_Mrz_25_1802,P25,
stim_fb/ques.jpg,stim_fb/posf.jpg,stim_fb/negf.jpg,stim_03/d.jpg,stim_03/c.jpg,1,2,f,0,28,28,29,j,0,0.733148904335,03,03,60.0232280953,PLT_learning_3,B,2014_Mrz_25_1802,P25,
stim_fb/ques.jpg,stim_fb/negf.jpg,stim_fb/posf.jpg,stim_03/b.jpg,stim_03/a.jpg,1,1,f,0,29,29,6,f,1,1.26630150487,03,03,60.0232280953,PLT_learning_3,B,2014_Mrz_25_1802,P25,
stim_fb/ques.jpg,stim_fb/posf.jpg,stim_fb/negf.jpg,stim_03/e.jpg,stim_03/f.jpg,2,3,j,0,30,30,56,j,1,0.783153450149,03,03,60.0232280953,PLT_learning_3,B,2014_Mrz_25_1802,P25,
stim_fb/ques.jpg,stim_fb/negf.jpg,stim_fb/posf.jpg,stim_03/f.jpg,stim_03/e.jpg,1,3,f,0,31,31,40,j,0,0.799755720047,03,03,60.0232280953,PLT_learning_3,B,2014_Mrz_25_1802,P25,
stim_fb/ques.jpg,stim_fb/negf.jpg,stim_fb/posf.jpg,stim_03/a.jpg,stim_03/b.jpg,2,1,j,0,32,32,15,j,1,0.899745858504,03,03,60.0232280953,PLT_learning_3,B,2014_Mrz_25_1802,P25,
stim_fb/ques.jpg,stim_fb/negf.jpg,stim_fb/posf.jpg,stim_03/a.jpg,stim_03/b.jpg,2,1,j,0,33,33,12,j,1,1.13302278846,03,03,60.0232280953,PLT_learning_3,B,2014_Mrz_25_1802,P25,
stim_fb/ques.jpg,stim_fb/negf.jpg,stim_fb/posf.jpg,stim_03/b.jpg,stim_03/a.jpg,1,1,f,0,34,34,5,f,1,0.866433948489,03,03,60.0232280953,PLT_learning_3,B,2014_Mrz_25_1802,P25,
stim_fb/ques.jpg,stim_fb/negf.jpg,stim_fb/posf.jpg,stim_03/c.jpg,stim_03/d.jpg,2,2,j,0,35,35,32,j,1,1.03304405138,03,03,60.0232280953,PLT_learning_3,B,2014_Mrz_25_1802,P25,
stim_fb/ques.jpg,stim_fb/negf.jpg,stim_fb/posf.jpg,stim_03/e.jpg,stim_03/f.jpg,2,3,j,0,36,36,50,f,0,1.06635859596,03,03,60.0232280953,PLT_learning_3,B,2014_Mrz_25_1802,P25,
stim_fb/ques.jpg,stim_fb/negf.jpg,stim_fb/posf.jpg,stim_03/c.jpg,stim_03/d.jpg,2,2,j,0,37,37,34,j,1,0.816439925868,03,03,60.0232280953,PLT_learning_3,B,2014_Mrz_25_1802,P25,
stim_fb/ques.jpg,stim_fb/posf.jpg,stim_fb/negf.jpg,stim_03/d.jpg,stim_03/c.jpg,1,2,f,0,38,38,28,f,1,0.76643014402,03,03,60.0232280953,PLT_learning_3,B,2014_Mrz_25_1802,P25,
stim_fb/ques.jpg,stim_fb/negf.jpg,stim_fb/posf.jpg,stim_03/b.jpg,stim_03/a.jpg,1,1,f,0,39,39,2,f,1,0.83310876945,03,03,60.0232280953,PLT_learning_3,B,2014_Mrz_25_1802,P25,
stim_fb/ques.jpg,stim_fb/posf.jpg,stim_fb/negf.jpg,stim_03/c.jpg,stim_03/d.jpg,2,2,j,0,40,40,38,j,1,0.766504251453,03,03,60.0232280953,PLT_learning_3,B,2014_Mrz_25_1802,P25,
stim_fb/ques.jpg,stim_fb/posf.jpg,stim_fb/negf.jpg,stim_03/f.jpg,stim_03/e.jpg,1,3,f,0,41,41,47,f,1,0.533189481321,03,03,60.0232280953,PLT_learning_3,B,2014_Mrz_25_1802,P25,
stim_fb/ques.jpg,stim_fb/negf.jpg,stim_fb/posf.jpg,stim_03/d.jpg,stim_03/c.jpg,1,2,f,0,42,42,26,j,0,0.233297678598,03,03,60.0232280953,PLT_learning_3,B,2014_Mrz_25_1802,P25,
stim_fb/ques.jpg,stim_fb/negf.jpg,stim_fb/posf.jpg,stim_03/c.jpg,stim_03/d.jpg,2,2,j,0,43,43,33,f,0,1.01636601993,03,03,60.0232280953,PLT_learning_3,B,2014_Mrz_25_1802,P25,
stim_fb/ques.jpg,stim_fb/posf.jpg,stim_fb/negf.jpg,stim_03/e.jpg,stim_03/f.jpg,2,3,j,0,44,44,57,f,0,0.98305204678,03,03,60.0232280953,PLT_learning_3,B,2014_Mrz_25_1802,P25,
stim_fb/ques.jpg,stim_fb/negf.jpg,stim_fb/posf.jpg,stim_03/f.jpg,stim_03/e.jpg,1,3,f,0,45,45,45,j,0,0.783122653502,03,03,60.0232280953,PLT_learning_3,B,2014_Mrz_25_1802,P25,
stim_fb/ques.jpg,stim_fb/negf.jpg,stim_fb/posf.jpg,stim_03/f.jpg,stim_03/e.jpg,1,3,f,0,46,46,42,f,1,0.766484278749,03,03,60.0232280953,PLT_learning_3,B,2014_Mrz_25_1802,P25,
stim_fb/ques.jpg,stim_fb/negf.jpg,stim_fb/posf.jpg,stim_03/e.jpg,stim_03/f.jpg,2,3,j,0,47,47,55,f,0,1.23299591057,03,03,60.0232280953,PLT_learning_3,B,2014_Mrz_25_1802,P25,
stim_fb/ques.jpg,stim_fb/posf.jpg,stim_fb/negf.jpg,stim_03/f.jpg,stim_03/e.jpg,1,3,f,0,48,48,49,f,1,1.06637583185,03,03,60.0232280953,PLT_learning_3,B,2014_Mrz_25_1802,P25,
stim_fb/ques.jpg,stim_fb/negf.jpg,stim_fb/posf.jpg,stim_03/b.jpg,stim_03/a.jpg,1,1,f,0,49,49,3,j,0,0.81644625662,03,03,60.0232280953,PLT_learning_3,B,2014_Mrz_25_1802,P25,
stim_fb/ques.jpg,stim_fb/negf.jpg,stim_fb/posf.jpg,stim_03/a.jpg,stim_03/b.jpg,2,1,j,0,50,50,16,j,1,0.983027331273,03,03,60.0232280953,PLT_learning_3,B,2014_Mrz_25_1802,P25,
stim_fb/ques.jpg,stim_fb/negf.jpg,stim_fb/posf.jpg,stim_03/b.jpg,stim_03/a.jpg,1,1,f,0,51,51,1,f,1,0.949732909779,03,03,60.0232280953,PLT_learning_3,B,2014_Mrz_25_1802,P25,
stim_fb/ques.jpg,stim_fb/negf.jpg,stim_fb/posf.jpg,stim_03/a.jpg,stim_03/b.jpg,2,1,j,0,52,52,13,j,1,0.83311484156,03,03,60.0232280953,PLT_learning_3,B,2014_Mrz_25_1802,P25,
stim_fb/ques.jpg,stim_fb/negf.jpg,stim_fb/posf.jpg,stim_03/e.jpg,stim_03/f.jpg,2,3,j,0,53,53,54,j,1,1.14969162603,03,03,60.0232280953,PLT_learning_3,B,2014_Mrz_25_1802,P25,
stim_fb/ques.jpg,stim_fb/negf.jpg,stim_fb/posf.jpg,stim_03/d.jpg,stim_03/c.jpg,1,2,f,0,54,54,21,f,1,1.11633085341,03,03,60.0232280953,PLT_learning_3,B,2014_Mrz_25_1802,P25,
stim_fb/ques.jpg,stim_fb/posf.jpg,stim_fb/negf.jpg,stim_03/f.jpg,stim_03/e.jpg,1,3,f,0,55,55,46,f,1,1.08302024864,03,03,60.0232280953,PLT_learning_3,B,2014_Mrz_25_1802,P25,
stim_fb/ques.jpg,stim_fb/posf.jpg,stim_fb/negf.jpg,stim_03/b.jpg,stim_03/a.jpg,1,1,f,0,56,56,9,j,0,1.01639568276,03,03,60.0232280953,PLT_learning_3,B,2014_Mrz_25_1802,P25,
stim_fb/ques.jpg,stim_fb/negf.jpg,stim_fb/posf.jpg,stim_03/b.jpg,stim_03/a.jpg,1,1,f,0,57,57,0,f,1,1.08303119589,03,03,60.0232280953,PLT_learning_3,B,2014_Mrz_25_1802,P25,
stim_fb/ques.jpg,stim_fb/posf.jpg,stim_fb/negf.jpg,stim_03/c.jpg,stim_03/d.jpg,2,2,j,0,58,58,37,j,1,0.866358337313,03,03,60.0232280953,PLT_learning_3,B,2014_Mrz_25_1802,P25,
stim_fb/ques.jpg,stim_fb/negf.jpg,stim_fb/posf.jpg,stim_03/d.jpg,stim_03/c.jpg,1,2,f,0,59,59,25,f,1,0.616515943053,03,03,60.0232280953,PLT_learning_3,B,2014_Mrz_25_1802,P25,
stim_fb/ques.jpg,stim_fb/negf.jpg,stim_fb/posf.jpg,stim_03/b.jpg,stim_03/a.jpg,1,1,f,1,0,60,4,f,1,1.19966556467,03,03,60.0232280953,PLT_learning_3,B,2014_Mrz_25_1802,P25,
stim_fb/ques.jpg,stim_fb/negf.jpg,stim_fb/posf.jpg,stim_03/c.jpg,stim_03/d.jpg,2,2,j,1,1,61,35,f,0,0.933101106377,03,03,60.0232280953,PLT_learning_3,B,2014_Mrz_25_1802,P25,
stim_fb/ques.jpg,stim_fb/negf.jpg,stim_fb/posf.jpg,stim_03/b.jpg,stim_03/a.jpg,1,1,f,1,2,62,3,f,1,0.699805884895,03,03,60.0232280953,PLT_learning_3,B,2014_Mrz_25_1802,P25,
stim_fb/ques.jpg,stim_fb/posf.jpg,stim_fb/negf.jpg,stim_03/f.jpg,stim_03/e.jpg,1,3,f,1,3,63,46,j,0,0.799784182884,03,03,60.0232280953,PLT_learning_3,B,2014_Mrz_25_1802,P25,
stim_fb/ques.jpg,stim_fb/negf.jpg,stim_fb/posf.jpg,stim_03/a.jpg,stim_03/b.jpg,2,1,j,1,4,64,11,f,0,0.766447223526,03,03,60.0232280953,PLT_learning_3,B,2014_Mrz_25_1802,P25,
stim_fb/ques.jpg,stim_fb/negf.jpg,stim_fb/posf.jpg,stim_03/a.jpg,stim_03/b.jpg,2,1,j,1,5,65,12,j,1,0.58315773281,03,03,60.0232280953,PLT_learning_3,B,2014_Mrz_25_1802,P25,
stim_fb/ques.jpg,stim_fb/posf.jpg,stim_fb/negf.jpg,stim_03/e.jpg,stim_03/f.jpg,2,3,j,1,6,66,58,f,0,0.649854764044,03,03,60.0232280953,PLT_learning_3,B,2014_Mrz_25_1802,P25,
stim_fb/ques.jpg,stim_fb/negf.jpg,stim_fb/posf.jpg,stim_03/e.jpg,stim_03/f.jpg,2,3,j,1,7,67,52,j,1,0.833123734694,03,03,60.0232280953,PLT_learning_3,B,2014_Mrz_25_1802,P25,
stim_fb/ques.jpg,stim_fb/posf.jpg,stim_fb/negf.jpg,stim_03/f.jpg,stim_03/e.jpg,1,3,f,1,8,68,49,f,1,0.86644301004,03,03,60.0232280953,PLT_learning_3,B,2014_Mrz_25_1802,P25,
stim_fb/ques.jpg,stim_fb/posf.jpg,stim_fb/negf.jpg,stim_03/c.jpg,stim_03/d.jpg,2,2,j,1,9,69,38,f,0,0.850041721333,03,03,60.0232280953,PLT_learning_3,B,2014_Mrz_25_1802,P25,
stim_fb/ques.jpg,stim_fb/negf.jpg,stim_fb/posf.jpg,stim_03/d.jpg,stim_03/c.jpg,1,2,f,1,10,70,24,f,1,0.916393917363,03,03,60.0232280953,PLT_learning_3,B,2014_Mrz_25_1802,P25,
stim_fb/ques.jpg,stim_fb/posf.jpg,stim_fb/negf.jpg,stim_03/a.jpg,stim_03/b.jpg,2,1,j,1,11,71,18,j,1,0.766480363003,03,03,60.0232280953,PLT_learning_3,B,2014_Mrz_25_1802,P25,
stim_fb/ques.jpg,stim_fb/negf.jpg,stim_fb/posf.jpg,stim_03/f.jpg,stim_03/e.jpg,1,3,f,1,12,72,41,f,1,0.733142396137,03,03,60.0232280953,PLT_learning_3,B,2014_Mrz_25_1802,P25,
stim_fb/ques.jpg,stim_fb/negf.jpg,stim_fb/posf.jpg,stim_03/c.jpg,stim_03/d.jpg,2,2,j,1,13,73,33,j,1,0.699794733144,03,03,60.0232280953,PLT_learning_3,B,2014_Mrz_25_1802,P25,
stim_fb/ques.jpg,stim_fb/negf.jpg,stim_fb/posf.jpg,stim_03/e.jpg,stim_03/f.jpg,2,3,j,1,14,74,53,j,1,0.833138648813,03,03,60.0232280953,PLT_learning_3,B,2014_Mrz_25_1802,P25,
stim_fb/ques.jpg,stim_fb/negf.jpg,stim_fb/posf.jpg,stim_03/b.jpg,stim_03/a.jpg,1,1,f,1,15,75,6,f,1,0.849743583345,03,03,60.0232280953,PLT_learning_3,B,2014_Mrz_25_1802,P25,
stim_fb/ques.jpg,stim_fb/posf.jpg,stim_fb/negf.jpg,stim_03/c.jpg,stim_03/d.jpg,2,2,j,1,16,76,39,j,1,0.849742651022,03,03,60.0232280953,PLT_learning_3,B,2014_Mrz_25_1802,P25,
stim_fb/ques.jpg,stim_fb/posf.jpg,stim_fb/negf.jpg,stim_03/a.jpg,stim_03/b.jpg,2,1,j,1,17,77,19,j,1,0.916420007292,03,03,60.0232280953,PLT_learning_3,B,2014_Mrz_25_1802,P25,
stim_fb/ques.jpg,stim_fb/negf.jpg,stim_fb/posf.jpg,stim_03/f.jpg,stim_03/e.jpg,1,3,f,1,18,78,40,f,1,0.649830839502,03,03,60.0232280953,PLT_learning_3,B,2014_Mrz_25_1802,P25,
stim_fb/ques.jpg,stim_fb/posf.jpg,stim_fb/negf.jpg,stim_03/d.jpg,stim_03/c.jpg,1,2,f,1,19,79,28,j,0,0.83313682026,03,03,60.0232280953,PLT_learning_3,B,2014_Mrz_25_1802,P25,
stim_fb/ques.jpg,stim_fb/negf.jpg,stim_fb/posf.jpg,stim_03/b.jpg,stim_03/a.jpg,1,1,f,1,20,80,5,f,1,0.733148071264,03,03,60.0232280953,PLT_learning_3,B,2014_Mrz_25_1802,P25,
stim_fb/ques.jpg,stim_fb/negf.jpg,stim_fb/posf.jpg,stim_03/e.jpg,stim_03/f.jpg,2,3,j,1,21,81,54,j,1,0.53317116273,03,03,60.0232280953,PLT_learning_3,B,2014_Mrz_25_1802,P25,
stim_fb/ques.jpg,stim_fb/negf.jpg,stim_fb/posf.jpg,stim_03/b.jpg,stim_03/a.jpg,1,1,f,1,22,82,2,f,1,0.499884975732,03,03,60.0232280953,PLT_learning_3,B,2014_Mrz_25_1802,P25,
stim_fb/ques.jpg,stim_fb/posf.jpg,stim_fb/negf.jpg,stim_03/b.jpg,stim_03/a.jpg,1,1,f,1,23,83,8,j,0,0.566526124894,03,03,60.0232280953,PLT_learning_3,B,2014_Mrz_25_1802,P25,
stim_fb/ques.jpg,stim_fb/negf.jpg,stim_fb/posf.jpg,stim_03/c.jpg,stim_03/d.jpg,2,2,j,1,24,84,31,j,1,0.766462447416,03,03,60.0232280953,PLT_learning_3,B,2014_Mrz_25_1802,P25,
stim_fb/ques.jpg,stim_fb/negf.jpg,stim_fb/posf.jpg,stim_03/d.jpg,stim_03/c.jpg,1,2,f,1,25,85,21,f,1,0.716492607979,03,03,60.0232280953,PLT_learning_3,B,2014_Mrz_25_1802,P25,
stim_fb/ques.jpg,stim_fb/negf.jpg,stim_fb/posf.jpg,stim_03/b.jpg,stim_03/a.jpg,1,1,f,1,26,86,1,j,0,1.36629497261,03,03,60.0232280953,PLT_learning_3,B,2014_Mrz_25_1802,P25,
stim_fb/ques.jpg,stim_fb/negf.jpg,stim_fb/posf.jpg,stim_03/c.jpg,stim_03/d.jpg,2,2,j,1,27,87,30,j,1,0.716470704469,03,03,60.0232280953,PLT_learning_3,B,2014_Mrz_25_1802,P25,
stim_fb/ques.jpg,stim_fb/negf.jpg,stim_fb/posf.jpg,stim_03/b.jpg,stim_03/a.jpg,1,1,f,1,28,88,7,f,1,0.749820430599,03,03,60.0232280953,PLT_learning_3,B,2014_Mrz_25_1802,P25,
stim_fb/ques.jpg,stim_fb/negf.jpg,stim_fb/posf.jpg,stim_03/d.jpg,stim_03/c.jpg,1,2,f,1,29,89,22,f,1,1.01640416086,03,03,60.0232280953,PLT_learning_3,B,2014_Mrz_25_1802,P25,
stim_fb/ques.jpg,stim_fb/negf.jpg,stim_fb/posf.jpg,stim_03/b.jpg,stim_03/a.jpg,1,1,f,1,30,90,0,f,1,0.833120230975,03,03,60.0232280953,PLT_learning_3,B,2014_Mrz_25_1802,P25,
stim_fb/ques.jpg,stim_fb/negf.jpg,stim_fb/posf.jpg,stim_03/e.jpg,stim_03/f.jpg,2,3,j,1,31,91,55,j,1,0.649818030623,03,03,60.0232280953,PLT_learning_3,B,2014_Mrz_25_1802,P25,
stim_fb/ques.jpg,stim_fb/negf.jpg,stim_fb/posf.jpg,stim_03/f.jpg,stim_03/e.jpg,1,3,f,1,32,92,44,f,1,0.599855968543,03,03,60.0232280953,PLT_learning_3,B,2014_Mrz_25_1802,P25,
stim_fb/ques.jpg,stim_fb/posf.jpg,stim_fb/negf.jpg,stim_03/e.jpg,stim_03/f.jpg,2,3,j,1,33,93,56,j,1,0.666462402303,03,03,60.0232280953,PLT_learning_3,B,2014_Mrz_25_1802,P25,
stim_fb/ques.jpg,stim_fb/posf.jpg,stim_fb/negf.jpg,stim_03/c.jpg,stim_03/d.jpg,2,2,j,1,34,94,37,f,0,0.683149856202,03,03,60.0232280953,PLT_learning_3,B,2014_Mrz_25_1802,P25,
stim_fb/ques.jpg,stim_fb/negf.jpg,stim_fb/posf.jpg,stim_03/d.jpg,stim_03/c.jpg,1,2,f,1,35,95,23,j,0,0.566528148931,03,03,60.0232280953,PLT_learning_3,B,2014_Mrz_25_1802,P25,
stim_fb/ques.jpg,stim_fb/negf.jpg,stim_fb/posf.jpg,stim_03/d.jpg,stim_03/c.jpg,1,2,f,1,36,96,20,f,1,0.633154332845,03,03,60.0232280953,PLT_learning_3,B,2014_Mrz_25_1802,P25,
stim_fb/ques.jpg,stim_fb/negf.jpg,stim_fb/posf.jpg,stim_03/d.jpg,stim_03/c.jpg,1,2,f,1,37,97,25,f,1,0.599862305313,03,03,60.0232280953,PLT_learning_3,B,2014_Mrz_25_1802,P25,
stim_fb/ques.jpg,stim_fb/posf.jpg,stim_fb/negf.jpg,stim_03/e.jpg,stim_03/f.jpg,2,3,j,1,38,98,59,j,1,0.733123647478,03,03,60.0232280953,PLT_learning_3,B,2014_Mrz_25_1802,P25,
stim_fb/ques.jpg,stim_fb/posf.jpg,stim_fb/negf.jpg,stim_03/f.jpg,stim_03/e.jpg,1,3,f,1,39,99,48,j,0,0.666455800874,03,03,60.0232280953,PLT_learning_3,B,2014_Mrz_25_1802,P25,
stim_fb/ques.jpg,stim_fb/posf.jpg,stim_fb/negf.jpg,stim_03/e.jpg,stim_03/f.jpg,2,3,j,1,40,100,57,j,1,0.699825472646,03,03,60.0232280953,PLT_learning_3,B,2014_Mrz_25_1802,P25,
stim_fb/ques.jpg,stim_fb/negf.jpg,stim_fb/posf.jpg,stim_03/c.jpg,stim_03/d.jpg,2,2,j,1,41,101,32,f,0,0.583142563053,03,03,60.0232280953,PLT_learning_3,B,2014_Mrz_25_1802,P25,
stim_fb/ques.jpg,stim_fb/posf.jpg,stim_fb/negf.jpg,stim_03/f.jpg,stim_03/e.jpg,1,3,f,1,42,102,47,f,1,0.766510266425,03,03,60.0232280953,PLT_learning_3,B,2014_Mrz_25_1802,P25,
stim_fb/ques.jpg,stim_fb/negf.jpg,stim_fb/posf.jpg,stim_03/a.jpg,stim_03/b.jpg,2,1,j,1,43,103,16,j,1,0.916391842198,03,03,60.0232280953,PLT_learning_3,B,2014_Mrz_25_1802,P25,
stim_fb/ques.jpg,stim_fb/negf.jpg,stim_fb/posf.jpg,stim_03/a.jpg,stim_03/b.jpg,2,1,j,1,44,104,10,j,1,0.683199969928,03,03,60.0232280953,PLT_learning_3,B,2014_Mrz_25_1802,P25,
stim_fb/ques.jpg,stim_fb/negf.jpg,stim_fb/posf.jpg,stim_03/a.jpg,stim_03/b.jpg,2,1,j,1,45,105,15,j,1,0.833106829621,03,03,60.0232280953,PLT_learning_3,B,2014_Mrz_25_1802,P25,
stim_fb/ques.jpg,stim_fb/negf.jpg,stim_fb/posf.jpg,stim_03/c.jpg,stim_03/d.jpg,2,2,j,1,46,106,36,f,0,0.799783912211,03,03,60.0232280953,PLT_learning_3,B,2014_Mrz_25_1802,P25,
stim_fb/ques.jpg,stim_fb/negf.jpg,stim_fb/posf.jpg,stim_03/a.jpg,stim_03/b.jpg,2,1,j,1,47,107,13,j,1,0.533191938437,03,03,60.0232280953,PLT_learning_3,B,2014_Mrz_25_1802,P25,
stim_fb/ques.jpg,stim_fb/negf.jpg,stim_fb/posf.jpg,stim_03/a.jpg,stim_03/b.jpg,2,1,j,1,48,108,17,j,1,0.616527449693,03,03,60.0232280953,PLT_learning_3,B,2014_Mrz_25_1802,P25,
stim_fb/ques.jpg,stim_fb/posf.jpg,stim_fb/negf.jpg,stim_03/d.jpg,stim_03/c.jpg,1,2,f,1,49,109,27,f,1,0.883101682313,03,03,60.0232280953,PLT_learning_3,B,2014_Mrz_25_1802,P25,
stim_fb/ques.jpg,stim_fb/negf.jpg,stim_fb/posf.jpg,stim_03/f.jpg,stim_03/e.jpg,1,3,f,1,50,110,43,f,1,0.98311872573,03,03,60.0232280953,PLT_learning_3,B,2014_Mrz_25_1802,P25,
stim_fb/ques.jpg,stim_fb/negf.jpg,stim_fb/posf.jpg,stim_03/f.jpg,stim_03/e.jpg,1,3,f,1,51,111,42,f,1,0.999707185256,03,03,60.0232280953,PLT_learning_3,B,2014_Mrz_25_1802,P25,
stim_fb/ques.jpg,stim_fb/negf.jpg,stim_fb/posf.jpg,stim_03/d.jpg,stim_03/c.jpg,1,2,f,1,52,112,26,f,1,0.683127985776,03,03,60.0232280953,PLT_learning_3,B,2014_Mrz_25_1802,P25,
stim_fb/ques.jpg,stim_fb/posf.jpg,stim_fb/negf.jpg,stim_03/b.jpg,stim_03/a.jpg,1,1,f,1,53,113,9,f,1,0.899780342326,03,03,60.0232280953,PLT_learning_3,B,2014_Mrz_25_1802,P25,
stim_fb/ques.jpg,stim_fb/negf.jpg,stim_fb/posf.jpg,stim_03/a.jpg,stim_03/b.jpg,2,1,j,1,54,114,14,j,1,0.449863479735,03,03,60.0232280953,PLT_learning_3,B,2014_Mrz_25_1802,P25,
stim_fb/ques.jpg,stim_fb/posf.jpg,stim_fb/negf.jpg,stim_03/d.jpg,stim_03/c.jpg,1,2,f,1,55,115,29,j,0,0.949712242342,03,03,60.0232280953,PLT_learning_3,B,2014_Mrz_25_1802,P25,
stim_fb/ques.jpg,stim_fb/negf.jpg,stim_fb/posf.jpg,stim_03/e.jpg,stim_03/f.jpg,2,3,j,1,56,116,50,f,0,0.766427401195,03,03,60.0232280953,PLT_learning_3,B,2014_Mrz_25_1802,P25,
stim_fb/ques.jpg,stim_fb/negf.jpg,stim_fb/posf.jpg,stim_03/f.jpg,stim_03/e.jpg,1,3,f,1,57,117,45,f,1,0.766477851754,03,03,60.0232280953,PLT_learning_3,B,2014_Mrz_25_1802,P25,
stim_fb/ques.jpg,stim_fb/negf.jpg,stim_fb/posf.jpg,stim_03/e.jpg,stim_03/f.jpg,2,3,j,1,58,118,51,j,1,0.749792265498,03,03,60.0232280953,PLT_learning_3,B,2014_Mrz_25_1802,P25,
stim_fb/ques.jpg,stim_fb/negf.jpg,stim_fb/posf.jpg,stim_03/c.jpg,stim_03/d.jpg,2,2,j,1,59,119,34,f,0,0.733151403554,03,03,60.0232280953,PLT_learning_3,B,2014_Mrz_25_1802,P25,
stim_fb/ques.jpg,stim_fb/posf.jpg,stim_fb/negf.jpg,stim_03/e.jpg,stim_03/f.jpg,2,3,j,2,0,120,57,j,1,0.849745905121,03,03,60.0232280953,PLT_learning_3,B,2014_Mrz_25_1802,P25,
stim_fb/ques.jpg,stim_fb/posf.jpg,stim_fb/negf.jpg,stim_03/a.jpg,stim_03/b.jpg,2,1,j,2,1,121,19,j,1,0.699811223181,03,03,60.0232280953,PLT_learning_3,B,2014_Mrz_25_1802,P25,
stim_fb/ques.jpg,stim_fb/posf.jpg,stim_fb/negf.jpg,stim_03/f.jpg,stim_03/e.jpg,1,3,f,2,2,122,47,f,1,0.783113907739,03,03,60.0232280953,PLT_learning_3,B,2014_Mrz_25_1802,P25,
stim_fb/ques.jpg,stim_fb/posf.jpg,stim_fb/negf.jpg,stim_03/d.jpg,stim_03/c.jpg,1,2,f,2,3,123,28,f,1,0.249969427416,03,03,60.0232280953,PLT_learning_3,B,2014_Mrz_25_1802,P25,
stim_fb/ques.jpg,stim_fb/posf.jpg,stim_fb/negf.jpg,stim_03/c.jpg,stim_03/d.jpg,2,2,j,2,4,124,39,f,0,0.733123803864,03,03,60.0232280953,PLT_learning_3,B,2014_Mrz_25_1802,P25,
stim_fb/ques.jpg,stim_fb/negf.jpg,stim_fb/posf.jpg,stim_03/d.jpg,stim_03/c.jpg,1,2,f,2,5,125,24,f,1,1.14952526099,03,03,60.0232280953,PLT_learning_3,B,2014_Mrz_25_1802,P25,
stim_fb/ques.jpg,stim_fb/negf.jpg,stim_fb/posf.jpg,stim_03/e.jpg,stim_03/f.jpg,2,3,j,2,6,126,55,j,1,0.883121014424,03,03,60.0232280953,PLT_learning_3,B,2014_Mrz_25_1802,P25,
stim_fb/ques.jpg,stim_fb/negf.jpg,stim_fb/posf.jpg,stim_03/d.jpg,stim_03/c.jpg,1,2,f,2,7,127,23,f,1,0.799777388977,03,03,60.0232280953,PLT_learning_3,B,2014_Mrz_25_1802,P25,
stim_fb/ques.jpg,stim_fb/negf.jpg,stim_fb/posf.jpg,stim_03/c.jpg,stim_03/d.jpg,2,2,j,2,8,128,32,j,1,0.599863168463,03,03,60.0232280953,PLT_learning_3,B,2014_Mrz_25_1802,P25,
stim_fb/ques.jpg,stim_fb/negf.jpg,stim_fb/posf.jpg,stim_03/b.jpg,stim_03/a.jpg,1,1,f,2,9,129,5,f,1,1.19962478919,03,03,60.0232280953,PLT_learning_3,B,2014_Mrz_25_1802,P25,
stim_fb/ques.jpg,stim_fb/posf.jpg,stim_fb/negf.jpg,stim_03/f.jpg,stim_03/e.jpg,1,3,f,2,10,130,49,f,1,0.916567022177,03,03,60.0232280953,PLT_learning_3,B,2014_Mrz_25_1802,P25,
stim_fb/ques.jpg,stim_fb/posf.jpg,stim_fb/negf.jpg,stim_03/d.jpg,stim_03/c.jpg,1,2,f,2,11,131,29,f,1,0.866428441783,03,03,60.0232280953,PLT_learning_3,B,2014_Mrz_25_1802,P25,
stim_fb/ques.jpg,stim_fb/posf.jpg,stim_fb/negf.jpg,stim_03/e.jpg,stim_03/f.jpg,2,3,j,2,12,132,59,j,1,0.883098918432,03,03,60.0232280953,PLT_learning_3,B,2014_Mrz_25_1802,P25,
stim_fb/ques.jpg,stim_fb/posf.jpg,stim_fb/negf.jpg,stim_03/a.jpg,stim_03/b.jpg,2,1,j,2,13,133,18,j,1,0.699844699498,03,03,60.0232280953,PLT_learning_3,B,2014_Mrz_25_1802,P25,
stim_fb/ques.jpg,stim_fb/negf.jpg,stim_fb/posf.jpg,stim_03/b.jpg,stim_03/a.jpg,1,1,f,2,14,134,6,f,1,0.816437525893,03,03,60.0232280953,PLT_learning_3,B,2014_Mrz_25_1802,P25,
stim_fb/ques.jpg,stim_fb/negf.jpg,stim_fb/posf.jpg,stim_03/e.jpg,stim_03/f.jpg,2,3,j,2,15,135,51,f,0,1.06635049379,03,03,60.0232280953,PLT_learning_3,B,2014_Mrz_25_1802,P25,
stim_fb/ques.jpg,stim_fb/posf.jpg,stim_fb/negf.jpg,stim_03/b.jpg,stim_03/a.jpg,1,1,f,2,16,136,9,f,1,0.583187687356,03,03,60.0232280953,PLT_learning_3,B,2014_Mrz_25_1802,P25,
stim_fb/ques.jpg,stim_fb/posf.jpg,stim_fb/negf.jpg,stim_03/c.jpg,stim_03/d.jpg,2,2,j,2,17,137,37,j,1,0.766422056895,03,03,60.0232280953,PLT_learning_3,B,2014_Mrz_25_1802,P25,
stim_fb/ques.jpg,stim_fb/negf.jpg,stim_fb/posf.jpg,stim_03/b.jpg,stim_03/a.jpg,1,1,f,2,18,138,3,f,1,0.6165149566,03,03,60.0232280953,PLT_learning_3,B,2014_Mrz_25_1802,P25,
stim_fb/ques.jpg,stim_fb/negf.jpg,stim_fb/posf.jpg,stim_03/c.jpg,stim_03/d.jpg,2,2,j,2,19,139,36,j,1,0.699854970055,03,03,60.0232280953,PLT_learning_3,B,2014_Mrz_25_1802,P25,
stim_fb/ques.jpg,stim_fb/negf.jpg,stim_fb/posf.jpg,stim_03/d.jpg,stim_03/c.jpg,1,2,f,2,20,140,26,f,1,0.666479051739,03,03,60.0232280953,PLT_learning_3,B,2014_Mrz_25_1802,P25,
stim_fb/ques.jpg,stim_fb/negf.jpg,stim_fb/posf.jpg,stim_03/a.jpg,stim_03/b.jpg,2,1,j,2,21,141,11,j,1,0.66649811318,03,03,60.0232280953,PLT_learning_3,B,2014_Mrz_25_1802,P25,
stim_fb/ques.jpg,stim_fb/negf.jpg,stim_fb/posf.jpg,stim_03/e.jpg,stim_03/f.jpg,2,3,j,2,22,142,53,f,0,0.89972240313,03,03,60.0232280953,PLT_learning_3,B,2014_Mrz_25_1802,P25,
stim_fb/ques.jpg,stim_fb/posf.jpg,stim_fb/negf.jpg,stim_03/d.jpg,stim_03/c.jpg,1,2,f,2,23,143,27,f,1,0.966385085881,03,03,60.0232280953,PLT_learning_3,B,2014_Mrz_25_1802,P25,
stim_fb/ques.jpg,stim_fb/posf.jpg,stim_fb/negf.jpg,stim_03/c.jpg,stim_03/d.jpg,2,2,j,2,24,144,38,j,1,0.566529827109,03,03,60.0232280953,PLT_learning_3,B,2014_Mrz_25_1802,P25,
stim_fb/ques.jpg,stim_fb/negf.jpg,stim_fb/posf.jpg,stim_03/f.jpg,stim_03/e.jpg,1,3,f,2,25,145,41,f,1,0.766480435184,03,03,60.0232280953,PLT_learning_3,B,2014_Mrz_25_1802,P25,
stim_fb/ques.jpg,stim_fb/negf.jpg,stim_fb/posf.jpg,stim_03/f.jpg,stim_03/e.jpg,1,3,f,2,26,146,45,f,1,0.766486158427,03,03,60.0232280953,PLT_learning_3,B,2014_Mrz_25_1802,P25,
stim_fb/ques.jpg,stim_fb/negf.jpg,stim_fb/posf.jpg,stim_03/c.jpg,stim_03/d.jpg,2,2,j,2,27,147,31,j,1,0.683120897134,03,03,60.0232280953,PLT_learning_3,B,2014_Mrz_25_1802,P25,
stim_fb/ques.jpg,stim_fb/negf.jpg,stim_fb/posf.jpg,stim_03/a.jpg,stim_03/b.jpg,2,1,j,2,28,148,12,f,0,0.99972190088,03,03,60.0232280953,PLT_learning_3,B,2014_Mrz_25_1802,P25,
stim_fb/ques.jpg,stim_fb/negf.jpg,stim_fb/posf.jpg,stim_03/b.jpg,stim_03/a.jpg,1,1,f,2,29,149,7,f,1,1.0163827205,03,03,60.0232280953,PLT_learning_3,B,2014_Mrz_25_1802,P25,
stim_fb/ques.jpg,stim_fb/negf.jpg,stim_fb/posf.jpg,stim_03/f.jpg,stim_03/e.jpg,1,3,f,2,30,150,42,f,1,0.966394854193,03,03,60.0232280953,PLT_learning_3,B,2014_Mrz_25_1802,P25,
stim_fb/ques.jpg,stim_fb/negf.jpg,stim_fb/posf.jpg,stim_03/d.jpg,stim_03/c.jpg,1,2,f,2,31,151,20,f,1,0.833119157302,03,03,60.0232280953,PLT_learning_3,B,2014_Mrz_25_1802,P25,
stim_fb/ques.jpg,stim_fb/negf.jpg,stim_fb/posf.jpg,stim_03/d.jpg,stim_03/c.jpg,1,2,f,2,32,152,25,f,1,0.59985087988,03,03,60.0232280953,PLT_learning_3,B,2014_Mrz_25_1802,P25,
stim_fb/ques.jpg,stim_fb/negf.jpg,stim_fb/posf.jpg,stim_03/f.jpg,stim_03/e.jpg,1,3,f,2,33,153,43,f,1,0.833113939316,03,03,60.0232280953,PLT_learning_3,B,2014_Mrz_25_1802,P25,
stim_fb/ques.jpg,stim_fb/negf.jpg,stim_fb/posf.jpg,stim_03/c.jpg,stim_03/d.jpg,2,2,j,2,34,154,33,j,1,0.733126901578,03,03,60.0232280953,PLT_learning_3,B,2014_Mrz_25_1802,P25,
stim_fb/ques.jpg,stim_fb/negf.jpg,stim_fb/posf.jpg,stim_03/d.jpg,stim_03/c.jpg,1,2,f,2,35,155,22,f,1,0.499886503534,03,03,60.0232280953,PLT_learning_3,B,2014_Mrz_25_1802,P25,
stim_fb/ques.jpg,stim_fb/negf.jpg,stim_fb/posf.jpg,stim_03/b.jpg,stim_03/a.jpg,1,1,f,2,36,156,0,f,1,0.88307338188,03,03,60.0232280953,PLT_learning_3,B,2014_Mrz_25_1802,P25,
stim_fb/ques.jpg,stim_fb/negf.jpg,stim_fb/posf.jpg,stim_03/e.jpg,stim_03/f.jpg,2,3,j,2,37,157,52,j,1,0.966410565296,03,03,60.0232280953,PLT_learning_3,B,2014_Mrz_25_1802,P25,
stim_fb/ques.jpg,stim_fb/posf.jpg,stim_fb/negf.jpg,stim_03/e.jpg,stim_03/f.jpg,2,3,j,2,38,158,58,j,1,0.549856836198,03,03,60.0232280953,PLT_learning_3,B,2014_Mrz_25_1802,P25,
stim_fb/ques.jpg,stim_fb/negf.jpg,stim_fb/posf.jpg,stim_03/d.jpg,stim_03/c.jpg,1,2,f,2,39,159,21,f,1,0.649799348128,03,03,60.0232280953,PLT_learning_3,B,2014_Mrz_25_1802,P25,
stim_fb/ques.jpg,stim_fb/negf.jpg,stim_fb/posf.jpg,stim_03/a.jpg,stim_03/b.jpg,2,1,j,2,40,160,15,j,1,0.699801918025,03,03,60.0232280953,PLT_learning_3,B,2014_Mrz_25_1802,P25,
stim_fb/ques.jpg,stim_fb/negf.jpg,stim_fb/posf.jpg,stim_03/b.jpg,stim_03/a.jpg,1,1,f,2,41,161,2,f,1,0.683145360017,03,03,60.0232280953,PLT_learning_3,B,2014_Mrz_25_1802,P25,
stim_fb/ques.jpg,stim_fb/negf.jpg,stim_fb/posf.jpg,stim_03/f.jpg,stim_03/e.jpg,1,3,f,2,42,162,40,f,1,0.833099151514,03,03,60.0232280953,PLT_learning_3,B,2014_Mrz_25_1802,P25,
stim_fb/ques.jpg,stim_fb/negf.jpg,stim_fb/posf.jpg,stim_03/a.jpg,stim_03/b.jpg,2,1,j,2,43,163,10,j,1,0.833095936512,03,03,60.0232280953,PLT_learning_3,B,2014_Mrz_25_1802,P25,
stim_fb/ques.jpg,stim_fb/negf.jpg,stim_fb/posf.jpg,stim_03/c.jpg,stim_03/d.jpg,2,2,j,2,44,164,30,f,0,0.849772680762,03,03,60.0232280953,PLT_learning_3,B,2014_Mrz_25_1802,P25,
stim_fb/ques.jpg,stim_fb/negf.jpg,stim_fb/posf.jpg,stim_03/a.jpg,stim_03/b.jpg,2,1,j,2,45,165,16,j,1,0.633177956639,03,03,60.0232280953,PLT_learning_3,B,2014_Mrz_25_1802,P25,
stim_fb/ques.jpg,stim_fb/posf.jpg,stim_fb/negf.jpg,stim_03/b.jpg,stim_03/a.jpg,1,1,f,2,46,166,8,f,1,0.833087975698,03,03,60.0232280953,PLT_learning_3,B,2014_Mrz_25_1802,P25,
stim_fb/ques.jpg,stim_fb/negf.jpg,stim_fb/posf.jpg,stim_03/c.jpg,stim_03/d.jpg,2,2,j,2,47,167,35,f,0,0.916437131909,03,03,60.0232280953,PLT_learning_3,B,2014_Mrz_25_1802,P25,
stim_fb/ques.jpg,stim_fb/negf.jpg,stim_fb/posf.jpg,stim_03/e.jpg,stim_03/f.jpg,2,3,j,2,48,168,54,j,1,0.783102602603,03,03,60.0232280953,PLT_learning_3,B,2014_Mrz_25_1802,P25,
stim_fb/ques.jpg,stim_fb/negf.jpg,stim_fb/posf.jpg,stim_03/a.jpg,stim_03/b.jpg,2,1,j,2,49,169,14,j,1,0.783118331747,03,03,60.0232280953,PLT_learning_3,B,2014_Mrz_25_1802,P25,
stim_fb/ques.jpg,stim_fb/posf.jpg,stim_fb/negf.jpg,stim_03/f.jpg,stim_03/e.jpg,1,3,f,2,50,170,46,f,1,0.799757987694,03,03,60.0232280953,PLT_learning_3,B,2014_Mrz_25_1802,P25,
stim_fb/ques.jpg,stim_fb/negf.jpg,stim_fb/posf.jpg,stim_03/f.jpg,stim_03/e.jpg,1,3,f,2,51,171,44,f,1,1.09965904745,03,03,60.0232280953,PLT_learning_3,B,2014_Mrz_25_1802,P25,
stim_fb/ques.jpg,stim_fb/negf.jpg,stim_fb/posf.jpg,stim_03/b.jpg,stim_03/a.jpg,1,1,f,2,52,172,1,f,1,0.816385111444,03,03,60.0232280953,PLT_learning_3,B,2014_Mrz_25_1802,P25,
stim_fb/ques.jpg,stim_fb/negf.jpg,stim_fb/posf.jpg,stim_03/b.jpg,stim_03/a.jpg,1,1,f,2,53,173,4,j,0,0.516562685385,03,03,60.0232280953,PLT_learning_3,B,2014_Mrz_25_1802,P25,
stim_fb/ques.jpg,stim_fb/posf.jpg,stim_fb/negf.jpg,stim_03/e.jpg,stim_03/f.jpg,2,3,j,2,54,174,56,f,0,0.966398357912,03,03,60.0232280953,PLT_learning_3,B,2014_Mrz_25_1802,P25,
stim_fb/ques.jpg,stim_fb/negf.jpg,stim_fb/posf.jpg,stim_03/a.jpg,stim_03/b.jpg,2,1,j,2,55,175,13,j,1,0.416581500209,03,03,60.0232280953,PLT_learning_3,B,2014_Mrz_25_1802,P25,
stim_fb/ques.jpg,stim_fb/negf.jpg,stim_fb/posf.jpg,stim_03/e.jpg,stim_03/f.jpg,2,3,j,2,56,176,50,j,1,0.96637613561,03,03,60.0232280953,PLT_learning_3,B,2014_Mrz_25_1802,P25,
stim_fb/ques.jpg,stim_fb/negf.jpg,stim_fb/posf.jpg,stim_03/c.jpg,stim_03/d.jpg,2,2,j,2,57,177,34,f,0,0.816461925617,03,03,60.0232280953,PLT_learning_3,B,2014_Mrz_25_1802,P25,
stim_fb/ques.jpg,stim_fb/posf.jpg,stim_fb/negf.jpg,stim_03/f.jpg,stim_03/e.jpg,1,3,f,2,58,178,48,f,1,0.816406819471,03,03,60.0232280953,PLT_learning_3,B,2014_Mrz_25_1802,P25,
stim_fb/ques.jpg,stim_fb/negf.jpg,stim_fb/posf.jpg,stim_03/a.jpg,stim_03/b.jpg,2,1,j,2,59,179,17,j,1,0.666472116482,03,03,60.0232280953,PLT_learning_3,B,2014_Mrz_25_1802,P25,
stim_fb/ques.jpg,stim_fb/negf.jpg,stim_fb/posf.jpg,stim_03/c.jpg,stim_03/d.jpg,2,2,j,3,0,180,36,j,1,0.966344722427,03,03,60.0232280953,PLT_learning_3,B,2014_Mrz_25_1802,P25,
stim_fb/ques.jpg,stim_fb/negf.jpg,stim_fb/posf.jpg,stim_03/a.jpg,stim_03/b.jpg,2,1,j,3,1,181,17,j,1,0.699805764594,03,03,60.0232280953,PLT_learning_3,B,2014_Mrz_25_1802,P25,
stim_fb/ques.jpg,stim_fb/posf.jpg,stim_fb/negf.jpg,stim_03/e.jpg,stim_03/f.jpg,2,3,j,3,2,182,57,j,1,0.933095037275,03,03,60.0232280953,PLT_learning_3,B,2014_Mrz_25_1802,P25,
stim_fb/ques.jpg,stim_fb/posf.jpg,stim_fb/negf.jpg,stim_03/c.jpg,stim_03/d.jpg,2,2,j,3,3,183,37,j,1,0.89971151303,03,03,60.0232280953,PLT_learning_3,B,2014_Mrz_25_1802,P25,
stim_fb/ques.jpg,stim_fb/posf.jpg,stim_fb/negf.jpg,stim_03/b.jpg,stim_03/a.jpg,1,1,f,3,4,184,9,f,1,0.933078799862,03,03,60.0232280953,PLT_learning_3,B,2014_Mrz_25_1802,P25,
stim_fb/ques.jpg,stim_fb/posf.jpg,stim_fb/negf.jpg,stim_03/f.jpg,stim_03/e.jpg,1,3,f,3,5,185,48,f,1,0.799783379887,03,03,60.0232280953,PLT_learning_3,B,2014_Mrz_25_1802,P25,
stim_fb/ques.jpg,stim_fb/negf.jpg,stim_fb/posf.jpg,stim_03/c.jpg,stim_03/d.jpg,2,2,j,3,6,186,33,j,1,0.799781584417,03,03,60.0232280953,PLT_learning_3,B,2014_Mrz_25_1802,P25,
stim_fb/ques.jpg,stim_fb/negf.jpg,stim_fb/posf.jpg,stim_03/b.jpg,stim_03/a.jpg,1,1,f,3,7,187,7,f,1,0.64983563343,03,03,60.0232280953,PLT_learning_3,B,2014_Mrz_25_1802,P25,
stim_fb/ques.jpg,stim_fb/negf.jpg,stim_fb/posf.jpg,stim_03/c.jpg,stim_03/d.jpg,2,2,j,3,8,188,31,f,0,0.883164394385,03,03,60.0232280953,PLT_learning_3,B,2014_Mrz_25_1802,P25,
stim_fb/ques.jpg,stim_fb/posf.jpg,stim_fb/negf.jpg,stim_03/f.jpg,stim_03/e.jpg,1,3,f,3,9,189,49,f,1,0.78313582328,03,03,60.0232280953,PLT_learning_3,B,2014_Mrz_25_1802,P25,
stim_fb/ques.jpg,stim_fb/negf.jpg,stim_fb/posf.jpg,stim_03/b.jpg,stim_03/a.jpg,1,1,f,3,10,190,3,f,1,0.866399145874,03,03,60.0232280953,PLT_learning_3,B,2014_Mrz_25_1802,P25,
stim_fb/ques.jpg,stim_fb/posf.jpg,stim_fb/negf.jpg,stim_03/e.jpg,stim_03/f.jpg,2,3,j,3,11,191,56,j,1,0.78316317335,03,03,60.0232280953,PLT_learning_3,B,2014_Mrz_25_1802,P25,
stim_fb/ques.jpg,stim_fb/negf.jpg,stim_fb/posf.jpg,stim_03/b.jpg,stim_03/a.jpg,1,1,f,3,12,192,2,f,1,0.833103214623,03,03,60.0232280953,PLT_learning_3,B,2014_Mrz_25_1802,P25,
stim_fb/ques.jpg,stim_fb/negf.jpg,stim_fb/posf.jpg,stim_03/e.jpg,stim_03/f.jpg,2,3,j,3,13,193,53,f,0,0.799767362023,03,03,60.0232280953,PLT_learning_3,B,2014_Mrz_25_1802,P25,
stim_fb/ques.jpg,stim_fb/negf.jpg,stim_fb/posf.jpg,stim_03/a.jpg,stim_03/b.jpg,2,1,j,3,14,194,10,j,1,0.866467530064,03,03,60.0232280953,PLT_learning_3,B,2014_Mrz_25_1802,P25,
stim_fb/ques.jpg,stim_fb/negf.jpg,stim_fb/posf.jpg,stim_03/e.jpg,stim_03/f.jpg,2,3,j,3,15,195,55,f,0,1.04968508476,03,03,60.0232280953,PLT_learning_3,B,2014_Mrz_25_1802,P25,
stim_fb/ques.jpg,stim_fb/negf.jpg,stim_fb/posf.jpg,stim_03/d.jpg,stim_03/c.jpg,1,2,f,3,16,196,20,j,0,0.983010847245,03,03,60.0232280953,PLT_learning_3,B,2014_Mrz_25_1802,P25,
stim_fb/ques.jpg,stim_fb/negf.jpg,stim_fb/posf.jpg,stim_03/a.jpg,stim_03/b.jpg,2,1,j,3,17,197,14,j,1,0.633212260014,03,03,60.0232280953,PLT_learning_3,B,2014_Mrz_25_1802,P25,
stim_fb/ques.jpg,stim_fb/negf.jpg,stim_fb/posf.jpg,stim_03/d.jpg,stim_03/c.jpg,1,2,f,3,18,198,24,f,1,1.19962997109,03,03,60.0232280953,PLT_learning_3,B,2014_Mrz_25_1802,P25,
stim_fb/ques.jpg,stim_fb/negf.jpg,stim_fb/posf.jpg,stim_03/b.jpg,stim_03/a.jpg,1,1,f,3,19,199,1,f,1,0.866442213061,03,03,60.0232280953,PLT_learning_3,B,2014_Mrz_25_1802,P25,
stim_fb/ques.jpg,stim_fb/negf.jpg,stim_fb/posf.jpg,stim_03/b.jpg,stim_03/a.jpg,1,1,f,3,20,200,4,f,1,0.833056096359,03,03,60.0232280953,PLT_learning_3,B,2014_Mrz_25_1802,P25,
stim_fb/ques.jpg,stim_fb/negf.jpg,stim_fb/posf.jpg,stim_03/b.jpg,stim_03/a.jpg,1,1,f,3,21,201,6,j,0,0.633162025992,03,03,60.0232280953,PLT_learning_3,B,2014_Mrz_25_1802,P25,
stim_fb/ques.jpg,stim_fb/negf.jpg,stim_fb/posf.jpg,stim_03/a.jpg,stim_03/b.jpg,2,1,j,3,22,202,16,j,1,0.616484021608,03,03,60.0232280953,PLT_learning_3,B,2014_Mrz_25_1802,P25,
stim_fb/ques.jpg,stim_fb/posf.jpg,stim_fb/negf.jpg,stim_03/c.jpg,stim_03/d.jpg,2,2,j,3,23,203,39,j,1,0.983089165158,03,03,60.0232280953,PLT_learning_3,B,2014_Mrz_25_1802,P25,
stim_fb/ques.jpg,stim_fb/negf.jpg,stim_fb/posf.jpg,stim_03/c.jpg,stim_03/d.jpg,2,2,j,3,24,204,34,j,1,0.783103258236,03,03,60.0232280953,PLT_learning_3,B,2014_Mrz_25_1802,P25,
stim_fb/ques.jpg,stim_fb/posf.jpg,stim_fb/negf.jpg,stim_03/a.jpg,stim_03/b.jpg,2,1,j,3,25,205,19,j,1,0.749793940668,03,03,60.0232280953,PLT_learning_3,B,2014_Mrz_25_1802,P25,
stim_fb/ques.jpg,stim_fb/negf.jpg,stim_fb/posf.jpg,stim_03/d.jpg,stim_03/c.jpg,1,2,f,3,26,206,22,f,1,0.883058287312,03,03,60.0232280953,PLT_learning_3,B,2014_Mrz_25_1802,P25,
stim_fb/ques.jpg,stim_fb/posf.jpg,stim_fb/negf.jpg,stim_03/f.jpg,stim_03/e.jpg,1,3,f,3,27,207,46,j,0,1.13301875844,03,03,60.0232280953,PLT_learning_3,B,2014_Mrz_25_1802,P25,
stim_fb/ques.jpg,stim_fb/negf.jpg,stim_fb/posf.jpg,stim_03/d.jpg,stim_03/c.jpg,1,2,f,3,28,208,23,j,0,1.24963714544,03,03,60.0232280953,PLT_learning_3,B,2014_Mrz_25_1802,P25,
stim_fb/ques.jpg,stim_fb/negf.jpg,stim_fb/posf.jpg,stim_03/b.jpg,stim_03/a.jpg,1,1,f,3,29,209,5,f,1,0.599862449671,03,03,60.0232280953,PLT_learning_3,B,2014_Mrz_25_1802,P25,
stim_fb/ques.jpg,stim_fb/negf.jpg,stim_fb/posf.jpg,stim_03/f.jpg,stim_03/e.jpg,1,3,f,3,30,210,45,j,0,0.783135501479,03,03,60.0232280953,PLT_learning_3,B,2014_Mrz_25_1802,P25,
stim_fb/ques.jpg,stim_fb/negf.jpg,stim_fb/posf.jpg,stim_03/a.jpg,stim_03/b.jpg,2,1,j,3,31,211,15,j,1,0.683170770255,03,03,60.0232280953,PLT_learning_3,B,2014_Mrz_25_1802,P25,
stim_fb/ques.jpg,stim_fb/negf.jpg,stim_fb/posf.jpg,stim_03/a.jpg,stim_03/b.jpg,2,1,j,3,32,212,11,j,1,0.733152735873,03,03,60.0232280953,PLT_learning_3,B,2014_Mrz_25_1802,P25,
stim_fb/ques.jpg,stim_fb/posf.jpg,stim_fb/negf.jpg,stim_03/f.jpg,stim_03/e.jpg,1,3,f,3,33,213,47,f,1,0.649829753798,03,03,60.0232280953,PLT_learning_3,B,2014_Mrz_25_1802,P25,
stim_fb/ques.jpg,stim_fb/negf.jpg,stim_fb/posf.jpg,stim_03/c.jpg,stim_03/d.jpg,2,2,j,3,34,214,32,j,1,0.866445819032,03,03,60.0232280953,PLT_learning_3,B,2014_Mrz_25_1802,P25,
stim_fb/ques.jpg,stim_fb/negf.jpg,stim_fb/posf.jpg,stim_03/d.jpg,stim_03/c.jpg,1,2,f,3,35,215,25,f,1,0.699809948008,03,03,60.0232280953,PLT_learning_3,B,2014_Mrz_25_1802,P25,
stim_fb/ques.jpg,stim_fb/negf.jpg,stim_fb/posf.jpg,stim_03/c.jpg,stim_03/d.jpg,2,2,j,3,36,216,35,j,1,0.583177037854,03,03,60.0232280953,PLT_learning_3,B,2014_Mrz_25_1802,P25,
stim_fb/ques.jpg,stim_fb/negf.jpg,stim_fb/posf.jpg,stim_03/c.jpg,stim_03/d.jpg,2,2,j,3,37,217,30,j,1,0.666489746356,03,03,60.0232280953,PLT_learning_3,B,2014_Mrz_25_1802,P25,
stim_fb/ques.jpg,stim_fb/negf.jpg,stim_fb/posf.jpg,stim_03/d.jpg,stim_03/c.jpg,1,2,f,3,38,218,21,f,1,0.766462651925,03,03,60.0232280953,PLT_learning_3,B,2014_Mrz_25_1802,P25,
stim_fb/ques.jpg,stim_fb/posf.jpg,stim_fb/negf.jpg,stim_03/a.jpg,stim_03/b.jpg,2,1,j,3,39,219,18,j,1,0.799767328939,03,03,60.0232280953,PLT_learning_3,B,2014_Mrz_25_1802,P25,
stim_fb/ques.jpg,stim_fb/negf.jpg,stim_fb/posf.jpg,stim_03/f.jpg,stim_03/e.jpg,1,3,f,3,40,220,44,j,0,0.583163895146,03,03,60.0232280953,PLT_learning_3,B,2014_Mrz_25_1802,P25,
stim_fb/ques.jpg,stim_fb/negf.jpg,stim_fb/posf.jpg,stim_03/a.jpg,stim_03/b.jpg,2,1,j,3,41,221,13,j,1,0.666501782311,03,03,60.0232280953,PLT_learning_3,B,2014_Mrz_25_1802,P25,
stim_fb/ques.jpg,stim_fb/posf.jpg,stim_fb/negf.jpg,stim_03/e.jpg,stim_03/f.jpg,2,3,j,3,42,222,58,f,0,0.666468167652,03,03,60.0232280953,PLT_learning_3,B,2014_Mrz_25_1802,P25,
stim_fb/ques.jpg,stim_fb/negf.jpg,stim_fb/posf.jpg,stim_03/f.jpg,stim_03/e.jpg,1,3,f,3,43,223,43,f,1,0.83316384552,03,03,60.0232280953,PLT_learning_3,B,2014_Mrz_25_1802,P25,
stim_fb/ques.jpg,stim_fb/negf.jpg,stim_fb/posf.jpg,stim_03/e.jpg,stim_03/f.jpg,2,3,j,3,44,224,51,j,1,1.08299155724,03,03,60.0232280953,PLT_learning_3,B,2014_Mrz_25_1802,P25,
stim_fb/ques.jpg,stim_fb/posf.jpg,stim_fb/negf.jpg,stim_03/d.jpg,stim_03/c.jpg,1,2,f,3,45,225,28,f,1,0.83305276106,03,03,60.0232280953,PLT_learning_3,B,2014_Mrz_25_1802,P25,
stim_fb/ques.jpg,stim_fb/posf.jpg,stim_fb/negf.jpg,stim_03/d.jpg,stim_03/c.jpg,1,2,f,3,46,226,27,j,0,0.899750405824,03,03,60.0232280953,PLT_learning_3,B,2014_Mrz_25_1802,P25,
stim_fb/ques.jpg,stim_fb/posf.jpg,stim_fb/negf.jpg,stim_03/b.jpg,stim_03/a.jpg,1,1,f,3,47,227,8,j,0,0.983010778076,03,03,60.0232280953,PLT_learning_3,B,2014_Mrz_25_1802,P25,
stim_fb/ques.jpg,stim_fb/negf.jpg,stim_fb/posf.jpg,stim_03/e.jpg,stim_03/f.jpg,2,3,j,3,48,228,52,f,0,0.866385837751,03,03,60.0232280953,PLT_learning_3,B,2014_Mrz_25_1802,P25,
stim_fb/ques.jpg,stim_fb/negf.jpg,stim_fb/posf.jpg,stim_03/f.jpg,stim_03/e.jpg,1,3,f,3,49,229,40,j,0,0.699811175062,03,03,60.0232280953,PLT_learning_3,B,2014_Mrz_25_1802,P25,
stim_fb/ques.jpg,stim_fb/negf.jpg,stim_fb/posf.jpg,stim_03/a.jpg,stim_03/b.jpg,2,1,j,3,50,230,12,f,0,0.883098906401,03,03,60.0232280953,PLT_learning_3,B,2014_Mrz_25_1802,P25,
stim_fb/ques.jpg,stim_fb/posf.jpg,stim_fb/negf.jpg,stim_03/e.jpg,stim_03/f.jpg,2,3,j,3,51,231,59,f,0,0.783120596385,03,03,60.0232280953,PLT_learning_3,B,2014_Mrz_25_1802,P25,
stim_fb/ques.jpg,stim_fb/negf.jpg,stim_fb/posf.jpg,stim_03/d.jpg,stim_03/c.jpg,1,2,f,3,52,232,26,f,1,0.983078196859,03,03,60.0232280953,PLT_learning_3,B,2014_Mrz_25_1802,P25,
stim_fb/ques.jpg,stim_fb/negf.jpg,stim_fb/posf.jpg,stim_03/f.jpg,stim_03/e.jpg,1,3,f,3,53,233,41,j,0,0.566541240511,03,03,60.0232280953,PLT_learning_3,B,2014_Mrz_25_1802,P25,
stim_fb/ques.jpg,stim_fb/negf.jpg,stim_fb/posf.jpg,stim_03/e.jpg,stim_03/f.jpg,2,3,j,3,54,234,50,f,0,1.03303504697,03,03,60.0232280953,PLT_learning_3,B,2014_Mrz_25_1802,P25,
stim_fb/ques.jpg,stim_fb/negf.jpg,stim_fb/posf.jpg,stim_03/b.jpg,stim_03/a.jpg,1,1,f,3,55,235,0,f,1,0.699807307439,03,03,60.0232280953,PLT_learning_3,B,2014_Mrz_25_1802,P25,
stim_fb/ques.jpg,stim_fb/posf.jpg,stim_fb/negf.jpg,stim_03/d.jpg,stim_03/c.jpg,1,2,f,3,56,236,29,j,0,0.616502123663,03,03,60.0232280953,PLT_learning_3,B,2014_Mrz_25_1802,P25,
stim_fb/ques.jpg,stim_fb/posf.jpg,stim_fb/negf.jpg,stim_03/c.jpg,stim_03/d.jpg,2,2,j,3,57,237,38,f,0,0.53322197419,03,03,60.0232280953,PLT_learning_3,B,2014_Mrz_25_1802,P25,
stim_fb/ques.jpg,stim_fb/negf.jpg,stim_fb/posf.jpg,stim_03/f.jpg,stim_03/e.jpg,1,3,f,3,58,238,42,j,0,0.933051485885,03,03,60.0232280953,PLT_learning_3,B,2014_Mrz_25_1802,P25,
stim_fb/ques.jpg,stim_fb/negf.jpg,stim_fb/posf.jpg,stim_03/e.jpg,stim_03/f.jpg,2,3,j,3,59,239,54,j,1,0.516558330542,03,03,60.0232280953,PLT_learning_3,B,2014_Mrz_25_1802,P25,
stim_fb/ques.jpg,stim_fb/negf.jpg,stim_fb/posf.jpg,stim_03/a.jpg,stim_03/b.jpg,2,1,j,4,0,240,14,j,1,0.749768996589,03,03,60.0232280953,PLT_learning_3,B,2014_Mrz_25_1802,P25,
stim_fb/ques.jpg,stim_fb/negf.jpg,stim_fb/posf.jpg,stim_03/b.jpg,stim_03/a.jpg,1,1,f,4,1,241,0,j,0,0.583176367185,03,03,60.0232280953,PLT_learning_3,B,2014_Mrz_25_1802,P25,
stim_fb/ques.jpg,stim_fb/negf.jpg,stim_fb/posf.jpg,stim_03/f.jpg,stim_03/e.jpg,1,3,f,4,2,242,45,f,1,0.683171338671,03,03,60.0232280953,PLT_learning_3,B,2014_Mrz_25_1802,P25,
stim_fb/ques.jpg,stim_fb/posf.jpg,stim_fb/negf.jpg,stim_03/b.jpg,stim_03/a.jpg,1,1,f,4,3,243,9,f,1,0.666492856093,03,03,60.0232280953,PLT_learning_3,B,2014_Mrz_25_1802,P25,
stim_fb/ques.jpg,stim_fb/negf.jpg,stim_fb/posf.jpg,stim_03/b.jpg,stim_03/a.jpg,1,1,f,4,4,244,2,j,0,0.749767877805,03,03,60.0232280953,PLT_learning_3,B,2014_Mrz_25_1802,P25,
stim_fb/ques.jpg,stim_fb/negf.jpg,stim_fb/posf.jpg,stim_03/e.jpg,stim_03/f.jpg,2,3,j,4,5,245,50,j,1,0.68315903204,03,03,60.0232280953,PLT_learning_3,B,2014_Mrz_25_1802,P25,
stim_fb/ques.jpg,stim_fb/posf.jpg,stim_fb/negf.jpg,stim_03/f.jpg,stim_03/e.jpg,1,3,f,4,6,246,49,f,1,0.533218401295,03,03,60.0232280953,PLT_learning_3,B,2014_Mrz_25_1802,P25,
stim_fb/ques.jpg,stim_fb/negf.jpg,stim_fb/posf.jpg,stim_03/d.jpg,stim_03/c.jpg,1,2,f,4,7,247,21,j,0,0.633184597165,03,03,60.0232280953,PLT_learning_3,B,2014_Mrz_25_1802,P25,
stim_fb/ques.jpg,stim_fb/negf.jpg,stim_fb/posf.jpg,stim_03/a.jpg,stim_03/b.jpg,2,1,j,4,8,248,12,j,1,0.533201006005,03,03,60.0232280953,PLT_learning_3,B,2014_Mrz_25_1802,P25,
stim_fb/ques.jpg,stim_fb/posf.jpg,stim_fb/negf.jpg,stim_03/c.jpg,stim_03/d.jpg,2,2,j,4,9,249,38,j,1,0.933073482629,03,03,60.0232280953,PLT_learning_3,B,2014_Mrz_25_1802,P25,
stim_fb/ques.jpg,stim_fb/negf.jpg,stim_fb/posf.jpg,stim_03/d.jpg,stim_03/c.jpg,1,2,f,4,10,250,25,f,1,0.716517001689,03,03,60.0232280953,PLT_learning_3,B,2014_Mrz_25_1802,P25,
stim_fb/ques.jpg,stim_fb/posf.jpg,stim_fb/negf.jpg,stim_03/f.jpg,stim_03/e.jpg,1,3,f,4,11,251,48,j,0,0.833069927783,03,03,60.0232280953,PLT_learning_3,B,2014_Mrz_25_1802,P25,
stim_fb/ques.jpg,stim_fb/negf.jpg,stim_fb/posf.jpg,stim_03/c.jpg,stim_03/d.jpg,2,2,j,4,12,252,36,f,0,0.79974347357,03,03,60.0232280953,PLT_learning_3,B,2014_Mrz_25_1802,P25,
stim_fb/ques.jpg,stim_fb/negf.jpg,stim_fb/posf.jpg,stim_03/f.jpg,stim_03/e.jpg,1,3,f,4,13,253,40,j,0,0.83310488077,03,03,60.0232280953,PLT_learning_3,B,2014_Mrz_25_1802,P25,
stim_fb/ques.jpg,stim_fb/negf.jpg,stim_fb/posf.jpg,stim_03/a.jpg,stim_03/b.jpg,2,1,j,4,14,254,17,j,1,0.549750317103,03,03,60.0232280953,PLT_learning_3,B,2014_Mrz_25_1802,P25,
stim_fb/ques.jpg,stim_fb/negf.jpg,stim_fb/posf.jpg,stim_03/b.jpg,stim_03/a.jpg,1,1,f,4,15,255,6,f,1,0.749793059476,03,03,60.0232280953,PLT_learning_3,B,2014_Mrz_25_1802,P25,
stim_fb/ques.jpg,stim_fb/negf.jpg,stim_fb/posf.jpg,stim_03/f.jpg,stim_03/e.jpg,1,3,f,4,16,256,44,j,0,0.849738894674,03,03,60.0232280953,PLT_learning_3,B,2014_Mrz_25_1802,P25,
stim_fb/ques.jpg,stim_fb/posf.jpg,stim_fb/negf.jpg,stim_03/d.jpg,stim_03/c.jpg,1,2,f,4,17,257,29,j,0,0.649831107166,03,03,60.0232280953,PLT_learning_3,B,2014_Mrz_25_1802,P25,
stim_fb/ques.jpg,stim_fb/negf.jpg,stim_fb/posf.jpg,stim_03/d.jpg,stim_03/c.jpg,1,2,f,4,18,258,24,j,0,0.599829613951,03,03,60.0232280953,PLT_learning_3,B,2014_Mrz_25_1802,P25,
stim_fb/ques.jpg,stim_fb/negf.jpg,stim_fb/posf.jpg,stim_03/c.jpg,stim_03/d.jpg,2,2,j,4,19,259,35,f,0,0.849805871363,03,03,60.0232280953,PLT_learning_3,B,2014_Mrz_25_1802,P25,
stim_fb/ques.jpg,stim_fb/negf.jpg,stim_fb/posf.jpg,stim_03/a.jpg,stim_03/b.jpg,2,1,j,4,20,260,16,j,1,0.499879240462,03,03,60.0232280953,PLT_learning_3,B,2014_Mrz_25_1802,P25,
stim_fb/ques.jpg,stim_fb/negf.jpg,stim_fb/posf.jpg,stim_03/f.jpg,stim_03/e.jpg,1,3,f,4,21,261,41,j,0,0.766425100468,03,03,60.0232280953,PLT_learning_3,B,2014_Mrz_25_1802,P25,
stim_fb/ques.jpg,stim_fb/posf.jpg,stim_fb/negf.jpg,stim_03/a.jpg,stim_03/b.jpg,2,1,j,4,22,262,19,j,1,0.716480887808,03,03,60.0232280953,PLT_learning_3,B,2014_Mrz_25_1802,P25,
stim_fb/ques.jpg,stim_fb/posf.jpg,stim_fb/negf.jpg,stim_03/e.jpg,stim_03/f.jpg,2,3,j,4,23,263,56,f,0,0.533196660188,03,03,60.0232280953,PLT_learning_3,B,2014_Mrz_25_1802,P25,
stim_fb/ques.jpg,stim_fb/posf.jpg,stim_fb/negf.jpg,stim_03/c.jpg,stim_03/d.jpg,2,2,j,4,24,264,37,j,1,0.849771249195,03,03,60.0232280953,PLT_learning_3,B,2014_Mrz_25_1802,P25,
stim_fb/ques.jpg,stim_fb/negf.jpg,stim_fb/posf.jpg,stim_03/c.jpg,stim_03/d.jpg,2,2,j,4,25,265,30,j,1,0.716517031764,03,03,60.0232280953,PLT_learning_3,B,2014_Mrz_25_1802,P25,
stim_fb/ques.jpg,stim_fb/negf.jpg,stim_fb/posf.jpg,stim_03/d.jpg,stim_03/c.jpg,1,2,f,4,26,266,20,f,1,0.633168910124,03,03,60.0232280953,PLT_learning_3,B,2014_Mrz_25_1802,P25,
stim_fb/ques.jpg,stim_fb/posf.jpg,stim_fb/negf.jpg,stim_03/c.jpg,stim_03/d.jpg,2,2,j,4,27,267,39,f,0,0.533217950175,03,03,60.0232280953,PLT_learning_3,B,2014_Mrz_25_1802,P25,
stim_fb/ques.jpg,stim_fb/negf.jpg,stim_fb/posf.jpg,stim_03/e.jpg,stim_03/f.jpg,2,3,j,4,28,268,53,j,1,0.499876133727,03,03,60.0232280953,PLT_learning_3,B,2014_Mrz_25_1802,P25,
stim_fb/ques.jpg,stim_fb/negf.jpg,stim_fb/posf.jpg,stim_03/b.jpg,stim_03/a.jpg,1,1,f,4,29,269,3,j,0,0.466553862927,03,03,60.0232280953,PLT_learning_3,B,2014_Mrz_25_1802,P25,
stim_fb/ques.jpg,stim_fb/negf.jpg,stim_fb/posf.jpg,stim_03/c.jpg,stim_03/d.jpg,2,2,j,4,30,270,32,j,1,0.383241373969,03,03,60.0232280953,PLT_learning_3,B,2014_Mrz_25_1802,P25,
stim_fb/ques.jpg,stim_fb/negf.jpg,stim_fb/posf.jpg,stim_03/a.jpg,stim_03/b.jpg,2,1,j,4,31,271,11,f,0,0.399914924266,03,03,60.0232280953,PLT_learning_3,B,2014_Mrz_25_1802,P25,
stim_fb/ques.jpg,stim_fb/posf.jpg,stim_fb/negf.jpg,stim_03/f.jpg,stim_03/e.jpg,1,3,f,4,32,272,47,j,0,0.766452967826,03,03,60.0232280953,PLT_learning_3,B,2014_Mrz_25_1802,P25,
stim_fb/ques.jpg,stim_fb/negf.jpg,stim_fb/posf.jpg,stim_03/f.jpg,stim_03/e.jpg,1,3,f,4,33,273,42,j,0,0.583180773148,03,03,60.0232280953,PLT_learning_3,B,2014_Mrz_25_1802,P25,
stim_fb/ques.jpg,stim_fb/negf.jpg,stim_fb/posf.jpg,stim_03/f.jpg,stim_03/e.jpg,1,3,f,4,34,274,43,j,0,0.549926233914,03,03,60.0232280953,PLT_learning_3,B,2014_Mrz_25_1802,P25,
stim_fb/ques.jpg,stim_fb/negf.jpg,stim_fb/posf.jpg,stim_03/e.jpg,stim_03/f.jpg,2,3,j,4,35,275,51,j,1,0.599843310039,03,03,60.0232280953,PLT_learning_3,B,2014_Mrz_25_1802,P25,
stim_fb/ques.jpg,stim_fb/posf.jpg,stim_fb/negf.jpg,stim_03/a.jpg,stim_03/b.jpg,2,1,j,4,36,276,18,f,0,0.716477438225,03,03,60.0232280953,PLT_learning_3,B,2014_Mrz_25_1802,P25,
stim_fb/ques.jpg,stim_fb/negf.jpg,stim_fb/posf.jpg,stim_03/c.jpg,stim_03/d.jpg,2,2,j,4,37,277,31,j,1,0.549839326624,03,03,60.0232280953,PLT_learning_3,B,2014_Mrz_25_1802,P25,
stim_fb/ques.jpg,stim_fb/posf.jpg,stim_fb/negf.jpg,stim_03/d.jpg,stim_03/c.jpg,1,2,f,4,38,278,28,j,0,0.433187899383,03,03,60.0232280953,PLT_learning_3,B,2014_Mrz_25_1802,P25,
stim_fb/ques.jpg,stim_fb/negf.jpg,stim_fb/posf.jpg,stim_03/a.jpg,stim_03/b.jpg,2,1,j,4,39,279,15,f,0,0.816474466828,03,03,60.0232280953,PLT_learning_3,B,2014_Mrz_25_1802,P25,
stim_fb/ques.jpg,stim_fb/posf.jpg,stim_fb/negf.jpg,stim_03/e.jpg,stim_03/f.jpg,2,3,j,4,40,280,58,j,1,0.783142650271,03,03,60.0232280953,PLT_learning_3,B,2014_Mrz_25_1802,P25,
stim_fb/ques.jpg,stim_fb/posf.jpg,stim_fb/negf.jpg,stim_03/f.jpg,stim_03/e.jpg,1,3,f,4,41,281,46,j,0,0.68312844291,03,03,60.0232280953,PLT_learning_3,B,2014_Mrz_25_1802,P25,
stim_fb/ques.jpg,stim_fb/negf.jpg,stim_fb/posf.jpg,stim_03/a.jpg,stim_03/b.jpg,2,1,j,4,42,282,10,j,1,0.533180128041,03,03,60.0232280953,PLT_learning_3,B,2014_Mrz_25_1802,P25,
stim_fb/ques.jpg,stim_fb/negf.jpg,stim_fb/posf.jpg,stim_03/a.jpg,stim_03/b.jpg,2,1,j,4,43,283,13,j,1,0.566503677026,03,03,60.0232280953,PLT_learning_3,B,2014_Mrz_25_1802,P25,
stim_fb/ques.jpg,stim_fb/negf.jpg,stim_fb/posf.jpg,stim_03/c.jpg,stim_03/d.jpg,2,2,j,4,44,284,33,f,0,0.533206004446,03,03,60.0232280953,PLT_learning_3,B,2014_Mrz_25_1802,P25,
stim_fb/ques.jpg,stim_fb/negf.jpg,stim_fb/posf.jpg,stim_03/e.jpg,stim_03/f.jpg,2,3,j,4,45,285,52,j,1,0.399928304567,03,03,60.0232280953,PLT_learning_3,B,2014_Mrz_25_1802,P25,
stim_fb/ques.jpg,stim_fb/negf.jpg,stim_fb/posf.jpg,stim_03/d.jpg,stim_03/c.jpg,1,2,f,4,46,286,23,f,1,0.566425304976,03,03,60.0232280953,PLT_learning_3,B,2014_Mrz_25_1802,P25,
stim_fb/ques.jpg,stim_fb/posf.jpg,stim_fb/negf.jpg,stim_03/d.jpg,stim_03/c.jpg,1,2,f,4,47,287,27,f,1,0.683149853197,03,03,60.0232280953,PLT_learning_3,B,2014_Mrz_25_1802,P25,
stim_fb/ques.jpg,stim_fb/posf.jpg,stim_fb/negf.jpg,stim_03/e.jpg,stim_03/f.jpg,2,3,j,4,48,288,57,j,1,0.499845222799,03,03,60.0232280953,PLT_learning_3,B,2014_Mrz_25_1802,P25,
stim_fb/ques.jpg,stim_fb/negf.jpg,stim_fb/posf.jpg,stim_03/e.jpg,stim_03/f.jpg,2,3,j,4,49,289,54,j,1,0.599867950361,03,03,60.0232280953,PLT_learning_3,B,2014_Mrz_25_1802,P25,
stim_fb/ques.jpg,stim_fb/negf.jpg,stim_fb/posf.jpg,stim_03/d.jpg,stim_03/c.jpg,1,2,f,4,50,290,26,f,1,0.566543237481,03,03,60.0232280953,PLT_learning_3,B,2014_Mrz_25_1802,P25,
stim_fb/ques.jpg,stim_fb/posf.jpg,stim_fb/negf.jpg,stim_03/b.jpg,stim_03/a.jpg,1,1,f,4,51,291,8,j,0,0.583263289511,03,03,60.0232280953,PLT_learning_3,B,2014_Mrz_25_1802,P25,
stim_fb/ques.jpg,stim_fb/negf.jpg,stim_fb/posf.jpg,stim_03/b.jpg,stim_03/a.jpg,1,1,f,4,52,292,4,f,1,0.633217890027,03,03,60.0232280953,PLT_learning_3,B,2014_Mrz_25_1802,P25,
stim_fb/ques.jpg,stim_fb/negf.jpg,stim_fb/posf.jpg,stim_03/b.jpg,stim_03/a.jpg,1,1,f,4,53,293,7,f,1,0.6665037071,03,03,60.0232280953,PLT_learning_3,B,2014_Mrz_25_1802,P25,
stim_fb/ques.jpg,stim_fb/negf.jpg,stim_fb/posf.jpg,stim_03/c.jpg,stim_03/d.jpg,2,2,j,4,54,294,34,j,1,0.799779286699,03,03,60.0232280953,PLT_learning_3,B,2014_Mrz_25_1802,P25,
stim_fb/ques.jpg,stim_fb/negf.jpg,stim_fb/posf.jpg,stim_03/b.jpg,stim_03/a.jpg,1,1,f,4,55,295,5,f,1,0.549863527856,03,03,60.0232280953,PLT_learning_3,B,2014_Mrz_25_1802,P25,
stim_fb/ques.jpg,stim_fb/negf.jpg,stim_fb/posf.jpg,stim_03/b.jpg,stim_03/a.jpg,1,1,f,4,56,296,1,f,1,0.599849878385,03,03,60.0232280953,PLT_learning_3,B,2014_Mrz_25_1802,P25,
stim_fb/ques.jpg,stim_fb/posf.jpg,stim_fb/negf.jpg,stim_03/e.jpg,stim_03/f.jpg,2,3,j,4,57,297,59,j,1,0.69982852825,03,03,60.0232280953,PLT_learning_3,B,2014_Mrz_25_1802,P25,
stim_fb/ques.jpg,stim_fb/negf.jpg,stim_fb/posf.jpg,stim_03/d.jpg,stim_03/c.jpg,1,2,f,4,58,298,22,f,1,0.333274102923,03,03,60.0232280953,PLT_learning_3,B,2014_Mrz_25_1802,P25,
stim_fb/ques.jpg,stim_fb/negf.jpg,stim_fb/posf.jpg,stim_03/e.jpg,stim_03/f.jpg,2,3,j,4,59,299,55,j,1,0.51654884193,03,03,60.0232280953,PLT_learning_3,B,2014_Mrz_25_1802,P25,
stim_fb/ques.jpg,stim_fb/posf.jpg,stim_fb/negf.jpg,stim_03/b.jpg,stim_03/a.jpg,1,1,f,5,0,300,9,j,0,0.749815137424,03,03,60.0232280953,PLT_learning_3,B,2014_Mrz_25_1802,P25,
stim_fb/ques.jpg,stim_fb/negf.jpg,stim_fb/posf.jpg,stim_03/a.jpg,stim_03/b.jpg,2,1,j,5,1,301,15,j,1,0.39989127942,03,03,60.0232280953,PLT_learning_3,B,2014_Mrz_25_1802,P25,
stim_fb/ques.jpg,stim_fb/negf.jpg,stim_fb/posf.jpg,stim_03/e.jpg,stim_03/f.jpg,2,3,j,5,2,302,53,f,0,0.599784564838,03,03,60.0232280953,PLT_learning_3,B,2014_Mrz_25_1802,P25,
stim_fb/ques.jpg,stim_fb/posf.jpg,stim_fb/negf.jpg,stim_03/f.jpg,stim_03/e.jpg,1,3,f,5,3,303,47,j,0,0.599844113036,03,03,60.0232280953,PLT_learning_3,B,2014_Mrz_25_1802,P25,
stim_fb/ques.jpg,stim_fb/negf.jpg,stim_fb/posf.jpg,stim_03/d.jpg,stim_03/c.jpg,1,2,f,5,4,304,20,f,1,0.516844724305,03,03,60.0232280953,PLT_learning_3,B,2014_Mrz_25_1802,P25,
stim_fb/ques.jpg,stim_fb/posf.jpg,stim_fb/negf.jpg,stim_03/a.jpg,stim_03/b.jpg,2,1,j,5,5,305,18,j,1,0.316604757088,03,03,60.0232280953,PLT_learning_3,B,2014_Mrz_25_1802,P25,
stim_fb/ques.jpg,stim_fb/negf.jpg,stim_fb/posf.jpg,stim_03/f.jpg,stim_03/e.jpg,1,3,f,5,6,306,42,j,0,0.999728619601,03,03,60.0232280953,PLT_learning_3,B,2014_Mrz_25_1802,P25,
stim_fb/ques.jpg,stim_fb/posf.jpg,stim_fb/negf.jpg,stim_03/d.jpg,stim_03/c.jpg,1,2,f,5,7,307,29,j,0,0.966380255864,03,03,60.0232280953,PLT_learning_3,B,2014_Mrz_25_1802,P25,
stim_fb/ques.jpg,stim_fb/negf.jpg,stim_fb/posf.jpg,stim_03/b.jpg,stim_03/a.jpg,1,1,f,5,8,308,7,j,0,0.816426819249,03,03,60.0232280953,PLT_learning_3,B,2014_Mrz_25_1802,P25,
stim_fb/ques.jpg,stim_fb/negf.jpg,stim_fb/posf.jpg,stim_03/f.jpg,stim_03/e.jpg,1,3,f,5,9,309,40,j,0,0.849736491691,03,03,60.0232280953,PLT_learning_3,B,2014_Mrz_25_1802,P25,
stim_fb/ques.jpg,stim_fb/negf.jpg,stim_fb/posf.jpg,stim_03/e.jpg,stim_03/f.jpg,2,3,j,5,10,310,52,j,1,0.649862661696,03,03,60.0232280953,PLT_learning_3,B,2014_Mrz_25_1802,P25,
stim_fb/ques.jpg,stim_fb/negf.jpg,stim_fb/posf.jpg,stim_03/c.jpg,stim_03/d.jpg,2,2,j,5,11,311,34,f,0,1.01637786341,03,03,60.0232280953,PLT_learning_3,B,2014_Mrz_25_1802,P25,
stim_fb/ques.jpg,stim_fb/negf.jpg,stim_fb/posf.jpg,stim_03/d.jpg,stim_03/c.jpg,1,2,f,5,12,312,22,j,0,0.799784781375,03,03,60.0232280953,PLT_learning_3,B,2014_Mrz_25_1802,P25,
stim_fb/ques.jpg,stim_fb/negf.jpg,stim_fb/posf.jpg,stim_03/c.jpg,stim_03/d.jpg,2,2,j,5,13,313,36,j,1,0.683099083846,03,03,60.0232280953,PLT_learning_3,B,2014_Mrz_25_1802,P25,
stim_fb/ques.jpg,stim_fb/negf.jpg,stim_fb/posf.jpg,stim_03/b.jpg,stim_03/a.jpg,1,1,f,5,14,314,1,f,1,0.716452455046,03,03,60.0232280953,PLT_learning_3,B,2014_Mrz_25_1802,P25,
stim_fb/ques.jpg,stim_fb/negf.jpg,stim_fb/posf.jpg,stim_03/c.jpg,stim_03/d.jpg,2,2,j,5,15,315,31,j,1,0.76642890193,03,03,60.0232280953,PLT_learning_3,B,2014_Mrz_25_1802,P25,
stim_fb/ques.jpg,stim_fb/posf.jpg,stim_fb/negf.jpg,stim_03/e.jpg,stim_03/f.jpg,2,3,j,5,16,316,59,f,0,0.766458282047,03,03,60.0232280953,PLT_learning_3,B,2014_Mrz_25_1802,P25,
stim_fb/ques.jpg,stim_fb/negf.jpg,stim_fb/posf.jpg,stim_03/f.jpg,stim_03/e.jpg,1,3,f,5,17,317,43,j,0,0.783127925624,03,03,60.0232280953,PLT_learning_3,B,2014_Mrz_25_1802,P25,
stim_fb/ques.jpg,stim_fb/posf.jpg,stim_fb/negf.jpg,stim_03/f.jpg,stim_03/e.jpg,1,3,f,5,18,318,46,f,1,0.73314258561,03,03,60.0232280953,PLT_learning_3,B,2014_Mrz_25_1802,P25,
stim_fb/ques.jpg,stim_fb/posf.jpg,stim_fb/negf.jpg,stim_03/c.jpg,stim_03/d.jpg,2,2,j,5,19,319,37,f,0,0.899740989389,03,03,60.0232280953,PLT_learning_3,B,2014_Mrz_25_1802,P25,
stim_fb/ques.jpg,stim_fb/posf.jpg,stim_fb/negf.jpg,stim_03/c.jpg,stim_03/d.jpg,2,2,j,5,20,320,38,f,0,0.549846755112,03,03,60.0232280953,PLT_learning_3,B,2014_Mrz_25_1802,P25,
stim_fb/ques.jpg,stim_fb/negf.jpg,stim_fb/posf.jpg,stim_03/f.jpg,stim_03/e.jpg,1,3,f,5,21,321,41,j,0,0.733140922472,03,03,60.0232280953,PLT_learning_3,B,2014_Mrz_25_1802,P25,
stim_fb/ques.jpg,stim_fb/posf.jpg,stim_fb/negf.jpg,stim_03/c.jpg,stim_03/d.jpg,2,2,j,5,22,322,39,j,1,0.73321755018,03,03,60.0232280953,PLT_learning_3,B,2014_Mrz_25_1802,P25,
stim_fb/ques.jpg,stim_fb/posf.jpg,stim_fb/negf.jpg,stim_03/e.jpg,stim_03/f.jpg,2,3,j,5,23,323,56,j,1,0.683145835199,03,03,60.0232280953,PLT_learning_3,B,2014_Mrz_25_1802,P25,
stim_fb/ques.jpg,stim_fb/negf.jpg,stim_fb/posf.jpg,stim_03/b.jpg,stim_03/a.jpg,1,1,f,5,24,324,5,f,1,0.516566937968,03,03,60.0232280953,PLT_learning_3,B,2014_Mrz_25_1802,P25,
stim_fb/ques.jpg,stim_fb/negf.jpg,stim_fb/posf.jpg,stim_03/d.jpg,stim_03/c.jpg,1,2,f,5,25,325,23,j,0,0.466549360721,03,03,60.0232280953,PLT_learning_3,B,2014_Mrz_25_1802,P25,
stim_fb/ques.jpg,stim_fb/negf.jpg,stim_fb/posf.jpg,stim_03/d.jpg,stim_03/c.jpg,1,2,f,5,26,326,21,f,1,0.483240137892,03,03,60.0232280953,PLT_learning_3,B,2014_Mrz_25_1802,P25,
stim_fb/ques.jpg,stim_fb/negf.jpg,stim_fb/posf.jpg,stim_03/a.jpg,stim_03/b.jpg,2,1,j,5,27,327,17,j,1,0.516569190571,03,03,60.0232280953,PLT_learning_3,B,2014_Mrz_25_1802,P25,
stim_fb/ques.jpg,stim_fb/negf.jpg,stim_fb/posf.jpg,stim_03/a.jpg,stim_03/b.jpg,2,1,j,5,28,328,13,j,1,0.566555914029,03,03,60.0232280953,PLT_learning_3,B,2014_Mrz_25_1802,P25,
stim_fb/ques.jpg,stim_fb/negf.jpg,stim_fb/posf.jpg,stim_03/d.jpg,stim_03/c.jpg,1,2,f,5,29,329,26,f,1,0.516520938483,03,03,60.0232280953,PLT_learning_3,B,2014_Mrz_25_1802,P25,
stim_fb/ques.jpg,stim_fb/negf.jpg,stim_fb/posf.jpg,stim_03/b.jpg,stim_03/a.jpg,1,1,f,5,30,330,6,j,0,0.533186085871,03,03,60.0232280953,PLT_learning_3,B,2014_Mrz_25_1802,P25,
stim_fb/ques.jpg,stim_fb/negf.jpg,stim_fb/posf.jpg,stim_03/f.jpg,stim_03/e.jpg,1,3,f,5,31,331,45,j,0,0.549839645417,03,03,60.0232280953,PLT_learning_3,B,2014_Mrz_25_1802,P25,
stim_fb/ques.jpg,stim_fb/negf.jpg,stim_fb/posf.jpg,stim_03/c.jpg,stim_03/d.jpg,2,2,j,5,32,332,33,j,1,0.433188284343,03,03,60.0232280953,PLT_learning_3,B,2014_Mrz_25_1802,P25,
stim_fb/ques.jpg,stim_fb/negf.jpg,stim_fb/posf.jpg,stim_03/e.jpg,stim_03/f.jpg,2,3,j,5,33,333,54,j,1,0.616551515584,03,03,60.0232280953,PLT_learning_3,B,2014_Mrz_25_1802,P25,
stim_fb/ques.jpg,stim_fb/posf.jpg,stim_fb/negf.jpg,stim_03/f.jpg,stim_03/e.jpg,1,3,f,5,34,334,48,f,1,0.466560921494,03,03,60.0232280953,PLT_learning_3,B,2014_Mrz_25_1802,P25,
stim_fb/ques.jpg,stim_fb/negf.jpg,stim_fb/posf.jpg,stim_03/f.jpg,stim_03/e.jpg,1,3,f,5,35,335,44,j,0,0.383250366351,03,03,60.0232280953,PLT_learning_3,B,2014_Mrz_25_1802,P25,
stim_fb/ques.jpg,stim_fb/negf.jpg,stim_fb/posf.jpg,stim_03/a.jpg,stim_03/b.jpg,2,1,j,5,36,336,14,j,1,0.699854708408,03,03,60.0232280953,PLT_learning_3,B,2014_Mrz_25_1802,P25,
stim_fb/ques.jpg,stim_fb/negf.jpg,stim_fb/posf.jpg,stim_03/e.jpg,stim_03/f.jpg,2,3,j,5,37,337,50,f,0,0.816459164744,03,03,60.0232280953,PLT_learning_3,B,2014_Mrz_25_1802,P25,
stim_fb/ques.jpg,stim_fb/posf.jpg,stim_fb/negf.jpg,stim_03/a.jpg,stim_03/b.jpg,2,1,j,5,38,338,19,j,1,0.533228022239,03,03,60.0232280953,PLT_learning_3,B,2014_Mrz_25_1802,P25,
stim_fb/ques.jpg,stim_fb/posf.jpg,stim_fb/negf.jpg,stim_03/b.jpg,stim_03/a.jpg,1,1,f,5,39,339,8,j,0,0.483177642356,03,03,60.0232280953,PLT_learning_3,B,2014_Mrz_25_1802,P25,
stim_fb/ques.jpg,stim_fb/negf.jpg,stim_fb/posf.jpg,stim_03/b.jpg,stim_03/a.jpg,1,1,f,5,40,340,4,j,0,0.716486854661,03,03,60.0232280953,PLT_learning_3,B,2014_Mrz_25_1802,P25,
stim_fb/ques.jpg,stim_fb/negf.jpg,stim_fb/posf.jpg,stim_03/b.jpg,stim_03/a.jpg,1,1,f,5,41,341,2,f,1,0.633197463187,03,03,60.0232280953,PLT_learning_3,B,2014_Mrz_25_1802,P25,
stim_fb/ques.jpg,stim_fb/negf.jpg,stim_fb/posf.jpg,stim_03/d.jpg,stim_03/c.jpg,1,2,f,5,42,342,25,j,0,0.899708944635,03,03,60.0232280953,PLT_learning_3,B,2014_Mrz_25_1802,P25,
stim_fb/ques.jpg,stim_fb/negf.jpg,stim_fb/posf.jpg,stim_03/b.jpg,stim_03/a.jpg,1,1,f,5,43,343,3,f,1,0.649812969026,03,03,60.0232280953,PLT_learning_3,B,2014_Mrz_25_1802,P25,
stim_fb/ques.jpg,stim_fb/negf.jpg,stim_fb/posf.jpg,stim_03/a.jpg,stim_03/b.jpg,2,1,j,5,44,344,11,j,1,0.583263677479,03,03,60.0232280953,PLT_learning_3,B,2014_Mrz_25_1802,P25,
stim_fb/ques.jpg,stim_fb/negf.jpg,stim_fb/posf.jpg,stim_03/a.jpg,stim_03/b.jpg,2,1,j,5,45,345,16,j,1,0.549866571429,03,03,60.0232280953,PLT_learning_3,B,2014_Mrz_25_1802,P25,
stim_fb/ques.jpg,stim_fb/negf.jpg,stim_fb/posf.jpg,stim_03/c.jpg,stim_03/d.jpg,2,2,j,5,46,346,30,f,0,0.933075792378,03,03,60.0232280953,PLT_learning_3,B,2014_Mrz_25_1802,P25,
stim_fb/ques.jpg,stim_fb/negf.jpg,stim_fb/posf.jpg,stim_03/d.jpg,stim_03/c.jpg,1,2,f,5,47,347,24,j,0,0.499880263003,03,03,60.0232280953,PLT_learning_3,B,2014_Mrz_25_1802,P25,
stim_fb/ques.jpg,stim_fb/posf.jpg,stim_fb/negf.jpg,stim_03/d.jpg,stim_03/c.jpg,1,2,f,5,48,348,28,f,1,0.699821472692,03,03,60.0232280953,PLT_learning_3,B,2014_Mrz_25_1802,P25,
stim_fb/ques.jpg,stim_fb/negf.jpg,stim_fb/posf.jpg,stim_03/c.jpg,stim_03/d.jpg,2,2,j,5,49,349,35,j,1,0.833061777499,03,03,60.0232280953,PLT_learning_3,B,2014_Mrz_25_1802,P25,
stim_fb/ques.jpg,stim_fb/negf.jpg,stim_fb/posf.jpg,stim_03/a.jpg,stim_03/b.jpg,2,1,j,5,50,350,10,j,1,0.533157626043,03,03,60.0232280953,PLT_learning_3,B,2014_Mrz_25_1802,P25,
stim_fb/ques.jpg,stim_fb/posf.jpg,stim_fb/negf.jpg,stim_03/e.jpg,stim_03/f.jpg,2,3,j,5,51,351,58,f,0,0.649809074333,03,03,60.0232280953,PLT_learning_3,B,2014_Mrz_25_1802,P25,
stim_fb/ques.jpg,stim_fb/posf.jpg,stim_fb/negf.jpg,stim_03/e.jpg,stim_03/f.jpg,2,3,j,5,52,352,57,j,1,0.499877971302,03,03,60.0232280953,PLT_learning_3,B,2014_Mrz_25_1802,P25,
stim_fb/ques.jpg,stim_fb/posf.jpg,stim_fb/negf.jpg,stim_03/f.jpg,stim_03/e.jpg,1,3,f,5,53,353,49,f,1,0.416547629917,03,03,60.0232280953,PLT_learning_3,B,2014_Mrz_25_1802,P25,
stim_fb/ques.jpg,stim_fb/negf.jpg,stim_fb/posf.jpg,stim_03/e.jpg,stim_03/f.jpg,2,3,j,5,54,354,51,j,1,0.499951537389,03,03,60.0232280953,PLT_learning_3,B,2014_Mrz_25_1802,P25,
stim_fb/ques.jpg,stim_fb/negf.jpg,stim_fb/posf.jpg,stim_03/e.jpg,stim_03/f.jpg,2,3,j,5,55,355,55,j,1,0.51653849618,03,03,60.0232280953,PLT_learning_3,B,2014_Mrz_25_1802,P25,
stim_fb/ques.jpg,stim_fb/negf.jpg,stim_fb/posf.jpg,stim_03/c.jpg,stim_03/d.jpg,2,2,j,5,56,356,32,f,0,0.649828887646,03,03,60.0232280953,PLT_learning_3,B,2014_Mrz_25_1802,P25,
stim_fb/ques.jpg,stim_fb/posf.jpg,stim_fb/negf.jpg,stim_03/d.jpg,stim_03/c.jpg,1,2,f,5,57,357,27,j,0,0.299934599232,03,03,60.0232280953,PLT_learning_3,B,2014_Mrz_25_1802,P25,
stim_fb/ques.jpg,stim_fb/negf.jpg,stim_fb/posf.jpg,stim_03/b.jpg,stim_03/a.jpg,1,1,f,5,58,358,0,f,1,0.783169034938,03,03,60.0232280953,PLT_learning_3,B,2014_Mrz_25_1802,P25,
stim_fb/ques.jpg,stim_fb/negf.jpg,stim_fb/posf.jpg,stim_03/a.jpg,stim_03/b.jpg,2,1,j,5,59,359,12,j,1,0.483197350404,03,03,60.0232280953,PLT_learning_3,B,2014_Mrz_25_1802,P25,
