Fb3,Fb2,Fb1,Symbol2,Symbol1,PosCond,Pair,Correct,trials.thisRepN,trials.thisTrialN,trials.thisN,trials.thisIndex,Response.keys,Response.corr,Response.rt,Version,Session Number,frameRate,expName,StimCondition,date,Participant,
stim_fb/ques.jpg,stim_fb/negf.jpg,stim_fb/posf.jpg,stim_02/f.jpg,stim_02/e.jpg,1,3,f,0,0,0,45,f,1,1.04971634155,02,02,60.0193276301,PLT_learning_02,B,2014_Mrz_28_1637,P26,
stim_fb/ques.jpg,stim_fb/negf.jpg,stim_fb/posf.jpg,stim_02/a.jpg,stim_02/b.jpg,2,1,j,0,1,1,14,j,1,1.39960337289,02,02,60.0193276301,PLT_learning_02,B,2014_Mrz_28_1637,P26,
stim_fb/ques.jpg,stim_fb/negf.jpg,stim_fb/posf.jpg,stim_02/c.jpg,stim_02/d.jpg,2,2,j,0,2,2,35,f,0,0.966417768221,02,02,60.0193276301,PLT_learning_02,B,2014_Mrz_28_1637,P26,
stim_fb/ques.jpg,stim_fb/negf.jpg,stim_fb/posf.jpg,stim_02/b.jpg,stim_02/a.jpg,1,1,f,0,3,3,5,f,1,1.16633972098,02,02,60.0193276301,PLT_learning_02,B,2014_Mrz_28_1637,P26,
stim_fb/ques.jpg,stim_fb/negf.jpg,stim_fb/posf.jpg,stim_02/c.jpg,stim_02/d.jpg,2,2,j,0,4,4,34,j,1,0.89973824656,02,02,60.0193276301,PLT_learning_02,B,2014_Mrz_28_1637,P26,
stim_fb/ques.jpg,stim_fb/posf.jpg,stim_fb/negf.jpg,stim_02/a.jpg,stim_02/b.jpg,2,1,j,0,5,5,19,f,0,0.999693146317,02,02,60.0193276301,PLT_learning_02,B,2014_Mrz_28_1637,P26,
stim_fb/ques.jpg,stim_fb/negf.jpg,stim_fb/posf.jpg,stim_02/d.jpg,stim_02/c.jpg,1,2,f,0,6,6,20,f,1,0.783121540735,02,02,60.0193276301,PLT_learning_02,B,2014_Mrz_28_1637,P26,
stim_fb/ques.jpg,stim_fb/negf.jpg,stim_fb/posf.jpg,stim_02/a.jpg,stim_02/b.jpg,2,1,j,0,7,7,13,j,1,0.633184013714,02,02,60.0193276301,PLT_learning_02,B,2014_Mrz_28_1637,P26,
stim_fb/ques.jpg,stim_fb/posf.jpg,stim_fb/negf.jpg,stim_02/a.jpg,stim_02/b.jpg,2,1,j,0,8,8,18,f,0,0.766466239853,02,02,60.0193276301,PLT_learning_02,B,2014_Mrz_28_1637,P26,
stim_fb/ques.jpg,stim_fb/negf.jpg,stim_fb/posf.jpg,stim_02/f.jpg,stim_02/e.jpg,1,3,f,0,9,9,41,f,1,0.649826259105,02,02,60.0193276301,PLT_learning_02,B,2014_Mrz_28_1637,P26,
stim_fb/ques.jpg,stim_fb/negf.jpg,stim_fb/posf.jpg,stim_02/e.jpg,stim_02/f.jpg,2,3,j,0,10,10,54,j,1,0.399931354157,02,02,60.0193276301,PLT_learning_02,B,2014_Mrz_28_1637,P26,
stim_fb/ques.jpg,stim_fb/negf.jpg,stim_fb/posf.jpg,stim_02/e.jpg,stim_02/f.jpg,2,3,j,0,11,11,53,j,1,0.499878813396,02,02,60.0193276301,PLT_learning_02,B,2014_Mrz_28_1637,P26,
stim_fb/ques.jpg,stim_fb/negf.jpg,stim_fb/posf.jpg,stim_02/a.jpg,stim_02/b.jpg,2,1,j,0,12,12,11,f,0,0.749757008754,02,02,60.0193276301,PLT_learning_02,B,2014_Mrz_28_1637,P26,
stim_fb/ques.jpg,stim_fb/posf.jpg,stim_fb/negf.jpg,stim_02/c.jpg,stim_02/d.jpg,2,2,j,0,13,13,39,j,1,0.88310025075,02,02,60.0193276301,PLT_learning_02,B,2014_Mrz_28_1637,P26,
stim_fb/ques.jpg,stim_fb/negf.jpg,stim_fb/posf.jpg,stim_02/f.jpg,stim_02/e.jpg,1,3,f,0,14,14,43,f,1,0.599852143019,02,02,60.0193276301,PLT_learning_02,B,2014_Mrz_28_1637,P26,
stim_fb/ques.jpg,stim_fb/posf.jpg,stim_fb/negf.jpg,stim_02/b.jpg,stim_02/a.jpg,1,1,f,0,15,15,9,j,0,0.599834419914,02,02,60.0193276301,PLT_learning_02,B,2014_Mrz_28_1637,P26,
stim_fb/ques.jpg,stim_fb/posf.jpg,stim_fb/negf.jpg,stim_02/e.jpg,stim_02/f.jpg,2,3,j,0,16,16,56,j,1,0.499956177937,02,02,60.0193276301,PLT_learning_02,B,2014_Mrz_28_1637,P26,
stim_fb/ques.jpg,stim_fb/negf.jpg,stim_fb/posf.jpg,stim_02/b.jpg,stim_02/a.jpg,1,1,f,0,17,17,7,f,1,0.749820211051,02,02,60.0193276301,PLT_learning_02,B,2014_Mrz_28_1637,P26,
stim_fb/ques.jpg,stim_fb/negf.jpg,stim_fb/posf.jpg,stim_02/e.jpg,stim_02/f.jpg,2,3,j,0,18,18,52,j,1,0.649803829281,02,02,60.0193276301,PLT_learning_02,B,2014_Mrz_28_1637,P26,
stim_fb/ques.jpg,stim_fb/negf.jpg,stim_fb/posf.jpg,stim_02/c.jpg,stim_02/d.jpg,2,2,j,0,19,19,36,j,1,1.08304189652,02,02,60.0193276301,PLT_learning_02,B,2014_Mrz_28_1637,P26,
stim_fb/ques.jpg,stim_fb/posf.jpg,stim_fb/negf.jpg,stim_02/f.jpg,stim_02/e.jpg,1,3,f,0,20,20,49,f,1,0.533145776553,02,02,60.0193276301,PLT_learning_02,B,2014_Mrz_28_1637,P26,
stim_fb/ques.jpg,stim_fb/negf.jpg,stim_fb/posf.jpg,stim_02/b.jpg,stim_02/a.jpg,1,1,f,0,21,21,0,j,0,0.533215324638,02,02,60.0193276301,PLT_learning_02,B,2014_Mrz_28_1637,P26,
stim_fb/ques.jpg,stim_fb/posf.jpg,stim_fb/negf.jpg,stim_02/e.jpg,stim_02/f.jpg,2,3,j,0,22,22,59,j,1,0.499878169798,02,02,60.0193276301,PLT_learning_02,B,2014_Mrz_28_1637,P26,
stim_fb/ques.jpg,stim_fb/negf.jpg,stim_fb/posf.jpg,stim_02/f.jpg,stim_02/e.jpg,1,3,f,0,23,23,42,f,1,0.649814451717,02,02,60.0193276301,PLT_learning_02,B,2014_Mrz_28_1637,P26,
stim_fb/ques.jpg,stim_fb/negf.jpg,stim_fb/posf.jpg,stim_02/a.jpg,stim_02/b.jpg,2,1,j,0,24,24,17,f,0,0.933079070535,02,02,60.0193276301,PLT_learning_02,B,2014_Mrz_28_1637,P26,
stim_fb/ques.jpg,stim_fb/negf.jpg,stim_fb/posf.jpg,stim_02/f.jpg,stim_02/e.jpg,1,3,f,0,25,25,40,f,1,0.766452209937,02,02,60.0193276301,PLT_learning_02,B,2014_Mrz_28_1637,P26,
stim_fb/ques.jpg,stim_fb/negf.jpg,stim_fb/posf.jpg,stim_02/c.jpg,stim_02/d.jpg,2,2,j,0,26,26,32,j,1,0.649817362962,02,02,60.0193276301,PLT_learning_02,B,2014_Mrz_28_1637,P26,
stim_fb/ques.jpg,stim_fb/posf.jpg,stim_fb/negf.jpg,stim_02/c.jpg,stim_02/d.jpg,2,2,j,0,27,27,37,j,1,0.599845072426,02,02,60.0193276301,PLT_learning_02,B,2014_Mrz_28_1637,P26,
stim_fb/ques.jpg,stim_fb/negf.jpg,stim_fb/posf.jpg,stim_02/b.jpg,stim_02/a.jpg,1,1,f,0,28,28,4,f,1,1.01638700015,02,02,60.0193276301,PLT_learning_02,B,2014_Mrz_28_1637,P26,
stim_fb/ques.jpg,stim_fb/posf.jpg,stim_fb/negf.jpg,stim_02/f.jpg,stim_02/e.jpg,1,3,f,0,29,29,48,f,1,0.649829107191,02,02,60.0193276301,PLT_learning_02,B,2014_Mrz_28_1637,P26,
stim_fb/ques.jpg,stim_fb/negf.jpg,stim_fb/posf.jpg,stim_02/f.jpg,stim_02/e.jpg,1,3,f,0,30,30,44,f,1,0.566571056715,02,02,60.0193276301,PLT_learning_02,B,2014_Mrz_28_1637,P26,
stim_fb/ques.jpg,stim_fb/negf.jpg,stim_fb/posf.jpg,stim_02/c.jpg,stim_02/d.jpg,2,2,j,0,31,31,31,j,1,0.699824934305,02,02,60.0193276301,PLT_learning_02,B,2014_Mrz_28_1637,P26,
stim_fb/ques.jpg,stim_fb/negf.jpg,stim_fb/posf.jpg,stim_02/a.jpg,stim_02/b.jpg,2,1,j,0,32,32,15,j,1,0.916410311162,02,02,60.0193276301,PLT_learning_02,B,2014_Mrz_28_1637,P26,
stim_fb/ques.jpg,stim_fb/negf.jpg,stim_fb/posf.jpg,stim_02/c.jpg,stim_02/d.jpg,2,2,j,0,33,33,33,j,1,0.566510789729,02,02,60.0193276301,PLT_learning_02,B,2014_Mrz_28_1637,P26,
stim_fb/ques.jpg,stim_fb/negf.jpg,stim_fb/posf.jpg,stim_02/d.jpg,stim_02/c.jpg,1,2,f,0,34,34,23,j,0,0.716474539011,02,02,60.0193276301,PLT_learning_02,B,2014_Mrz_28_1637,P26,
stim_fb/ques.jpg,stim_fb/negf.jpg,stim_fb/posf.jpg,stim_02/a.jpg,stim_02/b.jpg,2,1,j,0,35,35,12,j,1,0.766474119464,02,02,60.0193276301,PLT_learning_02,B,2014_Mrz_28_1637,P26,
stim_fb/ques.jpg,stim_fb/negf.jpg,stim_fb/posf.jpg,stim_02/a.jpg,stim_02/b.jpg,2,1,j,0,36,36,16,f,0,0.833110958898,02,02,60.0193276301,PLT_learning_02,B,2014_Mrz_28_1637,P26,
stim_fb/ques.jpg,stim_fb/negf.jpg,stim_fb/posf.jpg,stim_02/a.jpg,stim_02/b.jpg,2,1,j,0,37,37,10,j,1,0.699822696737,02,02,60.0193276301,PLT_learning_02,B,2014_Mrz_28_1637,P26,
stim_fb/ques.jpg,stim_fb/negf.jpg,stim_fb/posf.jpg,stim_02/b.jpg,stim_02/a.jpg,1,1,f,0,38,38,2,f,1,0.649838156711,02,02,60.0193276301,PLT_learning_02,B,2014_Mrz_28_1637,P26,
stim_fb/ques.jpg,stim_fb/negf.jpg,stim_fb/posf.jpg,stim_02/d.jpg,stim_02/c.jpg,1,2,f,0,39,39,26,f,1,0.916431345511,02,02,60.0193276301,PLT_learning_02,B,2014_Mrz_28_1637,P26,
stim_fb/ques.jpg,stim_fb/posf.jpg,stim_fb/negf.jpg,stim_02/f.jpg,stim_02/e.jpg,1,3,f,0,40,40,46,f,1,0.599889026817,02,02,60.0193276301,PLT_learning_02,B,2014_Mrz_28_1637,P26,
stim_fb/ques.jpg,stim_fb/negf.jpg,stim_fb/posf.jpg,stim_02/e.jpg,stim_02/f.jpg,2,3,j,0,41,41,51,j,1,0.749804566112,02,02,60.0193276301,PLT_learning_02,B,2014_Mrz_28_1637,P26,
stim_fb/ques.jpg,stim_fb/posf.jpg,stim_fb/negf.jpg,stim_02/e.jpg,stim_02/f.jpg,2,3,j,0,42,42,58,j,1,0.566582656586,02,02,60.0193276301,PLT_learning_02,B,2014_Mrz_28_1637,P26,
stim_fb/ques.jpg,stim_fb/negf.jpg,stim_fb/posf.jpg,stim_02/d.jpg,stim_02/c.jpg,1,2,f,0,43,43,21,f,1,0.766477355519,02,02,60.0193276301,PLT_learning_02,B,2014_Mrz_28_1637,P26,
stim_fb/ques.jpg,stim_fb/posf.jpg,stim_fb/negf.jpg,stim_02/b.jpg,stim_02/a.jpg,1,1,f,0,44,44,8,f,1,0.966413840444,02,02,60.0193276301,PLT_learning_02,B,2014_Mrz_28_1637,P26,
stim_fb/ques.jpg,stim_fb/posf.jpg,stim_fb/negf.jpg,stim_02/d.jpg,stim_02/c.jpg,1,2,f,0,45,45,27,f,1,0.716489050126,02,02,60.0193276301,PLT_learning_02,B,2014_Mrz_28_1637,P26,
stim_fb/ques.jpg,stim_fb/negf.jpg,stim_fb/posf.jpg,stim_02/e.jpg,stim_02/f.jpg,2,3,j,0,46,46,50,j,1,0.766469848837,02,02,60.0193276301,PLT_learning_02,B,2014_Mrz_28_1637,P26,
stim_fb/ques.jpg,stim_fb/posf.jpg,stim_fb/negf.jpg,stim_02/f.jpg,stim_02/e.jpg,1,3,f,0,47,47,47,f,1,0.583175317573,02,02,60.0193276301,PLT_learning_02,B,2014_Mrz_28_1637,P26,
stim_fb/ques.jpg,stim_fb/negf.jpg,stim_fb/posf.jpg,stim_02/c.jpg,stim_02/d.jpg,2,2,j,0,48,48,30,j,1,0.916403270639,02,02,60.0193276301,PLT_learning_02,B,2014_Mrz_28_1637,P26,
stim_fb/ques.jpg,stim_fb/posf.jpg,stim_fb/negf.jpg,stim_02/e.jpg,stim_02/f.jpg,2,3,j,0,49,49,57,j,1,0.666488765914,02,02,60.0193276301,PLT_learning_02,B,2014_Mrz_28_1637,P26,
stim_fb/ques.jpg,stim_fb/negf.jpg,stim_fb/posf.jpg,stim_02/d.jpg,stim_02/c.jpg,1,2,f,0,50,50,24,f,1,0.933077121688,02,02,60.0193276301,PLT_learning_02,B,2014_Mrz_28_1637,P26,
stim_fb/ques.jpg,stim_fb/negf.jpg,stim_fb/posf.jpg,stim_02/d.jpg,stim_02/c.jpg,1,2,f,0,51,51,22,f,1,0.68312850306,02,02,60.0193276301,PLT_learning_02,B,2014_Mrz_28_1637,P26,
stim_fb/ques.jpg,stim_fb/posf.jpg,stim_fb/negf.jpg,stim_02/c.jpg,stim_02/d.jpg,2,2,j,0,52,52,38,j,1,0.683159161363,02,02,60.0193276301,PLT_learning_02,B,2014_Mrz_28_1637,P26,
stim_fb/ques.jpg,stim_fb/negf.jpg,stim_fb/posf.jpg,stim_02/b.jpg,stim_02/a.jpg,1,1,f,0,53,53,6,j,0,0.883104395063,02,02,60.0193276301,PLT_learning_02,B,2014_Mrz_28_1637,P26,
stim_fb/ques.jpg,stim_fb/posf.jpg,stim_fb/negf.jpg,stim_02/d.jpg,stim_02/c.jpg,1,2,f,0,54,54,29,f,1,0.71646178126,02,02,60.0193276301,PLT_learning_02,B,2014_Mrz_28_1637,P26,
stim_fb/ques.jpg,stim_fb/negf.jpg,stim_fb/posf.jpg,stim_02/b.jpg,stim_02/a.jpg,1,1,f,0,55,55,1,f,1,0.733152552417,02,02,60.0193276301,PLT_learning_02,B,2014_Mrz_28_1637,P26,
stim_fb/ques.jpg,stim_fb/negf.jpg,stim_fb/posf.jpg,stim_02/d.jpg,stim_02/c.jpg,1,2,f,0,56,56,25,f,1,0.733147057741,02,02,60.0193276301,PLT_learning_02,B,2014_Mrz_28_1637,P26,
stim_fb/ques.jpg,stim_fb/negf.jpg,stim_fb/posf.jpg,stim_02/e.jpg,stim_02/f.jpg,2,3,j,0,57,57,55,j,1,0.73315087123,02,02,60.0193276301,PLT_learning_02,B,2014_Mrz_28_1637,P26,
stim_fb/ques.jpg,stim_fb/posf.jpg,stim_fb/negf.jpg,stim_02/d.jpg,stim_02/c.jpg,1,2,f,0,58,58,28,f,1,0.699807692392,02,02,60.0193276301,PLT_learning_02,B,2014_Mrz_28_1637,P26,
stim_fb/ques.jpg,stim_fb/negf.jpg,stim_fb/posf.jpg,stim_02/b.jpg,stim_02/a.jpg,1,1,f,0,59,59,3,f,1,0.716516060347,02,02,60.0193276301,PLT_learning_02,B,2014_Mrz_28_1637,P26,
stim_fb/ques.jpg,stim_fb/negf.jpg,stim_fb/posf.jpg,stim_02/a.jpg,stim_02/b.jpg,2,1,j,1,0,60,13,j,1,1.26629672597,02,02,60.0193276301,PLT_learning_02,B,2014_Mrz_28_1637,P26,
stim_fb/ques.jpg,stim_fb/negf.jpg,stim_fb/posf.jpg,stim_02/c.jpg,stim_02/d.jpg,2,2,j,1,1,61,32,j,1,0.766465930083,02,02,60.0193276301,PLT_learning_02,B,2014_Mrz_28_1637,P26,
stim_fb/ques.jpg,stim_fb/negf.jpg,stim_fb/posf.jpg,stim_02/c.jpg,stim_02/d.jpg,2,2,j,1,2,62,33,j,1,0.849794581263,02,02,60.0193276301,PLT_learning_02,B,2014_Mrz_28_1637,P26,
stim_fb/ques.jpg,stim_fb/posf.jpg,stim_fb/negf.jpg,stim_02/f.jpg,stim_02/e.jpg,1,3,f,1,3,63,48,f,1,0.766474062322,02,02,60.0193276301,PLT_learning_02,B,2014_Mrz_28_1637,P26,
stim_fb/ques.jpg,stim_fb/negf.jpg,stim_fb/posf.jpg,stim_02/a.jpg,stim_02/b.jpg,2,1,j,1,4,64,17,j,1,0.749786361808,02,02,60.0193276301,PLT_learning_02,B,2014_Mrz_28_1637,P26,
stim_fb/ques.jpg,stim_fb/negf.jpg,stim_fb/posf.jpg,stim_02/d.jpg,stim_02/c.jpg,1,2,f,1,5,65,20,f,1,0.749810966041,02,02,60.0193276301,PLT_learning_02,B,2014_Mrz_28_1637,P26,
stim_fb/ques.jpg,stim_fb/posf.jpg,stim_fb/negf.jpg,stim_02/e.jpg,stim_02/f.jpg,2,3,j,1,6,66,57,j,1,0.449867657131,02,02,60.0193276301,PLT_learning_02,B,2014_Mrz_28_1637,P26,
stim_fb/ques.jpg,stim_fb/negf.jpg,stim_fb/posf.jpg,stim_02/f.jpg,stim_02/e.jpg,1,3,f,1,7,67,44,f,1,0.633170633413,02,02,60.0193276301,PLT_learning_02,B,2014_Mrz_28_1637,P26,
stim_fb/ques.jpg,stim_fb/negf.jpg,stim_fb/posf.jpg,stim_02/a.jpg,stim_02/b.jpg,2,1,j,1,8,68,11,j,1,0.983041355175,02,02,60.0193276301,PLT_learning_02,B,2014_Mrz_28_1637,P26,
stim_fb/ques.jpg,stim_fb/negf.jpg,stim_fb/posf.jpg,stim_02/b.jpg,stim_02/a.jpg,1,1,f,1,9,69,0,f,1,0.816449937782,02,02,60.0193276301,PLT_learning_02,B,2014_Mrz_28_1637,P26,
stim_fb/ques.jpg,stim_fb/negf.jpg,stim_fb/posf.jpg,stim_02/d.jpg,stim_02/c.jpg,1,2,f,1,10,70,23,f,1,0.799779124296,02,02,60.0193276301,PLT_learning_02,B,2014_Mrz_28_1637,P26,
stim_fb/ques.jpg,stim_fb/posf.jpg,stim_fb/negf.jpg,stim_02/a.jpg,stim_02/b.jpg,2,1,j,1,11,71,19,j,1,0.816423805747,02,02,60.0193276301,PLT_learning_02,B,2014_Mrz_28_1637,P26,
stim_fb/ques.jpg,stim_fb/posf.jpg,stim_fb/negf.jpg,stim_02/b.jpg,stim_02/a.jpg,1,1,f,1,12,72,8,f,1,0.583210267552,02,02,60.0193276301,PLT_learning_02,B,2014_Mrz_28_1637,P26,
stim_fb/ques.jpg,stim_fb/negf.jpg,stim_fb/posf.jpg,stim_02/f.jpg,stim_02/e.jpg,1,3,f,1,13,73,43,f,1,0.68312201291,02,02,60.0193276301,PLT_learning_02,B,2014_Mrz_28_1637,P26,
stim_fb/ques.jpg,stim_fb/negf.jpg,stim_fb/posf.jpg,stim_02/e.jpg,stim_02/f.jpg,2,3,j,1,14,74,55,j,1,0.566543105153,02,02,60.0193276301,PLT_learning_02,B,2014_Mrz_28_1637,P26,
stim_fb/ques.jpg,stim_fb/posf.jpg,stim_fb/negf.jpg,stim_02/f.jpg,stim_02/e.jpg,1,3,f,1,15,75,47,f,1,0.566519264819,02,02,60.0193276301,PLT_learning_02,B,2014_Mrz_28_1637,P26,
stim_fb/ques.jpg,stim_fb/negf.jpg,stim_fb/posf.jpg,stim_02/a.jpg,stim_02/b.jpg,2,1,j,1,16,76,14,j,1,0.599863448158,02,02,60.0193276301,PLT_learning_02,B,2014_Mrz_28_1637,P26,
stim_fb/ques.jpg,stim_fb/posf.jpg,stim_fb/negf.jpg,stim_02/d.jpg,stim_02/c.jpg,1,2,f,1,17,77,28,f,1,0.783127038419,02,02,60.0193276301,PLT_learning_02,B,2014_Mrz_28_1637,P26,
stim_fb/ques.jpg,stim_fb/negf.jpg,stim_fb/posf.jpg,stim_02/b.jpg,stim_02/a.jpg,1,1,f,1,18,78,4,f,1,0.566641885995,02,02,60.0193276301,PLT_learning_02,B,2014_Mrz_28_1637,P26,
stim_fb/ques.jpg,stim_fb/negf.jpg,stim_fb/posf.jpg,stim_02/c.jpg,stim_02/d.jpg,2,2,j,1,19,79,34,f,0,0.883098049268,02,02,60.0193276301,PLT_learning_02,B,2014_Mrz_28_1637,P26,
stim_fb/ques.jpg,stim_fb/posf.jpg,stim_fb/negf.jpg,stim_02/d.jpg,stim_02/c.jpg,1,2,f,1,20,80,29,f,1,0.833058457236,02,02,60.0193276301,PLT_learning_02,B,2014_Mrz_28_1637,P26,
stim_fb/ques.jpg,stim_fb/negf.jpg,stim_fb/posf.jpg,stim_02/e.jpg,stim_02/f.jpg,2,3,j,1,21,81,50,j,1,0.616504391306,02,02,60.0193276301,PLT_learning_02,B,2014_Mrz_28_1637,P26,
stim_fb/ques.jpg,stim_fb/negf.jpg,stim_fb/posf.jpg,stim_02/b.jpg,stim_02/a.jpg,1,1,f,1,22,82,7,f,1,0.699813126921,02,02,60.0193276301,PLT_learning_02,B,2014_Mrz_28_1637,P26,
stim_fb/ques.jpg,stim_fb/posf.jpg,stim_fb/negf.jpg,stim_02/e.jpg,stim_02/f.jpg,2,3,j,1,23,83,56,j,1,0.516545948733,02,02,60.0193276301,PLT_learning_02,B,2014_Mrz_28_1637,P26,
stim_fb/ques.jpg,stim_fb/negf.jpg,stim_fb/posf.jpg,stim_02/a.jpg,stim_02/b.jpg,2,1,j,1,24,84,10,j,1,0.766412709629,02,02,60.0193276301,PLT_learning_02,B,2014_Mrz_28_1637,P26,
stim_fb/ques.jpg,stim_fb/posf.jpg,stim_fb/negf.jpg,stim_02/f.jpg,stim_02/e.jpg,1,3,f,1,25,85,49,f,1,0.633173929618,02,02,60.0193276301,PLT_learning_02,B,2014_Mrz_28_1637,P26,
stim_fb/ques.jpg,stim_fb/negf.jpg,stim_fb/posf.jpg,stim_02/b.jpg,stim_02/a.jpg,1,1,f,1,26,86,1,None,0,,02,02,60.0193276301,PLT_learning_02,B,2014_Mrz_28_1637,P26,
stim_fb/ques.jpg,stim_fb/negf.jpg,stim_fb/posf.jpg,stim_02/d.jpg,stim_02/c.jpg,1,2,f,1,27,87,21,f,1,0.899751443405,02,02,60.0193276301,PLT_learning_02,B,2014_Mrz_28_1637,P26,
stim_fb/ques.jpg,stim_fb/negf.jpg,stim_fb/posf.jpg,stim_02/e.jpg,stim_02/f.jpg,2,3,j,1,28,88,54,j,1,0.633204990922,02,02,60.0193276301,PLT_learning_02,B,2014_Mrz_28_1637,P26,
stim_fb/ques.jpg,stim_fb/posf.jpg,stim_fb/negf.jpg,stim_02/a.jpg,stim_02/b.jpg,2,1,j,1,29,89,18,j,1,0.916407273602,02,02,60.0193276301,PLT_learning_02,B,2014_Mrz_28_1637,P26,
stim_fb/ques.jpg,stim_fb/negf.jpg,stim_fb/posf.jpg,stim_02/f.jpg,stim_02/e.jpg,1,3,f,1,30,90,42,f,1,0.599845869408,02,02,60.0193276301,PLT_learning_02,B,2014_Mrz_28_1637,P26,
stim_fb/ques.jpg,stim_fb/posf.jpg,stim_fb/negf.jpg,stim_02/c.jpg,stim_02/d.jpg,2,2,j,1,31,91,38,j,1,1.06639326023,02,02,60.0193276301,PLT_learning_02,B,2014_Mrz_28_1637,P26,
stim_fb/ques.jpg,stim_fb/posf.jpg,stim_fb/negf.jpg,stim_02/e.jpg,stim_02/f.jpg,2,3,j,1,32,92,59,j,1,1.28297954233,02,02,60.0193276301,PLT_learning_02,B,2014_Mrz_28_1637,P26,
stim_fb/ques.jpg,stim_fb/posf.jpg,stim_fb/negf.jpg,stim_02/c.jpg,stim_02/d.jpg,2,2,j,1,33,93,39,j,1,0.583157314766,02,02,60.0193276301,PLT_learning_02,B,2014_Mrz_28_1637,P26,
stim_fb/ques.jpg,stim_fb/posf.jpg,stim_fb/negf.jpg,stim_02/f.jpg,stim_02/e.jpg,1,3,f,1,34,94,46,f,1,0.616521545999,02,02,60.0193276301,PLT_learning_02,B,2014_Mrz_28_1637,P26,
stim_fb/ques.jpg,stim_fb/posf.jpg,stim_fb/negf.jpg,stim_02/b.jpg,stim_02/a.jpg,1,1,f,1,35,95,9,f,1,1.06635181107,02,02,60.0193276301,PLT_learning_02,B,2014_Mrz_28_1637,P26,
stim_fb/ques.jpg,stim_fb/negf.jpg,stim_fb/posf.jpg,stim_02/e.jpg,stim_02/f.jpg,2,3,j,1,36,96,51,j,1,0.54986661654,02,02,60.0193276301,PLT_learning_02,B,2014_Mrz_28_1637,P26,
stim_fb/ques.jpg,stim_fb/negf.jpg,stim_fb/posf.jpg,stim_02/b.jpg,stim_02/a.jpg,1,1,f,1,37,97,5,f,1,0.666482549444,02,02,60.0193276301,PLT_learning_02,B,2014_Mrz_28_1637,P26,
stim_fb/ques.jpg,stim_fb/negf.jpg,stim_fb/posf.jpg,stim_02/d.jpg,stim_02/c.jpg,1,2,f,1,38,98,25,f,1,0.76646474814,02,02,60.0193276301,PLT_learning_02,B,2014_Mrz_28_1637,P26,
stim_fb/ques.jpg,stim_fb/negf.jpg,stim_fb/posf.jpg,stim_02/c.jpg,stim_02/d.jpg,2,2,j,1,39,99,31,j,1,0.599858930917,02,02,60.0193276301,PLT_learning_02,B,2014_Mrz_28_1637,P26,
stim_fb/ques.jpg,stim_fb/posf.jpg,stim_fb/negf.jpg,stim_02/c.jpg,stim_02/d.jpg,2,2,j,1,40,100,37,j,1,0.616503146204,02,02,60.0193276301,PLT_learning_02,B,2014_Mrz_28_1637,P26,
stim_fb/ques.jpg,stim_fb/negf.jpg,stim_fb/posf.jpg,stim_02/b.jpg,stim_02/a.jpg,1,1,f,1,41,101,2,f,1,0.599820880216,02,02,60.0193276301,PLT_learning_02,B,2014_Mrz_28_1637,P26,
stim_fb/ques.jpg,stim_fb/negf.jpg,stim_fb/posf.jpg,stim_02/e.jpg,stim_02/f.jpg,2,3,j,1,42,102,52,j,1,0.599921483594,02,02,60.0193276301,PLT_learning_02,B,2014_Mrz_28_1637,P26,
stim_fb/ques.jpg,stim_fb/posf.jpg,stim_fb/negf.jpg,stim_02/d.jpg,stim_02/c.jpg,1,2,f,1,43,103,27,f,1,0.683165170318,02,02,60.0193276301,PLT_learning_02,B,2014_Mrz_28_1637,P26,
stim_fb/ques.jpg,stim_fb/negf.jpg,stim_fb/posf.jpg,stim_02/c.jpg,stim_02/d.jpg,2,2,j,1,44,104,36,j,1,0.66650326801,02,02,60.0193276301,PLT_learning_02,B,2014_Mrz_28_1637,P26,
stim_fb/ques.jpg,stim_fb/negf.jpg,stim_fb/posf.jpg,stim_02/c.jpg,stim_02/d.jpg,2,2,j,1,45,105,35,j,1,0.566515084414,02,02,60.0193276301,PLT_learning_02,B,2014_Mrz_28_1637,P26,
stim_fb/ques.jpg,stim_fb/negf.jpg,stim_fb/posf.jpg,stim_02/f.jpg,stim_02/e.jpg,1,3,f,1,46,106,41,f,1,0.899711910017,02,02,60.0193276301,PLT_learning_02,B,2014_Mrz_28_1637,P26,
stim_fb/ques.jpg,stim_fb/negf.jpg,stim_fb/posf.jpg,stim_02/b.jpg,stim_02/a.jpg,1,1,f,1,47,107,3,f,1,0.699819794514,02,02,60.0193276301,PLT_learning_02,B,2014_Mrz_28_1637,P26,
stim_fb/ques.jpg,stim_fb/negf.jpg,stim_fb/posf.jpg,stim_02/d.jpg,stim_02/c.jpg,1,2,f,1,48,108,22,f,1,0.566529803051,02,02,60.0193276301,PLT_learning_02,B,2014_Mrz_28_1637,P26,
stim_fb/ques.jpg,stim_fb/negf.jpg,stim_fb/posf.jpg,stim_02/b.jpg,stim_02/a.jpg,1,1,f,1,49,109,6,f,1,0.749806298423,02,02,60.0193276301,PLT_learning_02,B,2014_Mrz_28_1637,P26,
stim_fb/ques.jpg,stim_fb/negf.jpg,stim_fb/posf.jpg,stim_02/f.jpg,stim_02/e.jpg,1,3,f,1,50,110,40,f,1,0.616534496228,02,02,60.0193276301,PLT_learning_02,B,2014_Mrz_28_1637,P26,
stim_fb/ques.jpg,stim_fb/negf.jpg,stim_fb/posf.jpg,stim_02/d.jpg,stim_02/c.jpg,1,2,f,1,51,111,26,f,1,0.833111286716,02,02,60.0193276301,PLT_learning_02,B,2014_Mrz_28_1637,P26,
stim_fb/ques.jpg,stim_fb/negf.jpg,stim_fb/posf.jpg,stim_02/f.jpg,stim_02/e.jpg,1,3,f,1,52,112,45,f,1,0.533205926247,02,02,60.0193276301,PLT_learning_02,B,2014_Mrz_28_1637,P26,
stim_fb/ques.jpg,stim_fb/negf.jpg,stim_fb/posf.jpg,stim_02/d.jpg,stim_02/c.jpg,1,2,f,1,53,113,24,f,1,0.566514885923,02,02,60.0193276301,PLT_learning_02,B,2014_Mrz_28_1637,P26,
stim_fb/ques.jpg,stim_fb/negf.jpg,stim_fb/posf.jpg,stim_02/a.jpg,stim_02/b.jpg,2,1,j,1,54,114,15,j,1,0.849751880993,02,02,60.0193276301,PLT_learning_02,B,2014_Mrz_28_1637,P26,
stim_fb/ques.jpg,stim_fb/negf.jpg,stim_fb/posf.jpg,stim_02/a.jpg,stim_02/b.jpg,2,1,j,1,55,115,16,f,0,0.899755629824,02,02,60.0193276301,PLT_learning_02,B,2014_Mrz_28_1637,P26,
stim_fb/ques.jpg,stim_fb/negf.jpg,stim_fb/posf.jpg,stim_02/a.jpg,stim_02/b.jpg,2,1,j,1,56,116,12,j,1,0.68314239764,02,02,60.0193276301,PLT_learning_02,B,2014_Mrz_28_1637,P26,
stim_fb/ques.jpg,stim_fb/posf.jpg,stim_fb/negf.jpg,stim_02/e.jpg,stim_02/f.jpg,2,3,j,1,57,117,58,j,1,0.666486651655,02,02,60.0193276301,PLT_learning_02,B,2014_Mrz_28_1637,P26,
stim_fb/ques.jpg,stim_fb/negf.jpg,stim_fb/posf.jpg,stim_02/e.jpg,stim_02/f.jpg,2,3,j,1,58,118,53,j,1,0.499847857354,02,02,60.0193276301,PLT_learning_02,B,2014_Mrz_28_1637,P26,
stim_fb/ques.jpg,stim_fb/negf.jpg,stim_fb/posf.jpg,stim_02/c.jpg,stim_02/d.jpg,2,2,j,1,59,119,30,j,1,0.699815547945,02,02,60.0193276301,PLT_learning_02,B,2014_Mrz_28_1637,P26,
stim_fb/ques.jpg,stim_fb/negf.jpg,stim_fb/posf.jpg,stim_02/d.jpg,stim_02/c.jpg,1,2,f,2,0,120,26,f,1,0.933048306975,02,02,60.0193276301,PLT_learning_02,B,2014_Mrz_28_1637,P26,
stim_fb/ques.jpg,stim_fb/negf.jpg,stim_fb/posf.jpg,stim_02/b.jpg,stim_02/a.jpg,1,1,f,2,1,121,4,f,1,0.733198515805,02,02,60.0193276301,PLT_learning_02,B,2014_Mrz_28_1637,P26,
stim_fb/ques.jpg,stim_fb/posf.jpg,stim_fb/negf.jpg,stim_02/c.jpg,stim_02/d.jpg,2,2,j,2,2,122,39,j,1,1.4495459164,02,02,60.0193276301,PLT_learning_02,B,2014_Mrz_28_1637,P26,
stim_fb/ques.jpg,stim_fb/posf.jpg,stim_fb/negf.jpg,stim_02/f.jpg,stim_02/e.jpg,1,3,f,2,3,123,46,f,1,0.599848464866,02,02,60.0193276301,PLT_learning_02,B,2014_Mrz_28_1637,P26,
stim_fb/ques.jpg,stim_fb/posf.jpg,stim_fb/negf.jpg,stim_02/a.jpg,stim_02/b.jpg,2,1,j,2,4,124,18,j,1,0.733111879188,02,02,60.0193276301,PLT_learning_02,B,2014_Mrz_28_1637,P26,
stim_fb/ques.jpg,stim_fb/negf.jpg,stim_fb/posf.jpg,stim_02/a.jpg,stim_02/b.jpg,2,1,j,2,5,125,15,j,1,0.599828762835,02,02,60.0193276301,PLT_learning_02,B,2014_Mrz_28_1637,P26,
stim_fb/ques.jpg,stim_fb/posf.jpg,stim_fb/negf.jpg,stim_02/e.jpg,stim_02/f.jpg,2,3,j,2,6,126,59,j,1,1.01638758661,02,02,60.0193276301,PLT_learning_02,B,2014_Mrz_28_1637,P26,
stim_fb/ques.jpg,stim_fb/negf.jpg,stim_fb/posf.jpg,stim_02/f.jpg,stim_02/e.jpg,1,3,f,2,7,127,41,f,1,0.566582449072,02,02,60.0193276301,PLT_learning_02,B,2014_Mrz_28_1637,P26,
stim_fb/ques.jpg,stim_fb/negf.jpg,stim_fb/posf.jpg,stim_02/c.jpg,stim_02/d.jpg,2,2,j,2,8,128,32,j,1,0.633178275431,02,02,60.0193276301,PLT_learning_02,B,2014_Mrz_28_1637,P26,
stim_fb/ques.jpg,stim_fb/negf.jpg,stim_fb/posf.jpg,stim_02/f.jpg,stim_02/e.jpg,1,3,f,2,9,129,42,f,1,0.299922713653,02,02,60.0193276301,PLT_learning_02,B,2014_Mrz_28_1637,P26,
stim_fb/ques.jpg,stim_fb/negf.jpg,stim_fb/posf.jpg,stim_02/b.jpg,stim_02/a.jpg,1,1,f,2,10,130,6,f,1,0.916555864405,02,02,60.0193276301,PLT_learning_02,B,2014_Mrz_28_1637,P26,
stim_fb/ques.jpg,stim_fb/negf.jpg,stim_fb/posf.jpg,stim_02/b.jpg,stim_02/a.jpg,1,1,f,2,11,131,1,f,1,0.566547493076,02,02,60.0193276301,PLT_learning_02,B,2014_Mrz_28_1637,P26,
stim_fb/ques.jpg,stim_fb/negf.jpg,stim_fb/posf.jpg,stim_02/e.jpg,stim_02/f.jpg,2,3,j,2,12,132,54,j,1,0.633181553592,02,02,60.0193276301,PLT_learning_02,B,2014_Mrz_28_1637,P26,
stim_fb/ques.jpg,stim_fb/negf.jpg,stim_fb/posf.jpg,stim_02/f.jpg,stim_02/e.jpg,1,3,f,2,13,133,45,f,1,0.933066288726,02,02,60.0193276301,PLT_learning_02,B,2014_Mrz_28_1637,P26,
stim_fb/ques.jpg,stim_fb/negf.jpg,stim_fb/posf.jpg,stim_02/d.jpg,stim_02/c.jpg,1,2,f,2,14,134,24,j,0,0.617521327204,02,02,60.0193276301,PLT_learning_02,B,2014_Mrz_28_1637,P26,
stim_fb/ques.jpg,stim_fb/posf.jpg,stim_fb/negf.jpg,stim_02/d.jpg,stim_02/c.jpg,1,2,f,2,15,135,28,f,1,0.633153629093,02,02,60.0193276301,PLT_learning_02,B,2014_Mrz_28_1637,P26,
stim_fb/ques.jpg,stim_fb/negf.jpg,stim_fb/posf.jpg,stim_02/d.jpg,stim_02/c.jpg,1,2,f,2,16,136,22,f,1,0.533190425671,02,02,60.0193276301,PLT_learning_02,B,2014_Mrz_28_1637,P26,
stim_fb/ques.jpg,stim_fb/negf.jpg,stim_fb/posf.jpg,stim_02/b.jpg,stim_02/a.jpg,1,1,f,2,17,137,7,f,1,0.699812411138,02,02,60.0193276301,PLT_learning_02,B,2014_Mrz_28_1637,P26,
stim_fb/ques.jpg,stim_fb/negf.jpg,stim_fb/posf.jpg,stim_02/e.jpg,stim_02/f.jpg,2,3,j,2,18,138,53,j,1,0.566528052692,02,02,60.0193276301,PLT_learning_02,B,2014_Mrz_28_1637,P26,
stim_fb/ques.jpg,stim_fb/negf.jpg,stim_fb/posf.jpg,stim_02/a.jpg,stim_02/b.jpg,2,1,j,2,19,139,11,j,1,0.733256406882,02,02,60.0193276301,PLT_learning_02,B,2014_Mrz_28_1637,P26,
stim_fb/ques.jpg,stim_fb/posf.jpg,stim_fb/negf.jpg,stim_02/f.jpg,stim_02/e.jpg,1,3,f,2,20,140,49,f,1,1.38289827709,02,02,60.0193276301,PLT_learning_02,B,2014_Mrz_28_1637,P26,
stim_fb/ques.jpg,stim_fb/negf.jpg,stim_fb/posf.jpg,stim_02/e.jpg,stim_02/f.jpg,2,3,j,2,21,141,50,j,1,0.533200948863,02,02,60.0193276301,PLT_learning_02,B,2014_Mrz_28_1637,P26,
stim_fb/ques.jpg,stim_fb/negf.jpg,stim_fb/posf.jpg,stim_02/c.jpg,stim_02/d.jpg,2,2,j,2,22,142,33,f,0,0.88311873475,02,02,60.0193276301,PLT_learning_02,B,2014_Mrz_28_1637,P26,
stim_fb/ques.jpg,stim_fb/posf.jpg,stim_fb/negf.jpg,stim_02/d.jpg,stim_02/c.jpg,1,2,f,2,23,143,29,f,1,1.36626198953,02,02,60.0193276301,PLT_learning_02,B,2014_Mrz_28_1637,P26,
stim_fb/ques.jpg,stim_fb/posf.jpg,stim_fb/negf.jpg,stim_02/e.jpg,stim_02/f.jpg,2,3,j,2,24,144,56,j,1,0.499852197157,02,02,60.0193276301,PLT_learning_02,B,2014_Mrz_28_1637,P26,
stim_fb/ques.jpg,stim_fb/negf.jpg,stim_fb/posf.jpg,stim_02/b.jpg,stim_02/a.jpg,1,1,f,2,25,145,5,f,1,0.916421243368,02,02,60.0193276301,PLT_learning_02,B,2014_Mrz_28_1637,P26,
stim_fb/ques.jpg,stim_fb/negf.jpg,stim_fb/posf.jpg,stim_02/c.jpg,stim_02/d.jpg,2,2,j,2,26,146,35,j,1,0.516549389293,02,02,60.0193276301,PLT_learning_02,B,2014_Mrz_28_1637,P26,
stim_fb/ques.jpg,stim_fb/negf.jpg,stim_fb/posf.jpg,stim_02/d.jpg,stim_02/c.jpg,1,2,f,2,27,147,23,f,1,0.599849968607,02,02,60.0193276301,PLT_learning_02,B,2014_Mrz_28_1637,P26,
stim_fb/ques.jpg,stim_fb/negf.jpg,stim_fb/posf.jpg,stim_02/e.jpg,stim_02/f.jpg,2,3,j,2,28,148,52,j,1,0.54986229178,02,02,60.0193276301,PLT_learning_02,B,2014_Mrz_28_1637,P26,
stim_fb/ques.jpg,stim_fb/negf.jpg,stim_fb/posf.jpg,stim_02/b.jpg,stim_02/a.jpg,1,1,f,2,29,149,2,None,0,,02,02,60.0193276301,PLT_learning_02,B,2014_Mrz_28_1637,P26,
stim_fb/ques.jpg,stim_fb/negf.jpg,stim_fb/posf.jpg,stim_02/c.jpg,stim_02/d.jpg,2,2,j,2,30,150,36,j,1,0.866425244829,02,02,60.0193276301,PLT_learning_02,B,2014_Mrz_28_1637,P26,
stim_fb/ques.jpg,stim_fb/posf.jpg,stim_fb/negf.jpg,stim_02/e.jpg,stim_02/f.jpg,2,3,j,2,31,151,57,j,1,0.533176570189,02,02,60.0193276301,PLT_learning_02,B,2014_Mrz_28_1637,P26,
stim_fb/ques.jpg,stim_fb/posf.jpg,stim_fb/negf.jpg,stim_02/b.jpg,stim_02/a.jpg,1,1,f,2,32,152,9,f,1,0.749786145268,02,02,60.0193276301,PLT_learning_02,B,2014_Mrz_28_1637,P26,
stim_fb/ques.jpg,stim_fb/negf.jpg,stim_fb/posf.jpg,stim_02/c.jpg,stim_02/d.jpg,2,2,j,2,33,153,34,j,1,0.699813319399,02,02,60.0193276301,PLT_learning_02,B,2014_Mrz_28_1637,P26,
stim_fb/ques.jpg,stim_fb/negf.jpg,stim_fb/posf.jpg,stim_02/a.jpg,stim_02/b.jpg,2,1,j,2,34,154,14,j,1,0.833116841539,02,02,60.0193276301,PLT_learning_02,B,2014_Mrz_28_1637,P26,
stim_fb/ques.jpg,stim_fb/negf.jpg,stim_fb/posf.jpg,stim_02/a.jpg,stim_02/b.jpg,2,1,j,2,35,155,10,j,1,0.683133309023,02,02,60.0193276301,PLT_learning_02,B,2014_Mrz_28_1637,P26,
stim_fb/ques.jpg,stim_fb/posf.jpg,stim_fb/negf.jpg,stim_02/d.jpg,stim_02/c.jpg,1,2,f,2,36,156,27,f,1,1.04967177363,02,02,60.0193276301,PLT_learning_02,B,2014_Mrz_28_1637,P26,
stim_fb/ques.jpg,stim_fb/negf.jpg,stim_fb/posf.jpg,stim_02/a.jpg,stim_02/b.jpg,2,1,j,2,37,157,16,j,1,0.566528798547,02,02,60.0193276301,PLT_learning_02,B,2014_Mrz_28_1637,P26,
stim_fb/ques.jpg,stim_fb/negf.jpg,stim_fb/posf.jpg,stim_02/b.jpg,stim_02/a.jpg,1,1,f,2,38,158,3,f,1,0.699811947987,02,02,60.0193276301,PLT_learning_02,B,2014_Mrz_28_1637,P26,
stim_fb/ques.jpg,stim_fb/negf.jpg,stim_fb/posf.jpg,stim_02/e.jpg,stim_02/f.jpg,2,3,j,2,39,159,51,f,0,1.24963628531,02,02,60.0193276301,PLT_learning_02,B,2014_Mrz_28_1637,P26,
stim_fb/ques.jpg,stim_fb/posf.jpg,stim_fb/negf.jpg,stim_02/f.jpg,stim_02/e.jpg,1,3,f,2,40,160,48,f,1,0.583183891911,02,02,60.0193276301,PLT_learning_02,B,2014_Mrz_28_1637,P26,
stim_fb/ques.jpg,stim_fb/negf.jpg,stim_fb/posf.jpg,stim_02/a.jpg,stim_02/b.jpg,2,1,j,2,41,161,13,j,1,0.633123124175,02,02,60.0193276301,PLT_learning_02,B,2014_Mrz_28_1637,P26,
stim_fb/ques.jpg,stim_fb/negf.jpg,stim_fb/posf.jpg,stim_02/e.jpg,stim_02/f.jpg,2,3,j,2,42,162,55,j,1,0.56652802863,02,02,60.0193276301,PLT_learning_02,B,2014_Mrz_28_1637,P26,
stim_fb/ques.jpg,stim_fb/posf.jpg,stim_fb/negf.jpg,stim_02/c.jpg,stim_02/d.jpg,2,2,j,2,43,163,37,j,1,0.716492051593,02,02,60.0193276301,PLT_learning_02,B,2014_Mrz_28_1637,P26,
stim_fb/ques.jpg,stim_fb/negf.jpg,stim_fb/posf.jpg,stim_02/a.jpg,stim_02/b.jpg,2,1,j,2,44,164,17,j,1,0.649887990738,02,02,60.0193276301,PLT_learning_02,B,2014_Mrz_28_1637,P26,
stim_fb/ques.jpg,stim_fb/negf.jpg,stim_fb/posf.jpg,stim_02/b.jpg,stim_02/a.jpg,1,1,f,2,45,165,0,f,1,0.816473017221,02,02,60.0193276301,PLT_learning_02,B,2014_Mrz_28_1637,P26,
stim_fb/ques.jpg,stim_fb/negf.jpg,stim_fb/posf.jpg,stim_02/d.jpg,stim_02/c.jpg,1,2,f,2,46,166,20,f,1,0.766477728444,02,02,60.0193276301,PLT_learning_02,B,2014_Mrz_28_1637,P26,
stim_fb/ques.jpg,stim_fb/negf.jpg,stim_fb/posf.jpg,stim_02/d.jpg,stim_02/c.jpg,1,2,f,2,47,167,21,f,1,0.866436095832,02,02,60.0193276301,PLT_learning_02,B,2014_Mrz_28_1637,P26,
stim_fb/ques.jpg,stim_fb/negf.jpg,stim_fb/posf.jpg,stim_02/a.jpg,stim_02/b.jpg,2,1,j,2,48,168,12,f,0,1.19964821449,02,02,60.0193276301,PLT_learning_02,B,2014_Mrz_28_1637,P26,
stim_fb/ques.jpg,stim_fb/negf.jpg,stim_fb/posf.jpg,stim_02/c.jpg,stim_02/d.jpg,2,2,j,2,49,169,30,None,0,,02,02,60.0193276301,PLT_learning_02,B,2014_Mrz_28_1637,P26,
stim_fb/ques.jpg,stim_fb/negf.jpg,stim_fb/posf.jpg,stim_02/d.jpg,stim_02/c.jpg,1,2,f,2,50,170,25,f,1,0.69980075413,02,02,60.0193276301,PLT_learning_02,B,2014_Mrz_28_1637,P26,
stim_fb/ques.jpg,stim_fb/posf.jpg,stim_fb/negf.jpg,stim_02/a.jpg,stim_02/b.jpg,2,1,j,2,51,171,19,j,1,0.749837086049,02,02,60.0193276301,PLT_learning_02,B,2014_Mrz_28_1637,P26,
stim_fb/ques.jpg,stim_fb/negf.jpg,stim_fb/posf.jpg,stim_02/f.jpg,stim_02/e.jpg,1,3,f,2,52,172,40,f,1,0.699767828184,02,02,60.0193276301,PLT_learning_02,B,2014_Mrz_28_1637,P26,
stim_fb/ques.jpg,stim_fb/negf.jpg,stim_fb/posf.jpg,stim_02/c.jpg,stim_02/d.jpg,2,2,j,2,53,173,31,j,1,0.566561438784,02,02,60.0193276301,PLT_learning_02,B,2014_Mrz_28_1637,P26,
stim_fb/ques.jpg,stim_fb/posf.jpg,stim_fb/negf.jpg,stim_02/c.jpg,stim_02/d.jpg,2,2,j,2,54,174,38,j,1,1.31629029447,02,02,60.0193276301,PLT_learning_02,B,2014_Mrz_28_1637,P26,
stim_fb/ques.jpg,stim_fb/posf.jpg,stim_fb/negf.jpg,stim_02/f.jpg,stim_02/e.jpg,1,3,f,2,55,175,47,f,1,0.566472781135,02,02,60.0193276301,PLT_learning_02,B,2014_Mrz_28_1637,P26,
stim_fb/ques.jpg,stim_fb/posf.jpg,stim_fb/negf.jpg,stim_02/b.jpg,stim_02/a.jpg,1,1,f,2,56,176,8,f,1,0.833095728995,02,02,60.0193276301,PLT_learning_02,B,2014_Mrz_28_1637,P26,
stim_fb/ques.jpg,stim_fb/negf.jpg,stim_fb/posf.jpg,stim_02/f.jpg,stim_02/e.jpg,1,3,f,2,57,177,44,f,1,0.716472695422,02,02,60.0193276301,PLT_learning_02,B,2014_Mrz_28_1637,P26,
stim_fb/ques.jpg,stim_fb/posf.jpg,stim_fb/negf.jpg,stim_02/e.jpg,stim_02/f.jpg,2,3,j,2,58,178,58,j,1,1.01639799852,02,02,60.0193276301,PLT_learning_02,B,2014_Mrz_28_1637,P26,
stim_fb/ques.jpg,stim_fb/negf.jpg,stim_fb/posf.jpg,stim_02/f.jpg,stim_02/e.jpg,1,3,f,2,59,179,43,f,1,0.516541666071,02,02,60.0193276301,PLT_learning_02,B,2014_Mrz_28_1637,P26,
stim_fb/ques.jpg,stim_fb/negf.jpg,stim_fb/posf.jpg,stim_02/d.jpg,stim_02/c.jpg,1,2,f,3,0,180,22,f,1,0.783082488542,02,02,60.0193276301,PLT_learning_02,B,2014_Mrz_28_1637,P26,
stim_fb/ques.jpg,stim_fb/negf.jpg,stim_fb/posf.jpg,stim_02/b.jpg,stim_02/a.jpg,1,1,f,3,1,181,4,f,1,0.749809603651,02,02,60.0193276301,PLT_learning_02,B,2014_Mrz_28_1637,P26,
stim_fb/ques.jpg,stim_fb/negf.jpg,stim_fb/posf.jpg,stim_02/e.jpg,stim_02/f.jpg,2,3,j,3,2,182,53,j,1,0.51654574422,02,02,60.0193276301,PLT_learning_02,B,2014_Mrz_28_1637,P26,
stim_fb/ques.jpg,stim_fb/posf.jpg,stim_fb/negf.jpg,stim_02/e.jpg,stim_02/f.jpg,2,3,j,3,3,183,56,j,1,0.499847129544,02,02,60.0193276301,PLT_learning_02,B,2014_Mrz_28_1637,P26,
stim_fb/ques.jpg,stim_fb/posf.jpg,stim_fb/negf.jpg,stim_02/e.jpg,stim_02/f.jpg,2,3,j,3,4,184,57,j,1,0.450170053722,02,02,60.0193276301,PLT_learning_02,B,2014_Mrz_28_1637,P26,
stim_fb/ques.jpg,stim_fb/negf.jpg,stim_fb/posf.jpg,stim_02/e.jpg,stim_02/f.jpg,2,3,j,3,5,185,52,j,1,0.516592306103,02,02,60.0193276301,PLT_learning_02,B,2014_Mrz_28_1637,P26,
stim_fb/ques.jpg,stim_fb/posf.jpg,stim_fb/negf.jpg,stim_02/f.jpg,stim_02/e.jpg,1,3,f,3,6,186,48,f,1,0.633182579142,02,02,60.0193276301,PLT_learning_02,B,2014_Mrz_28_1637,P26,
stim_fb/ques.jpg,stim_fb/negf.jpg,stim_fb/posf.jpg,stim_02/d.jpg,stim_02/c.jpg,1,2,f,3,7,187,24,j,0,0.749888153143,02,02,60.0193276301,PLT_learning_02,B,2014_Mrz_28_1637,P26,
stim_fb/ques.jpg,stim_fb/negf.jpg,stim_fb/posf.jpg,stim_02/c.jpg,stim_02/d.jpg,2,2,j,3,8,188,30,j,1,0.833104333407,02,02,60.0193276301,PLT_learning_02,B,2014_Mrz_28_1637,P26,
stim_fb/ques.jpg,stim_fb/negf.jpg,stim_fb/posf.jpg,stim_02/f.jpg,stim_02/e.jpg,1,3,f,3,9,189,45,f,1,0.816462806808,02,02,60.0193276301,PLT_learning_02,B,2014_Mrz_28_1637,P26,
stim_fb/ques.jpg,stim_fb/negf.jpg,stim_fb/posf.jpg,stim_02/b.jpg,stim_02/a.jpg,1,1,f,3,10,190,3,None,0,,02,02,60.0193276301,PLT_learning_02,B,2014_Mrz_28_1637,P26,
stim_fb/ques.jpg,stim_fb/negf.jpg,stim_fb/posf.jpg,stim_02/d.jpg,stim_02/c.jpg,1,2,f,3,11,191,21,f,1,0.633161280137,02,02,60.0193276301,PLT_learning_02,B,2014_Mrz_28_1637,P26,
stim_fb/ques.jpg,stim_fb/posf.jpg,stim_fb/negf.jpg,stim_02/d.jpg,stim_02/c.jpg,1,2,f,3,12,192,28,f,1,0.599877661531,02,02,60.0193276301,PLT_learning_02,B,2014_Mrz_28_1637,P26,
stim_fb/ques.jpg,stim_fb/negf.jpg,stim_fb/posf.jpg,stim_02/c.jpg,stim_02/d.jpg,2,2,j,3,13,193,33,j,1,0.533173686013,02,02,60.0193276301,PLT_learning_02,B,2014_Mrz_28_1637,P26,
stim_fb/ques.jpg,stim_fb/posf.jpg,stim_fb/negf.jpg,stim_02/d.jpg,stim_02/c.jpg,1,2,f,3,14,194,29,None,0,,02,02,60.0193276301,PLT_learning_02,B,2014_Mrz_28_1637,P26,
stim_fb/ques.jpg,stim_fb/negf.jpg,stim_fb/posf.jpg,stim_02/f.jpg,stim_02/e.jpg,1,3,f,3,15,195,44,f,1,0.533181845316,02,02,60.0193276301,PLT_learning_02,B,2014_Mrz_28_1637,P26,
stim_fb/ques.jpg,stim_fb/posf.jpg,stim_fb/negf.jpg,stim_02/f.jpg,stim_02/e.jpg,1,3,f,3,16,196,47,f,1,0.533160137293,02,02,60.0193276301,PLT_learning_02,B,2014_Mrz_28_1637,P26,
stim_fb/ques.jpg,stim_fb/negf.jpg,stim_fb/posf.jpg,stim_02/b.jpg,stim_02/a.jpg,1,1,f,3,17,197,7,f,1,0.549920817433,02,02,60.0193276301,PLT_learning_02,B,2014_Mrz_28_1637,P26,
stim_fb/ques.jpg,stim_fb/posf.jpg,stim_fb/negf.jpg,stim_02/c.jpg,stim_02/d.jpg,2,2,j,3,18,198,39,j,1,0.599813544959,02,02,60.0193276301,PLT_learning_02,B,2014_Mrz_28_1637,P26,
stim_fb/ques.jpg,stim_fb/negf.jpg,stim_fb/posf.jpg,stim_02/f.jpg,stim_02/e.jpg,1,3,f,3,19,199,41,f,1,0.483207825473,02,02,60.0193276301,PLT_learning_02,B,2014_Mrz_28_1637,P26,
stim_fb/ques.jpg,stim_fb/negf.jpg,stim_fb/posf.jpg,stim_02/c.jpg,stim_02/d.jpg,2,2,j,3,20,200,34,j,1,0.699801948096,02,02,60.0193276301,PLT_learning_02,B,2014_Mrz_28_1637,P26,
stim_fb/ques.jpg,stim_fb/negf.jpg,stim_fb/posf.jpg,stim_02/a.jpg,stim_02/b.jpg,2,1,j,3,21,201,10,f,0,0.849779146854,02,02,60.0193276301,PLT_learning_02,B,2014_Mrz_28_1637,P26,
stim_fb/ques.jpg,stim_fb/posf.jpg,stim_fb/negf.jpg,stim_02/e.jpg,stim_02/f.jpg,2,3,j,3,22,202,58,j,1,0.516554877951,02,02,60.0193276301,PLT_learning_02,B,2014_Mrz_28_1637,P26,
stim_fb/ques.jpg,stim_fb/negf.jpg,stim_fb/posf.jpg,stim_02/b.jpg,stim_02/a.jpg,1,1,f,3,23,203,1,f,1,0.883105567984,02,02,60.0193276301,PLT_learning_02,B,2014_Mrz_28_1637,P26,
stim_fb/ques.jpg,stim_fb/negf.jpg,stim_fb/posf.jpg,stim_02/d.jpg,stim_02/c.jpg,1,2,f,3,24,204,23,f,1,1.06635496592,02,02,60.0193276301,PLT_learning_02,B,2014_Mrz_28_1637,P26,
stim_fb/ques.jpg,stim_fb/posf.jpg,stim_fb/negf.jpg,stim_02/c.jpg,stim_02/d.jpg,2,2,j,3,25,205,38,j,1,0.699812014147,02,02,60.0193276301,PLT_learning_02,B,2014_Mrz_28_1637,P26,
stim_fb/ques.jpg,stim_fb/negf.jpg,stim_fb/posf.jpg,stim_02/b.jpg,stim_02/a.jpg,1,1,f,3,26,206,2,f,1,0.96637008154,02,02,60.0193276301,PLT_learning_02,B,2014_Mrz_28_1637,P26,
stim_fb/ques.jpg,stim_fb/negf.jpg,stim_fb/posf.jpg,stim_02/b.jpg,stim_02/a.jpg,1,1,f,3,27,207,5,f,1,1.18292258358,02,02,60.0193276301,PLT_learning_02,B,2014_Mrz_28_1637,P26,
stim_fb/ques.jpg,stim_fb/negf.jpg,stim_fb/posf.jpg,stim_02/a.jpg,stim_02/b.jpg,2,1,j,3,28,208,15,j,1,1.08302600798,02,02,60.0193276301,PLT_learning_02,B,2014_Mrz_28_1637,P26,
stim_fb/ques.jpg,stim_fb/posf.jpg,stim_fb/negf.jpg,stim_02/f.jpg,stim_02/e.jpg,1,3,f,3,29,209,49,f,1,0.583211768288,02,02,60.0193276301,PLT_learning_02,B,2014_Mrz_28_1637,P26,
stim_fb/ques.jpg,stim_fb/posf.jpg,stim_fb/negf.jpg,stim_02/e.jpg,stim_02/f.jpg,2,3,j,3,30,210,59,j,1,0.533200587961,02,02,60.0193276301,PLT_learning_02,B,2014_Mrz_28_1637,P26,
stim_fb/ques.jpg,stim_fb/negf.jpg,stim_fb/posf.jpg,stim_02/c.jpg,stim_02/d.jpg,2,2,j,3,31,211,32,f,0,1.33294165855,02,02,60.0193276301,PLT_learning_02,B,2014_Mrz_28_1637,P26,
stim_fb/ques.jpg,stim_fb/negf.jpg,stim_fb/posf.jpg,stim_02/e.jpg,stim_02/f.jpg,2,3,j,3,32,212,55,j,1,0.533214705098,02,02,60.0193276301,PLT_learning_02,B,2014_Mrz_28_1637,P26,
stim_fb/ques.jpg,stim_fb/negf.jpg,stim_fb/posf.jpg,stim_02/b.jpg,stim_02/a.jpg,1,1,f,3,33,213,6,None,0,,02,02,60.0193276301,PLT_learning_02,B,2014_Mrz_28_1637,P26,
stim_fb/ques.jpg,stim_fb/posf.jpg,stim_fb/negf.jpg,stim_02/b.jpg,stim_02/a.jpg,1,1,f,3,34,214,9,f,1,0.883099841729,02,02,60.0193276301,PLT_learning_02,B,2014_Mrz_28_1637,P26,
stim_fb/ques.jpg,stim_fb/negf.jpg,stim_fb/posf.jpg,stim_02/d.jpg,stim_02/c.jpg,1,2,f,3,35,215,25,f,1,0.733148209609,02,02,60.0193276301,PLT_learning_02,B,2014_Mrz_28_1637,P26,
stim_fb/ques.jpg,stim_fb/negf.jpg,stim_fb/posf.jpg,stim_02/a.jpg,stim_02/b.jpg,2,1,j,3,36,216,11,j,1,0.899762574103,02,02,60.0193276301,PLT_learning_02,B,2014_Mrz_28_1637,P26,
stim_fb/ques.jpg,stim_fb/posf.jpg,stim_fb/negf.jpg,stim_02/b.jpg,stim_02/a.jpg,1,1,f,3,37,217,8,f,1,0.633197306797,02,02,60.0193276301,PLT_learning_02,B,2014_Mrz_28_1637,P26,
stim_fb/ques.jpg,stim_fb/negf.jpg,stim_fb/posf.jpg,stim_02/d.jpg,stim_02/c.jpg,1,2,f,3,38,218,26,f,1,0.749776605528,02,02,60.0193276301,PLT_learning_02,B,2014_Mrz_28_1637,P26,
stim_fb/ques.jpg,stim_fb/negf.jpg,stim_fb/posf.jpg,stim_02/a.jpg,stim_02/b.jpg,2,1,j,3,39,219,17,j,1,0.866403849581,02,02,60.0193276301,PLT_learning_02,B,2014_Mrz_28_1637,P26,
stim_fb/ques.jpg,stim_fb/posf.jpg,stim_fb/negf.jpg,stim_02/a.jpg,stim_02/b.jpg,2,1,j,3,40,220,18,j,1,1.1329538509,02,02,60.0193276301,PLT_learning_02,B,2014_Mrz_28_1637,P26,
stim_fb/ques.jpg,stim_fb/negf.jpg,stim_fb/posf.jpg,stim_02/a.jpg,stim_02/b.jpg,2,1,j,3,41,221,12,j,1,0.583190890327,02,02,60.0193276301,PLT_learning_02,B,2014_Mrz_28_1637,P26,
stim_fb/ques.jpg,stim_fb/posf.jpg,stim_fb/negf.jpg,stim_02/f.jpg,stim_02/e.jpg,1,3,f,3,42,222,46,f,1,0.799793758717,02,02,60.0193276301,PLT_learning_02,B,2014_Mrz_28_1637,P26,
stim_fb/ques.jpg,stim_fb/negf.jpg,stim_fb/posf.jpg,stim_02/d.jpg,stim_02/c.jpg,1,2,f,3,43,223,20,f,1,0.883090088457,02,02,60.0193276301,PLT_learning_02,B,2014_Mrz_28_1637,P26,
stim_fb/ques.jpg,stim_fb/negf.jpg,stim_fb/posf.jpg,stim_02/f.jpg,stim_02/e.jpg,1,3,f,3,44,224,40,f,1,0.549870580406,02,02,60.0193276301,PLT_learning_02,B,2014_Mrz_28_1637,P26,
stim_fb/ques.jpg,stim_fb/negf.jpg,stim_fb/posf.jpg,stim_02/f.jpg,stim_02/e.jpg,1,3,f,3,45,225,42,f,1,0.483203966873,02,02,60.0193276301,PLT_learning_02,B,2014_Mrz_28_1637,P26,
stim_fb/ques.jpg,stim_fb/negf.jpg,stim_fb/posf.jpg,stim_02/e.jpg,stim_02/f.jpg,2,3,j,3,46,226,54,j,1,0.499891598218,02,02,60.0193276301,PLT_learning_02,B,2014_Mrz_28_1637,P26,
stim_fb/ques.jpg,stim_fb/posf.jpg,stim_fb/negf.jpg,stim_02/d.jpg,stim_02/c.jpg,1,2,f,3,47,227,27,f,1,0.749797137629,02,02,60.0193276301,PLT_learning_02,B,2014_Mrz_28_1637,P26,
stim_fb/ques.jpg,stim_fb/negf.jpg,stim_fb/posf.jpg,stim_02/a.jpg,stim_02/b.jpg,2,1,j,3,48,228,16,j,1,1.14964569272,02,02,60.0193276301,PLT_learning_02,B,2014_Mrz_28_1637,P26,
stim_fb/ques.jpg,stim_fb/posf.jpg,stim_fb/negf.jpg,stim_02/a.jpg,stim_02/b.jpg,2,1,j,3,49,229,19,j,1,0.733112258131,02,02,60.0193276301,PLT_learning_02,B,2014_Mrz_28_1637,P26,
stim_fb/ques.jpg,stim_fb/negf.jpg,stim_fb/posf.jpg,stim_02/f.jpg,stim_02/e.jpg,1,3,f,3,50,230,43,j,0,0.89975635162,02,02,60.0193276301,PLT_learning_02,B,2014_Mrz_28_1637,P26,
stim_fb/ques.jpg,stim_fb/negf.jpg,stim_fb/posf.jpg,stim_02/a.jpg,stim_02/b.jpg,2,1,j,3,51,231,14,j,1,0.949777399503,02,02,60.0193276301,PLT_learning_02,B,2014_Mrz_28_1637,P26,
stim_fb/ques.jpg,stim_fb/posf.jpg,stim_fb/negf.jpg,stim_02/c.jpg,stim_02/d.jpg,2,2,j,3,52,232,37,j,1,0.849748515619,02,02,60.0193276301,PLT_learning_02,B,2014_Mrz_28_1637,P26,
stim_fb/ques.jpg,stim_fb/negf.jpg,stim_fb/posf.jpg,stim_02/c.jpg,stim_02/d.jpg,2,2,j,3,53,233,31,j,1,0.583186752028,02,02,60.0193276301,PLT_learning_02,B,2014_Mrz_28_1637,P26,
stim_fb/ques.jpg,stim_fb/negf.jpg,stim_fb/posf.jpg,stim_02/a.jpg,stim_02/b.jpg,2,1,j,3,54,234,13,j,1,0.849745171294,02,02,60.0193276301,PLT_learning_02,B,2014_Mrz_28_1637,P26,
stim_fb/ques.jpg,stim_fb/negf.jpg,stim_fb/posf.jpg,stim_02/e.jpg,stim_02/f.jpg,2,3,j,3,55,235,50,j,1,0.633240386011,02,02,60.0193276301,PLT_learning_02,B,2014_Mrz_28_1637,P26,
stim_fb/ques.jpg,stim_fb/negf.jpg,stim_fb/posf.jpg,stim_02/c.jpg,stim_02/d.jpg,2,2,j,3,56,236,36,j,1,0.699872870609,02,02,60.0193276301,PLT_learning_02,B,2014_Mrz_28_1637,P26,
stim_fb/ques.jpg,stim_fb/negf.jpg,stim_fb/posf.jpg,stim_02/b.jpg,stim_02/a.jpg,1,1,f,3,57,237,0,f,1,0.69986252486,02,02,60.0193276301,PLT_learning_02,B,2014_Mrz_28_1637,P26,
stim_fb/ques.jpg,stim_fb/negf.jpg,stim_fb/posf.jpg,stim_02/c.jpg,stim_02/d.jpg,2,2,j,3,58,238,35,f,0,0.899718132503,02,02,60.0193276301,PLT_learning_02,B,2014_Mrz_28_1637,P26,
stim_fb/ques.jpg,stim_fb/negf.jpg,stim_fb/posf.jpg,stim_02/e.jpg,stim_02/f.jpg,2,3,j,3,59,239,51,j,1,0.549859269257,02,02,60.0193276301,PLT_learning_02,B,2014_Mrz_28_1637,P26,
stim_fb/ques.jpg,stim_fb/negf.jpg,stim_fb/posf.jpg,stim_02/a.jpg,stim_02/b.jpg,2,1,j,4,0,240,17,j,1,1.23296818457,02,02,60.0193276301,PLT_learning_02,B,2014_Mrz_28_1637,P26,
stim_fb/ques.jpg,stim_fb/posf.jpg,stim_fb/negf.jpg,stim_02/f.jpg,stim_02/e.jpg,1,3,f,4,1,241,46,f,1,0.599846004745,02,02,60.0193276301,PLT_learning_02,B,2014_Mrz_28_1637,P26,
stim_fb/ques.jpg,stim_fb/negf.jpg,stim_fb/posf.jpg,stim_02/f.jpg,stim_02/e.jpg,1,3,f,4,2,242,42,f,1,0.699826943306,02,02,60.0193276301,PLT_learning_02,B,2014_Mrz_28_1637,P26,
stim_fb/ques.jpg,stim_fb/negf.jpg,stim_fb/posf.jpg,stim_02/f.jpg,stim_02/e.jpg,1,3,f,4,3,243,44,f,1,0.699799033846,02,02,60.0193276301,PLT_learning_02,B,2014_Mrz_28_1637,P26,
stim_fb/ques.jpg,stim_fb/negf.jpg,stim_fb/posf.jpg,stim_02/e.jpg,stim_02/f.jpg,2,3,j,4,4,244,55,j,1,0.516533885708,02,02,60.0193276301,PLT_learning_02,B,2014_Mrz_28_1637,P26,
stim_fb/ques.jpg,stim_fb/negf.jpg,stim_fb/posf.jpg,stim_02/a.jpg,stim_02/b.jpg,2,1,j,4,5,245,10,j,1,0.799755864406,02,02,60.0193276301,PLT_learning_02,B,2014_Mrz_28_1637,P26,
stim_fb/ques.jpg,stim_fb/posf.jpg,stim_fb/negf.jpg,stim_02/d.jpg,stim_02/c.jpg,1,2,f,4,6,246,29,f,1,1.11636765299,02,02,60.0193276301,PLT_learning_02,B,2014_Mrz_28_1637,P26,
stim_fb/ques.jpg,stim_fb/posf.jpg,stim_fb/negf.jpg,stim_02/e.jpg,stim_02/f.jpg,2,3,j,4,7,247,58,j,1,0.833104955957,02,02,60.0193276301,PLT_learning_02,B,2014_Mrz_28_1637,P26,
stim_fb/ques.jpg,stim_fb/negf.jpg,stim_fb/posf.jpg,stim_02/d.jpg,stim_02/c.jpg,1,2,f,4,8,248,23,f,1,1.24963573193,02,02,60.0193276301,PLT_learning_02,B,2014_Mrz_28_1637,P26,
stim_fb/ques.jpg,stim_fb/negf.jpg,stim_fb/posf.jpg,stim_02/d.jpg,stim_02/c.jpg,1,2,f,4,9,249,21,f,1,0.816418545655,02,02,60.0193276301,PLT_learning_02,B,2014_Mrz_28_1637,P26,
stim_fb/ques.jpg,stim_fb/posf.jpg,stim_fb/negf.jpg,stim_02/a.jpg,stim_02/b.jpg,2,1,j,4,10,250,19,f,0,1.04972626323,02,02,60.0193276301,PLT_learning_02,B,2014_Mrz_28_1637,P26,
stim_fb/ques.jpg,stim_fb/posf.jpg,stim_fb/negf.jpg,stim_02/c.jpg,stim_02/d.jpg,2,2,j,4,11,251,39,j,1,0.883220309544,02,02,60.0193276301,PLT_learning_02,B,2014_Mrz_28_1637,P26,
stim_fb/ques.jpg,stim_fb/posf.jpg,stim_fb/negf.jpg,stim_02/f.jpg,stim_02/e.jpg,1,3,f,4,12,252,47,f,1,0.649848676894,02,02,60.0193276301,PLT_learning_02,B,2014_Mrz_28_1637,P26,
stim_fb/ques.jpg,stim_fb/negf.jpg,stim_fb/posf.jpg,stim_02/c.jpg,stim_02/d.jpg,2,2,j,4,13,253,33,f,0,0.766441373969,02,02,60.0193276301,PLT_learning_02,B,2014_Mrz_28_1637,P26,
stim_fb/ques.jpg,stim_fb/negf.jpg,stim_fb/posf.jpg,stim_02/e.jpg,stim_02/f.jpg,2,3,j,4,14,254,52,j,1,0.649825083176,02,02,60.0193276301,PLT_learning_02,B,2014_Mrz_28_1637,P26,
stim_fb/ques.jpg,stim_fb/negf.jpg,stim_fb/posf.jpg,stim_02/c.jpg,stim_02/d.jpg,2,2,j,4,15,255,31,j,1,0.833101268785,02,02,60.0193276301,PLT_learning_02,B,2014_Mrz_28_1637,P26,
stim_fb/ques.jpg,stim_fb/negf.jpg,stim_fb/posf.jpg,stim_02/b.jpg,stim_02/a.jpg,1,1,f,4,16,256,7,f,1,0.899745641967,02,02,60.0193276301,PLT_learning_02,B,2014_Mrz_28_1637,P26,
stim_fb/ques.jpg,stim_fb/negf.jpg,stim_fb/posf.jpg,stim_02/c.jpg,stim_02/d.jpg,2,2,j,4,17,257,35,j,1,0.899684541906,02,02,60.0193276301,PLT_learning_02,B,2014_Mrz_28_1637,P26,
stim_fb/ques.jpg,stim_fb/negf.jpg,stim_fb/posf.jpg,stim_02/f.jpg,stim_02/e.jpg,1,3,f,4,18,258,41,f,1,1.16633459923,02,02,60.0193276301,PLT_learning_02,B,2014_Mrz_28_1637,P26,
stim_fb/ques.jpg,stim_fb/negf.jpg,stim_fb/posf.jpg,stim_02/b.jpg,stim_02/a.jpg,1,1,f,4,19,259,1,None,0,,02,02,60.0193276301,PLT_learning_02,B,2014_Mrz_28_1637,P26,
stim_fb/ques.jpg,stim_fb/negf.jpg,stim_fb/posf.jpg,stim_02/c.jpg,stim_02/d.jpg,2,2,j,4,20,260,30,j,1,0.649830514692,02,02,60.0193276301,PLT_learning_02,B,2014_Mrz_28_1637,P26,
stim_fb/ques.jpg,stim_fb/posf.jpg,stim_fb/negf.jpg,stim_02/f.jpg,stim_02/e.jpg,1,3,f,4,21,261,49,f,1,0.616502096593,02,02,60.0193276301,PLT_learning_02,B,2014_Mrz_28_1637,P26,
stim_fb/ques.jpg,stim_fb/negf.jpg,stim_fb/posf.jpg,stim_02/d.jpg,stim_02/c.jpg,1,2,f,4,22,262,20,f,1,0.716455745234,02,02,60.0193276301,PLT_learning_02,B,2014_Mrz_28_1637,P26,
stim_fb/ques.jpg,stim_fb/negf.jpg,stim_fb/posf.jpg,stim_02/f.jpg,stim_02/e.jpg,1,3,f,4,23,263,43,f,1,0.599830510182,02,02,60.0193276301,PLT_learning_02,B,2014_Mrz_28_1637,P26,
stim_fb/ques.jpg,stim_fb/posf.jpg,stim_fb/negf.jpg,stim_02/d.jpg,stim_02/c.jpg,1,2,f,4,24,264,28,f,1,0.783130130112,02,02,60.0193276301,PLT_learning_02,B,2014_Mrz_28_1637,P26,
stim_fb/ques.jpg,stim_fb/posf.jpg,stim_fb/negf.jpg,stim_02/f.jpg,stim_02/e.jpg,1,3,f,4,25,265,48,f,1,0.533194924872,02,02,60.0193276301,PLT_learning_02,B,2014_Mrz_28_1637,P26,
stim_fb/ques.jpg,stim_fb/posf.jpg,stim_fb/negf.jpg,stim_02/b.jpg,stim_02/a.jpg,1,1,f,4,26,266,9,f,1,0.649819657672,02,02,60.0193276301,PLT_learning_02,B,2014_Mrz_28_1637,P26,
stim_fb/ques.jpg,stim_fb/negf.jpg,stim_fb/posf.jpg,stim_02/b.jpg,stim_02/a.jpg,1,1,f,4,27,267,0,f,1,0.499875207421,02,02,60.0193276301,PLT_learning_02,B,2014_Mrz_28_1637,P26,
stim_fb/ques.jpg,stim_fb/negf.jpg,stim_fb/posf.jpg,stim_02/d.jpg,stim_02/c.jpg,1,2,f,4,28,268,25,f,1,1.49955781251,02,02,60.0193276301,PLT_learning_02,B,2014_Mrz_28_1637,P26,
stim_fb/ques.jpg,stim_fb/negf.jpg,stim_fb/posf.jpg,stim_02/a.jpg,stim_02/b.jpg,2,1,j,4,29,269,16,j,1,0.816446921275,02,02,60.0193276301,PLT_learning_02,B,2014_Mrz_28_1637,P26,
stim_fb/ques.jpg,stim_fb/negf.jpg,stim_fb/posf.jpg,stim_02/c.jpg,stim_02/d.jpg,2,2,j,4,30,270,34,j,1,0.633179694967,02,02,60.0193276301,PLT_learning_02,B,2014_Mrz_28_1637,P26,
stim_fb/ques.jpg,stim_fb/negf.jpg,stim_fb/posf.jpg,stim_02/d.jpg,stim_02/c.jpg,1,2,f,4,31,271,24,f,1,0.983096957552,02,02,60.0193276301,PLT_learning_02,B,2014_Mrz_28_1637,P26,
stim_fb/ques.jpg,stim_fb/negf.jpg,stim_fb/posf.jpg,stim_02/c.jpg,stim_02/d.jpg,2,2,j,4,32,272,36,j,1,0.666460143682,02,02,60.0193276301,PLT_learning_02,B,2014_Mrz_28_1637,P26,
stim_fb/ques.jpg,stim_fb/negf.jpg,stim_fb/posf.jpg,stim_02/a.jpg,stim_02/b.jpg,2,1,j,4,33,273,15,f,0,1.18300652249,02,02,60.0193276301,PLT_learning_02,B,2014_Mrz_28_1637,P26,
stim_fb/ques.jpg,stim_fb/negf.jpg,stim_fb/posf.jpg,stim_02/a.jpg,stim_02/b.jpg,2,1,j,4,34,274,12,j,1,0.799786633987,02,02,60.0193276301,PLT_learning_02,B,2014_Mrz_28_1637,P26,
stim_fb/ques.jpg,stim_fb/negf.jpg,stim_fb/posf.jpg,stim_02/d.jpg,stim_02/c.jpg,1,2,f,4,35,275,22,f,1,0.599866999997,02,02,60.0193276301,PLT_learning_02,B,2014_Mrz_28_1637,P26,
stim_fb/ques.jpg,stim_fb/negf.jpg,stim_fb/posf.jpg,stim_02/e.jpg,stim_02/f.jpg,2,3,j,4,36,276,53,j,1,0.549848848321,02,02,60.0193276301,PLT_learning_02,B,2014_Mrz_28_1637,P26,
stim_fb/ques.jpg,stim_fb/posf.jpg,stim_fb/negf.jpg,stim_02/e.jpg,stim_02/f.jpg,2,3,j,4,37,277,56,j,1,0.566517586642,02,02,60.0193276301,PLT_learning_02,B,2014_Mrz_28_1637,P26,
stim_fb/ques.jpg,stim_fb/negf.jpg,stim_fb/posf.jpg,stim_02/a.jpg,stim_02/b.jpg,2,1,j,4,38,278,14,j,1,0.71738915125,02,02,60.0193276301,PLT_learning_02,B,2014_Mrz_28_1637,P26,
stim_fb/ques.jpg,stim_fb/negf.jpg,stim_fb/posf.jpg,stim_02/e.jpg,stim_02/f.jpg,2,3,j,4,39,279,50,f,0,0.383245139339,02,02,60.0193276301,PLT_learning_02,B,2014_Mrz_28_1637,P26,
stim_fb/ques.jpg,stim_fb/negf.jpg,stim_fb/posf.jpg,stim_02/b.jpg,stim_02/a.jpg,1,1,f,4,40,280,6,f,1,0.816455053515,02,02,60.0193276301,PLT_learning_02,B,2014_Mrz_28_1637,P26,
stim_fb/ques.jpg,stim_fb/negf.jpg,stim_fb/posf.jpg,stim_02/e.jpg,stim_02/f.jpg,2,3,j,4,41,281,51,None,0,,02,02,60.0193276301,PLT_learning_02,B,2014_Mrz_28_1637,P26,
stim_fb/ques.jpg,stim_fb/negf.jpg,stim_fb/posf.jpg,stim_02/e.jpg,stim_02/f.jpg,2,3,j,4,42,282,54,j,1,0.566394860205,02,02,60.0193276301,PLT_learning_02,B,2014_Mrz_28_1637,P26,
stim_fb/ques.jpg,stim_fb/negf.jpg,stim_fb/posf.jpg,stim_02/b.jpg,stim_02/a.jpg,1,1,f,4,43,283,3,f,1,0.64979653613,02,02,60.0193276301,PLT_learning_02,B,2014_Mrz_28_1637,P26,
stim_fb/ques.jpg,stim_fb/posf.jpg,stim_fb/negf.jpg,stim_02/d.jpg,stim_02/c.jpg,1,2,f,4,44,284,27,j,0,0.583172779254,02,02,60.0193276301,PLT_learning_02,B,2014_Mrz_28_1637,P26,
stim_fb/ques.jpg,stim_fb/negf.jpg,stim_fb/posf.jpg,stim_02/a.jpg,stim_02/b.jpg,2,1,j,4,45,285,11,j,1,0.699853800146,02,02,60.0193276301,PLT_learning_02,B,2014_Mrz_28_1637,P26,
stim_fb/ques.jpg,stim_fb/negf.jpg,stim_fb/posf.jpg,stim_02/a.jpg,stim_02/b.jpg,2,1,j,4,46,286,13,j,1,0.86644204464,02,02,60.0193276301,PLT_learning_02,B,2014_Mrz_28_1637,P26,
stim_fb/ques.jpg,stim_fb/negf.jpg,stim_fb/posf.jpg,stim_02/f.jpg,stim_02/e.jpg,1,3,f,4,47,287,40,f,1,0.64981618102,02,02,60.0193276301,PLT_learning_02,B,2014_Mrz_28_1637,P26,
stim_fb/ques.jpg,stim_fb/negf.jpg,stim_fb/posf.jpg,stim_02/c.jpg,stim_02/d.jpg,2,2,j,4,48,288,32,f,0,0.749764987613,02,02,60.0193276301,PLT_learning_02,B,2014_Mrz_28_1637,P26,
stim_fb/ques.jpg,stim_fb/negf.jpg,stim_fb/posf.jpg,stim_02/b.jpg,stim_02/a.jpg,1,1,f,4,49,289,5,f,1,0.816383388155,02,02,60.0193276301,PLT_learning_02,B,2014_Mrz_28_1637,P26,
stim_fb/ques.jpg,stim_fb/posf.jpg,stim_fb/negf.jpg,stim_02/e.jpg,stim_02/f.jpg,2,3,j,4,50,290,57,j,1,0.433245895721,02,02,60.0193276301,PLT_learning_02,B,2014_Mrz_28_1637,P26,
stim_fb/ques.jpg,stim_fb/negf.jpg,stim_fb/posf.jpg,stim_02/b.jpg,stim_02/a.jpg,1,1,f,4,51,291,4,f,1,0.566527351948,02,02,60.0193276301,PLT_learning_02,B,2014_Mrz_28_1637,P26,
stim_fb/ques.jpg,stim_fb/posf.jpg,stim_fb/negf.jpg,stim_02/b.jpg,stim_02/a.jpg,1,1,f,4,52,292,8,f,1,0.533185929482,02,02,60.0193276301,PLT_learning_02,B,2014_Mrz_28_1637,P26,
stim_fb/ques.jpg,stim_fb/negf.jpg,stim_fb/posf.jpg,stim_02/f.jpg,stim_02/e.jpg,1,3,f,4,53,293,45,f,1,0.616477868294,02,02,60.0193276301,PLT_learning_02,B,2014_Mrz_28_1637,P26,
stim_fb/ques.jpg,stim_fb/posf.jpg,stim_fb/negf.jpg,stim_02/c.jpg,stim_02/d.jpg,2,2,j,4,54,294,38,j,1,0.716477808146,02,02,60.0193276301,PLT_learning_02,B,2014_Mrz_28_1637,P26,
stim_fb/ques.jpg,stim_fb/posf.jpg,stim_fb/negf.jpg,stim_02/a.jpg,stim_02/b.jpg,2,1,j,4,55,295,18,None,0,,02,02,60.0193276301,PLT_learning_02,B,2014_Mrz_28_1637,P26,
stim_fb/ques.jpg,stim_fb/posf.jpg,stim_fb/negf.jpg,stim_02/c.jpg,stim_02/d.jpg,2,2,j,4,56,296,37,j,1,0.566478257762,02,02,60.0193276301,PLT_learning_02,B,2014_Mrz_28_1637,P26,
stim_fb/ques.jpg,stim_fb/negf.jpg,stim_fb/posf.jpg,stim_02/d.jpg,stim_02/c.jpg,1,2,f,4,57,297,26,j,0,0.699832828952,02,02,60.0193276301,PLT_learning_02,B,2014_Mrz_28_1637,P26,
stim_fb/ques.jpg,stim_fb/negf.jpg,stim_fb/posf.jpg,stim_02/b.jpg,stim_02/a.jpg,1,1,f,4,58,298,2,f,1,0.733114853592,02,02,60.0193276301,PLT_learning_02,B,2014_Mrz_28_1637,P26,
stim_fb/ques.jpg,stim_fb/posf.jpg,stim_fb/negf.jpg,stim_02/e.jpg,stim_02/f.jpg,2,3,j,4,59,299,59,j,1,0.616524568519,02,02,60.0193276301,PLT_learning_02,B,2014_Mrz_28_1637,P26,
stim_fb/ques.jpg,stim_fb/negf.jpg,stim_fb/posf.jpg,stim_02/a.jpg,stim_02/b.jpg,2,1,j,5,0,300,17,j,1,1.03302196442,02,02,60.0193276301,PLT_learning_02,B,2014_Mrz_28_1637,P26,
stim_fb/ques.jpg,stim_fb/posf.jpg,stim_fb/negf.jpg,stim_02/e.jpg,stim_02/f.jpg,2,3,j,5,1,301,58,j,1,0.566520879842,02,02,60.0193276301,PLT_learning_02,B,2014_Mrz_28_1637,P26,
stim_fb/ques.jpg,stim_fb/posf.jpg,stim_fb/negf.jpg,stim_02/f.jpg,stim_02/e.jpg,1,3,f,5,2,302,46,f,1,0.483228706442,02,02,60.0193276301,PLT_learning_02,B,2014_Mrz_28_1637,P26,
stim_fb/ques.jpg,stim_fb/negf.jpg,stim_fb/posf.jpg,stim_02/b.jpg,stim_02/a.jpg,1,1,f,5,3,303,2,f,1,0.69981401413,02,02,60.0193276301,PLT_learning_02,B,2014_Mrz_28_1637,P26,
stim_fb/ques.jpg,stim_fb/negf.jpg,stim_fb/posf.jpg,stim_02/b.jpg,stim_02/a.jpg,1,1,f,5,4,304,0,f,1,0.616504806334,02,02,60.0193276301,PLT_learning_02,B,2014_Mrz_28_1637,P26,
stim_fb/ques.jpg,stim_fb/negf.jpg,stim_fb/posf.jpg,stim_02/c.jpg,stim_02/d.jpg,2,2,j,5,5,305,34,j,1,0.68317084845,02,02,60.0193276301,PLT_learning_02,B,2014_Mrz_28_1637,P26,
stim_fb/ques.jpg,stim_fb/negf.jpg,stim_fb/posf.jpg,stim_02/a.jpg,stim_02/b.jpg,2,1,j,5,6,306,10,f,0,1.01632010165,02,02,60.0193276301,PLT_learning_02,B,2014_Mrz_28_1637,P26,
stim_fb/ques.jpg,stim_fb/negf.jpg,stim_fb/posf.jpg,stim_02/e.jpg,stim_02/f.jpg,2,3,j,5,7,307,52,j,1,1.13302792525,02,02,60.0193276301,PLT_learning_02,B,2014_Mrz_28_1637,P26,
stim_fb/ques.jpg,stim_fb/negf.jpg,stim_fb/posf.jpg,stim_02/c.jpg,stim_02/d.jpg,2,2,j,5,8,308,30,j,1,0.73314222772,02,02,60.0193276301,PLT_learning_02,B,2014_Mrz_28_1637,P26,
stim_fb/ques.jpg,stim_fb/posf.jpg,stim_fb/negf.jpg,stim_02/e.jpg,stim_02/f.jpg,2,3,j,5,9,309,59,None,0,,02,02,60.0193276301,PLT_learning_02,B,2014_Mrz_28_1637,P26,
stim_fb/ques.jpg,stim_fb/negf.jpg,stim_fb/posf.jpg,stim_02/d.jpg,stim_02/c.jpg,1,2,f,5,10,310,21,j,0,0.883031598893,02,02,60.0193276301,PLT_learning_02,B,2014_Mrz_28_1637,P26,
stim_fb/ques.jpg,stim_fb/negf.jpg,stim_fb/posf.jpg,stim_02/d.jpg,stim_02/c.jpg,1,2,f,5,11,311,24,j,0,0.633213727666,02,02,60.0193276301,PLT_learning_02,B,2014_Mrz_28_1637,P26,
stim_fb/ques.jpg,stim_fb/posf.jpg,stim_fb/negf.jpg,stim_02/d.jpg,stim_02/c.jpg,1,2,f,5,12,312,28,f,1,0.749800518039,02,02,60.0193276301,PLT_learning_02,B,2014_Mrz_28_1637,P26,
stim_fb/ques.jpg,stim_fb/posf.jpg,stim_fb/negf.jpg,stim_02/c.jpg,stim_02/d.jpg,2,2,j,5,13,313,37,j,1,0.783118885127,02,02,60.0193276301,PLT_learning_02,B,2014_Mrz_28_1637,P26,
stim_fb/ques.jpg,stim_fb/posf.jpg,stim_fb/negf.jpg,stim_02/a.jpg,stim_02/b.jpg,2,1,j,5,14,314,19,j,1,1.11637165295,02,02,60.0193276301,PLT_learning_02,B,2014_Mrz_28_1637,P26,
stim_fb/ques.jpg,stim_fb/negf.jpg,stim_fb/posf.jpg,stim_02/c.jpg,stim_02/d.jpg,2,2,j,5,15,315,31,j,1,0.599864732354,02,02,60.0193276301,PLT_learning_02,B,2014_Mrz_28_1637,P26,
stim_fb/ques.jpg,stim_fb/negf.jpg,stim_fb/posf.jpg,stim_02/e.jpg,stim_02/f.jpg,2,3,j,5,16,316,55,j,1,1.16631751371,02,02,60.0193276301,PLT_learning_02,B,2014_Mrz_28_1637,P26,
stim_fb/ques.jpg,stim_fb/negf.jpg,stim_fb/posf.jpg,stim_02/d.jpg,stim_02/c.jpg,1,2,f,5,17,317,23,f,1,0.749842670946,02,02,60.0193276301,PLT_learning_02,B,2014_Mrz_28_1637,P26,
stim_fb/ques.jpg,stim_fb/negf.jpg,stim_fb/posf.jpg,stim_02/f.jpg,stim_02/e.jpg,1,3,f,5,18,318,41,f,1,0.549868399979,02,02,60.0193276301,PLT_learning_02,B,2014_Mrz_28_1637,P26,
stim_fb/ques.jpg,stim_fb/negf.jpg,stim_fb/posf.jpg,stim_02/e.jpg,stim_02/f.jpg,2,3,j,5,19,319,54,j,1,0.533212091592,02,02,60.0193276301,PLT_learning_02,B,2014_Mrz_28_1637,P26,
stim_fb/ques.jpg,stim_fb/negf.jpg,stim_fb/posf.jpg,stim_02/b.jpg,stim_02/a.jpg,1,1,f,5,20,320,6,f,1,0.683148599077,02,02,60.0193276301,PLT_learning_02,B,2014_Mrz_28_1637,P26,
stim_fb/ques.jpg,stim_fb/negf.jpg,stim_fb/posf.jpg,stim_02/f.jpg,stim_02/e.jpg,1,3,f,5,21,321,42,f,1,0.516556995222,02,02,60.0193276301,PLT_learning_02,B,2014_Mrz_28_1637,P26,
stim_fb/ques.jpg,stim_fb/posf.jpg,stim_fb/negf.jpg,stim_02/e.jpg,stim_02/f.jpg,2,3,j,5,22,322,56,j,1,0.949838893546,02,02,60.0193276301,PLT_learning_02,B,2014_Mrz_28_1637,P26,
stim_fb/ques.jpg,stim_fb/negf.jpg,stim_fb/posf.jpg,stim_02/d.jpg,stim_02/c.jpg,1,2,f,5,23,323,26,f,1,0.833128381259,02,02,60.0193276301,PLT_learning_02,B,2014_Mrz_28_1637,P26,
stim_fb/ques.jpg,stim_fb/posf.jpg,stim_fb/negf.jpg,stim_02/d.jpg,stim_02/c.jpg,1,2,f,5,24,324,27,f,1,0.666477331459,02,02,60.0193276301,PLT_learning_02,B,2014_Mrz_28_1637,P26,
stim_fb/ques.jpg,stim_fb/negf.jpg,stim_fb/posf.jpg,stim_02/f.jpg,stim_02/e.jpg,1,3,f,5,25,325,40,f,1,0.499905339413,02,02,60.0193276301,PLT_learning_02,B,2014_Mrz_28_1637,P26,
stim_fb/ques.jpg,stim_fb/negf.jpg,stim_fb/posf.jpg,stim_02/f.jpg,stim_02/e.jpg,1,3,f,5,26,326,45,j,0,1.11637575516,02,02,60.0193276301,PLT_learning_02,B,2014_Mrz_28_1637,P26,
stim_fb/ques.jpg,stim_fb/posf.jpg,stim_fb/negf.jpg,stim_02/f.jpg,stim_02/e.jpg,1,3,f,5,27,327,47,f,1,0.533203072147,02,02,60.0193276301,PLT_learning_02,B,2014_Mrz_28_1637,P26,
stim_fb/ques.jpg,stim_fb/negf.jpg,stim_fb/posf.jpg,stim_02/f.jpg,stim_02/e.jpg,1,3,f,5,28,328,44,f,1,0.499854052774,02,02,60.0193276301,PLT_learning_02,B,2014_Mrz_28_1637,P26,
stim_fb/ques.jpg,stim_fb/posf.jpg,stim_fb/negf.jpg,stim_02/e.jpg,stim_02/f.jpg,2,3,j,5,29,329,57,f,0,0.449922345237,02,02,60.0193276301,PLT_learning_02,B,2014_Mrz_28_1637,P26,
stim_fb/ques.jpg,stim_fb/negf.jpg,stim_fb/posf.jpg,stim_02/b.jpg,stim_02/a.jpg,1,1,f,5,30,330,5,f,1,0.666480350974,02,02,60.0193276301,PLT_learning_02,B,2014_Mrz_28_1637,P26,
stim_fb/ques.jpg,stim_fb/negf.jpg,stim_fb/posf.jpg,stim_02/b.jpg,stim_02/a.jpg,1,1,f,5,31,331,4,f,1,0.616560811719,02,02,60.0193276301,PLT_learning_02,B,2014_Mrz_28_1637,P26,
stim_fb/ques.jpg,stim_fb/negf.jpg,stim_fb/posf.jpg,stim_02/d.jpg,stim_02/c.jpg,1,2,f,5,32,332,20,j,0,1.34957936564,02,02,60.0193276301,PLT_learning_02,B,2014_Mrz_28_1637,P26,
stim_fb/ques.jpg,stim_fb/negf.jpg,stim_fb/posf.jpg,stim_02/e.jpg,stim_02/f.jpg,2,3,j,5,33,333,50,j,1,0.499866257145,02,02,60.0193276301,PLT_learning_02,B,2014_Mrz_28_1637,P26,
stim_fb/ques.jpg,stim_fb/negf.jpg,stim_fb/posf.jpg,stim_02/a.jpg,stim_02/b.jpg,2,1,j,5,34,334,14,j,1,0.716484523859,02,02,60.0193276301,PLT_learning_02,B,2014_Mrz_28_1637,P26,
stim_fb/ques.jpg,stim_fb/posf.jpg,stim_fb/negf.jpg,stim_02/f.jpg,stim_02/e.jpg,1,3,f,5,35,335,49,f,1,0.533210208909,02,02,60.0193276301,PLT_learning_02,B,2014_Mrz_28_1637,P26,
stim_fb/ques.jpg,stim_fb/negf.jpg,stim_fb/posf.jpg,stim_02/e.jpg,stim_02/f.jpg,2,3,j,5,36,336,53,f,0,0.849801525546,02,02,60.0193276301,PLT_learning_02,B,2014_Mrz_28_1637,P26,
stim_fb/ques.jpg,stim_fb/negf.jpg,stim_fb/posf.jpg,stim_02/a.jpg,stim_02/b.jpg,2,1,j,5,37,337,11,j,1,0.91641959226,02,02,60.0193276301,PLT_learning_02,B,2014_Mrz_28_1637,P26,
stim_fb/ques.jpg,stim_fb/negf.jpg,stim_fb/posf.jpg,stim_02/b.jpg,stim_02/a.jpg,1,1,f,5,38,338,3,f,1,0.533195899294,02,02,60.0193276301,PLT_learning_02,B,2014_Mrz_28_1637,P26,
stim_fb/ques.jpg,stim_fb/negf.jpg,stim_fb/posf.jpg,stim_02/a.jpg,stim_02/b.jpg,2,1,j,5,39,339,12,j,1,0.466551565209,02,02,60.0193276301,PLT_learning_02,B,2014_Mrz_28_1637,P26,
stim_fb/ques.jpg,stim_fb/posf.jpg,stim_fb/negf.jpg,stim_02/b.jpg,stim_02/a.jpg,1,1,f,5,40,340,9,f,1,0.649797200786,02,02,60.0193276301,PLT_learning_02,B,2014_Mrz_28_1637,P26,
stim_fb/ques.jpg,stim_fb/negf.jpg,stim_fb/posf.jpg,stim_02/d.jpg,stim_02/c.jpg,1,2,f,5,41,341,25,j,0,1.33293809168,02,02,60.0193276301,PLT_learning_02,B,2014_Mrz_28_1637,P26,
stim_fb/ques.jpg,stim_fb/negf.jpg,stim_fb/posf.jpg,stim_02/c.jpg,stim_02/d.jpg,2,2,j,5,42,342,36,j,1,0.549875726214,02,02,60.0193276301,PLT_learning_02,B,2014_Mrz_28_1637,P26,
stim_fb/ques.jpg,stim_fb/negf.jpg,stim_fb/posf.jpg,stim_02/a.jpg,stim_02/b.jpg,2,1,j,5,43,343,16,j,1,0.599877574314,02,02,60.0193276301,PLT_learning_02,B,2014_Mrz_28_1637,P26,
stim_fb/ques.jpg,stim_fb/negf.jpg,stim_fb/posf.jpg,stim_02/d.jpg,stim_02/c.jpg,1,2,f,5,44,344,22,f,1,0.749838526634,02,02,60.0193276301,PLT_learning_02,B,2014_Mrz_28_1637,P26,
stim_fb/ques.jpg,stim_fb/negf.jpg,stim_fb/posf.jpg,stim_02/b.jpg,stim_02/a.jpg,1,1,f,5,45,345,1,j,0,0.999684084767,02,02,60.0193276301,PLT_learning_02,B,2014_Mrz_28_1637,P26,
stim_fb/ques.jpg,stim_fb/posf.jpg,stim_fb/negf.jpg,stim_02/d.jpg,stim_02/c.jpg,1,2,f,5,46,346,29,f,1,0.81644826863,02,02,60.0193276301,PLT_learning_02,B,2014_Mrz_28_1637,P26,
stim_fb/ques.jpg,stim_fb/negf.jpg,stim_fb/posf.jpg,stim_02/e.jpg,stim_02/f.jpg,2,3,j,5,47,347,51,j,1,0.499862278244,02,02,60.0193276301,PLT_learning_02,B,2014_Mrz_28_1637,P26,
stim_fb/ques.jpg,stim_fb/posf.jpg,stim_fb/negf.jpg,stim_02/f.jpg,stim_02/e.jpg,1,3,f,5,48,348,48,f,1,0.649821035102,02,02,60.0193276301,PLT_learning_02,B,2014_Mrz_28_1637,P26,
stim_fb/ques.jpg,stim_fb/negf.jpg,stim_fb/posf.jpg,stim_02/a.jpg,stim_02/b.jpg,2,1,j,5,49,349,15,j,1,0.749803742063,02,02,60.0193276301,PLT_learning_02,B,2014_Mrz_28_1637,P26,
stim_fb/ques.jpg,stim_fb/negf.jpg,stim_fb/posf.jpg,stim_02/c.jpg,stim_02/d.jpg,2,2,j,5,50,350,33,f,0,0.649838210848,02,02,60.0193276301,PLT_learning_02,B,2014_Mrz_28_1637,P26,
stim_fb/ques.jpg,stim_fb/negf.jpg,stim_fb/posf.jpg,stim_02/b.jpg,stim_02/a.jpg,1,1,f,5,51,351,7,f,1,0.949730497778,02,02,60.0193276301,PLT_learning_02,B,2014_Mrz_28_1637,P26,
stim_fb/ques.jpg,stim_fb/negf.jpg,stim_fb/posf.jpg,stim_02/c.jpg,stim_02/d.jpg,2,2,j,5,52,352,32,j,1,0.899719621204,02,02,60.0193276301,PLT_learning_02,B,2014_Mrz_28_1637,P26,
stim_fb/ques.jpg,stim_fb/negf.jpg,stim_fb/posf.jpg,stim_02/c.jpg,stim_02/d.jpg,2,2,j,5,53,353,35,j,1,0.499876840488,02,02,60.0193276301,PLT_learning_02,B,2014_Mrz_28_1637,P26,
stim_fb/ques.jpg,stim_fb/negf.jpg,stim_fb/posf.jpg,stim_02/a.jpg,stim_02/b.jpg,2,1,j,5,54,354,13,j,1,0.733135124043,02,02,60.0193276301,PLT_learning_02,B,2014_Mrz_28_1637,P26,
stim_fb/ques.jpg,stim_fb/posf.jpg,stim_fb/negf.jpg,stim_02/c.jpg,stim_02/d.jpg,2,2,j,5,55,355,39,j,1,0.56656448837,02,02,60.0193276301,PLT_learning_02,B,2014_Mrz_28_1637,P26,
stim_fb/ques.jpg,stim_fb/posf.jpg,stim_fb/negf.jpg,stim_02/b.jpg,stim_02/a.jpg,1,1,f,5,56,356,8,j,0,0.76645289865,02,02,60.0193276301,PLT_learning_02,B,2014_Mrz_28_1637,P26,
stim_fb/ques.jpg,stim_fb/posf.jpg,stim_fb/negf.jpg,stim_02/c.jpg,stim_02/d.jpg,2,2,j,5,57,357,38,j,1,0.633176982214,02,02,60.0193276301,PLT_learning_02,B,2014_Mrz_28_1637,P26,
stim_fb/ques.jpg,stim_fb/posf.jpg,stim_fb/negf.jpg,stim_02/a.jpg,stim_02/b.jpg,2,1,j,5,58,358,18,j,1,1.64952428657,02,02,60.0193276301,PLT_learning_02,B,2014_Mrz_28_1637,P26,
stim_fb/ques.jpg,stim_fb/negf.jpg,stim_fb/posf.jpg,stim_02/f.jpg,stim_02/e.jpg,1,3,f,5,59,359,43,f,1,0.566554323072,02,02,60.0193276301,PLT_learning_02,B,2014_Mrz_28_1637,P26,
