Fb3,Fb2,Fb1,Symbol2,Symbol1,PosCond,Pair,Correct,trials.thisRepN,trials.thisTrialN,trials.thisN,trials.thisIndex,Response.keys,Response.corr,Response.rt,Version,Session Number,frameRate,expName,StimCondition,date,Participant,
stim_fb/ques.jpg,stim_fb/negf.jpg,stim_fb/posf.jpg,stim_02/b.jpg,stim_02/a.jpg,1,1,f,0,0,0,0,j,0,0.799795102293,02,03,60.0166406392,PLT_learning_02,B,2014_Apr_04_1253,P27,
stim_fb/ques.jpg,stim_fb/negf.jpg,stim_fb/posf.jpg,stim_02/c.jpg,stim_02/d.jpg,2,2,j,0,1,1,31,f,0,1.09968731062,02,03,60.0166406392,PLT_learning_02,B,2014_Apr_04_1253,P27,
stim_fb/ques.jpg,stim_fb/negf.jpg,stim_fb/posf.jpg,stim_02/c.jpg,stim_02/d.jpg,2,2,j,0,2,2,33,j,1,0.916387705356,02,03,60.0166406392,PLT_learning_02,B,2014_Apr_04_1253,P27,
stim_fb/ques.jpg,stim_fb/negf.jpg,stim_fb/posf.jpg,stim_02/f.jpg,stim_02/e.jpg,1,3,f,0,3,3,43,j,0,1.016385558,02,03,60.0166406392,PLT_learning_02,B,2014_Apr_04_1253,P27,
stim_fb/ques.jpg,stim_fb/posf.jpg,stim_fb/negf.jpg,stim_02/e.jpg,stim_02/f.jpg,2,3,j,0,4,4,59,j,1,1.1996316148,02,03,60.0166406392,PLT_learning_02,B,2014_Apr_04_1253,P27,
stim_fb/ques.jpg,stim_fb/negf.jpg,stim_fb/posf.jpg,stim_02/d.jpg,stim_02/c.jpg,1,2,f,0,5,5,25,f,1,1.26632595845,02,03,60.0166406392,PLT_learning_02,B,2014_Apr_04_1253,P27,
stim_fb/ques.jpg,stim_fb/negf.jpg,stim_fb/posf.jpg,stim_02/c.jpg,stim_02/d.jpg,2,2,j,0,6,6,35,j,1,0.833141362847,02,03,60.0166406392,PLT_learning_02,B,2014_Apr_04_1253,P27,
stim_fb/ques.jpg,stim_fb/posf.jpg,stim_fb/negf.jpg,stim_02/c.jpg,stim_02/d.jpg,2,2,j,0,7,7,37,j,1,0.549887167766,02,03,60.0166406392,PLT_learning_02,B,2014_Apr_04_1253,P27,
stim_fb/ques.jpg,stim_fb/negf.jpg,stim_fb/posf.jpg,stim_02/a.jpg,stim_02/b.jpg,2,1,j,0,8,8,11,j,1,1.3496552868,02,03,60.0166406392,PLT_learning_02,B,2014_Apr_04_1253,P27,
stim_fb/ques.jpg,stim_fb/posf.jpg,stim_fb/negf.jpg,stim_02/b.jpg,stim_02/a.jpg,1,1,f,0,9,9,9,j,0,0.866434613273,02,03,60.0166406392,PLT_learning_02,B,2014_Apr_04_1253,P27,
stim_fb/ques.jpg,stim_fb/negf.jpg,stim_fb/posf.jpg,stim_02/d.jpg,stim_02/c.jpg,1,2,f,0,10,10,26,f,1,1.0663095285,02,03,60.0166406392,PLT_learning_02,B,2014_Apr_04_1253,P27,
stim_fb/ques.jpg,stim_fb/negf.jpg,stim_fb/posf.jpg,stim_02/d.jpg,stim_02/c.jpg,1,2,f,0,11,11,21,f,1,0.466530877211,02,03,60.0166406392,PLT_learning_02,B,2014_Apr_04_1253,P27,
stim_fb/ques.jpg,stim_fb/negf.jpg,stim_fb/posf.jpg,stim_02/e.jpg,stim_02/f.jpg,2,3,j,0,12,12,55,j,1,1.03305277103,02,03,60.0166406392,PLT_learning_02,B,2014_Apr_04_1253,P27,
stim_fb/ques.jpg,stim_fb/posf.jpg,stim_fb/negf.jpg,stim_02/f.jpg,stim_02/e.jpg,1,3,f,0,13,13,48,f,1,1.08302998925,02,03,60.0166406392,PLT_learning_02,B,2014_Apr_04_1253,P27,
stim_fb/ques.jpg,stim_fb/negf.jpg,stim_fb/posf.jpg,stim_02/d.jpg,stim_02/c.jpg,1,2,f,0,14,14,20,f,1,0.683165606274,02,03,60.0166406392,PLT_learning_02,B,2014_Apr_04_1253,P27,
stim_fb/ques.jpg,stim_fb/posf.jpg,stim_fb/negf.jpg,stim_02/f.jpg,stim_02/e.jpg,1,3,f,0,15,15,47,f,1,0.949724531395,02,03,60.0166406392,PLT_learning_02,B,2014_Apr_04_1253,P27,
stim_fb/ques.jpg,stim_fb/negf.jpg,stim_fb/posf.jpg,stim_02/f.jpg,stim_02/e.jpg,1,3,f,0,16,16,42,f,1,1.04969389403,02,03,60.0166406392,PLT_learning_02,B,2014_Apr_04_1253,P27,
stim_fb/ques.jpg,stim_fb/negf.jpg,stim_fb/posf.jpg,stim_02/e.jpg,stim_02/f.jpg,2,3,j,0,17,17,50,j,1,0.866391720363,02,03,60.0166406392,PLT_learning_02,B,2014_Apr_04_1253,P27,
stim_fb/ques.jpg,stim_fb/negf.jpg,stim_fb/posf.jpg,stim_02/c.jpg,stim_02/d.jpg,2,2,j,0,18,18,32,j,1,1.13298526477,02,03,60.0166406392,PLT_learning_02,B,2014_Apr_04_1253,P27,
stim_fb/ques.jpg,stim_fb/negf.jpg,stim_fb/posf.jpg,stim_02/f.jpg,stim_02/e.jpg,1,3,f,0,19,19,40,f,1,0.966448610161,02,03,60.0166406392,PLT_learning_02,B,2014_Apr_04_1253,P27,
stim_fb/ques.jpg,stim_fb/negf.jpg,stim_fb/posf.jpg,stim_02/a.jpg,stim_02/b.jpg,2,1,j,0,20,20,12,f,0,0.9997045135,02,03,60.0166406392,PLT_learning_02,B,2014_Apr_04_1253,P27,
stim_fb/ques.jpg,stim_fb/negf.jpg,stim_fb/posf.jpg,stim_02/d.jpg,stim_02/c.jpg,1,2,f,0,21,21,23,f,1,1.03298923467,02,03,60.0166406392,PLT_learning_02,B,2014_Apr_04_1253,P27,
stim_fb/ques.jpg,stim_fb/negf.jpg,stim_fb/posf.jpg,stim_02/e.jpg,stim_02/f.jpg,2,3,j,0,22,22,51,j,1,0.783093916587,02,03,60.0166406392,PLT_learning_02,B,2014_Apr_04_1253,P27,
stim_fb/ques.jpg,stim_fb/negf.jpg,stim_fb/posf.jpg,stim_02/b.jpg,stim_02/a.jpg,1,1,f,0,23,23,7,f,1,0.849784371546,02,03,60.0166406392,PLT_learning_02,B,2014_Apr_04_1253,P27,
stim_fb/ques.jpg,stim_fb/negf.jpg,stim_fb/posf.jpg,stim_02/f.jpg,stim_02/e.jpg,1,3,f,0,24,24,44,f,1,0.983075023496,02,03,60.0166406392,PLT_learning_02,B,2014_Apr_04_1253,P27,
stim_fb/ques.jpg,stim_fb/negf.jpg,stim_fb/posf.jpg,stim_02/b.jpg,stim_02/a.jpg,1,1,f,0,25,25,1,f,1,1.03304515004,02,03,60.0166406392,PLT_learning_02,B,2014_Apr_04_1253,P27,
stim_fb/ques.jpg,stim_fb/posf.jpg,stim_fb/negf.jpg,stim_02/e.jpg,stim_02/f.jpg,2,3,j,0,26,26,57,j,1,0.983058133397,02,03,60.0166406392,PLT_learning_02,B,2014_Apr_04_1253,P27,
stim_fb/ques.jpg,stim_fb/posf.jpg,stim_fb/negf.jpg,stim_02/d.jpg,stim_02/c.jpg,1,2,f,0,27,27,29,f,1,0.799799935339,02,03,60.0166406392,PLT_learning_02,B,2014_Apr_04_1253,P27,
stim_fb/ques.jpg,stim_fb/negf.jpg,stim_fb/posf.jpg,stim_02/c.jpg,stim_02/d.jpg,2,2,j,0,28,28,34,f,0,0.999739713235,02,03,60.0166406392,PLT_learning_02,B,2014_Apr_04_1253,P27,
stim_fb/ques.jpg,stim_fb/posf.jpg,stim_fb/negf.jpg,stim_02/d.jpg,stim_02/c.jpg,1,2,f,0,29,29,28,f,1,0.766487782799,02,03,60.0166406392,PLT_learning_02,B,2014_Apr_04_1253,P27,
stim_fb/ques.jpg,stim_fb/negf.jpg,stim_fb/posf.jpg,stim_02/f.jpg,stim_02/e.jpg,1,3,f,0,30,30,45,f,1,0.849759192788,02,03,60.0166406392,PLT_learning_02,B,2014_Apr_04_1253,P27,
stim_fb/ques.jpg,stim_fb/negf.jpg,stim_fb/posf.jpg,stim_02/a.jpg,stim_02/b.jpg,2,1,j,0,31,31,16,f,0,1.08298706326,02,03,60.0166406392,PLT_learning_02,B,2014_Apr_04_1253,P27,
stim_fb/ques.jpg,stim_fb/negf.jpg,stim_fb/posf.jpg,stim_02/b.jpg,stim_02/a.jpg,1,1,f,0,32,32,6,f,1,0.833124707333,02,03,60.0166406392,PLT_learning_02,B,2014_Apr_04_1253,P27,
stim_fb/ques.jpg,stim_fb/negf.jpg,stim_fb/posf.jpg,stim_02/c.jpg,stim_02/d.jpg,2,2,j,0,33,33,36,j,1,1.03300616988,02,03,60.0166406392,PLT_learning_02,B,2014_Apr_04_1253,P27,
stim_fb/ques.jpg,stim_fb/negf.jpg,stim_fb/posf.jpg,stim_02/a.jpg,stim_02/b.jpg,2,1,j,0,34,34,17,j,1,1.04970748491,02,03,60.0166406392,PLT_learning_02,B,2014_Apr_04_1253,P27,
stim_fb/ques.jpg,stim_fb/posf.jpg,stim_fb/negf.jpg,stim_02/f.jpg,stim_02/e.jpg,1,3,f,0,35,35,46,f,1,0.81642798776,02,03,60.0166406392,PLT_learning_02,B,2014_Apr_04_1253,P27,
stim_fb/ques.jpg,stim_fb/negf.jpg,stim_fb/posf.jpg,stim_02/b.jpg,stim_02/a.jpg,1,1,f,0,36,36,2,f,1,0.78309351659,02,03,60.0166406392,PLT_learning_02,B,2014_Apr_04_1253,P27,
stim_fb/ques.jpg,stim_fb/negf.jpg,stim_fb/posf.jpg,stim_02/e.jpg,stim_02/f.jpg,2,3,j,0,37,37,53,j,1,0.966373443809,02,03,60.0166406392,PLT_learning_02,B,2014_Apr_04_1253,P27,
stim_fb/ques.jpg,stim_fb/negf.jpg,stim_fb/posf.jpg,stim_02/d.jpg,stim_02/c.jpg,1,2,f,0,38,38,24,f,1,0.79971455553,02,03,60.0166406392,PLT_learning_02,B,2014_Apr_04_1253,P27,
stim_fb/ques.jpg,stim_fb/negf.jpg,stim_fb/posf.jpg,stim_02/e.jpg,stim_02/f.jpg,2,3,j,0,39,39,52,j,1,0.666477921218,02,03,60.0166406392,PLT_learning_02,B,2014_Apr_04_1253,P27,
stim_fb/ques.jpg,stim_fb/negf.jpg,stim_fb/posf.jpg,stim_02/a.jpg,stim_02/b.jpg,2,1,j,0,40,40,13,j,1,0.68315855971,02,03,60.0166406392,PLT_learning_02,B,2014_Apr_04_1253,P27,
stim_fb/ques.jpg,stim_fb/posf.jpg,stim_fb/negf.jpg,stim_02/e.jpg,stim_02/f.jpg,2,3,j,0,41,41,56,j,1,0.61654812821,02,03,60.0166406392,PLT_learning_02,B,2014_Apr_04_1253,P27,
stim_fb/ques.jpg,stim_fb/posf.jpg,stim_fb/negf.jpg,stim_02/a.jpg,stim_02/b.jpg,2,1,j,0,42,42,19,j,1,0.883102680431,02,03,60.0166406392,PLT_learning_02,B,2014_Apr_04_1253,P27,
stim_fb/ques.jpg,stim_fb/posf.jpg,stim_fb/negf.jpg,stim_02/b.jpg,stim_02/a.jpg,1,1,f,0,43,43,8,f,1,0.633164538612,02,03,60.0166406392,PLT_learning_02,B,2014_Apr_04_1253,P27,
stim_fb/ques.jpg,stim_fb/negf.jpg,stim_fb/posf.jpg,stim_02/b.jpg,stim_02/a.jpg,1,1,f,0,44,44,5,f,1,0.949716378072,02,03,60.0166406392,PLT_learning_02,B,2014_Apr_04_1253,P27,
stim_fb/ques.jpg,stim_fb/negf.jpg,stim_fb/posf.jpg,stim_02/e.jpg,stim_02/f.jpg,2,3,j,0,45,45,54,j,1,0.716471009993,02,03,60.0166406392,PLT_learning_02,B,2014_Apr_04_1253,P27,
stim_fb/ques.jpg,stim_fb/negf.jpg,stim_fb/posf.jpg,stim_02/b.jpg,stim_02/a.jpg,1,1,f,0,46,46,3,f,1,0.916272403967,02,03,60.0166406392,PLT_learning_02,B,2014_Apr_04_1253,P27,
stim_fb/ques.jpg,stim_fb/posf.jpg,stim_fb/negf.jpg,stim_02/a.jpg,stim_02/b.jpg,2,1,j,0,47,47,18,f,0,0.983043847791,02,03,60.0166406392,PLT_learning_02,B,2014_Apr_04_1253,P27,
stim_fb/ques.jpg,stim_fb/negf.jpg,stim_fb/posf.jpg,stim_02/a.jpg,stim_02/b.jpg,2,1,j,0,48,48,10,f,0,0.799807929264,02,03,60.0166406392,PLT_learning_02,B,2014_Apr_04_1253,P27,
stim_fb/ques.jpg,stim_fb/posf.jpg,stim_fb/negf.jpg,stim_02/e.jpg,stim_02/f.jpg,2,3,j,0,49,49,58,j,1,0.5498677634,02,03,60.0166406392,PLT_learning_02,B,2014_Apr_04_1253,P27,
stim_fb/ques.jpg,stim_fb/negf.jpg,stim_fb/posf.jpg,stim_02/b.jpg,stim_02/a.jpg,1,1,f,0,50,50,4,f,1,0.766436098977,02,03,60.0166406392,PLT_learning_02,B,2014_Apr_04_1253,P27,
stim_fb/ques.jpg,stim_fb/negf.jpg,stim_fb/posf.jpg,stim_02/a.jpg,stim_02/b.jpg,2,1,j,0,51,51,15,j,1,0.733144547786,02,03,60.0166406392,PLT_learning_02,B,2014_Apr_04_1253,P27,
stim_fb/ques.jpg,stim_fb/negf.jpg,stim_fb/posf.jpg,stim_02/d.jpg,stim_02/c.jpg,1,2,f,0,52,52,22,j,0,0.933086048977,02,03,60.0166406392,PLT_learning_02,B,2014_Apr_04_1253,P27,
stim_fb/ques.jpg,stim_fb/posf.jpg,stim_fb/negf.jpg,stim_02/c.jpg,stim_02/d.jpg,2,2,j,0,53,53,38,f,0,0.683159010835,02,03,60.0166406392,PLT_learning_02,B,2014_Apr_04_1253,P27,
stim_fb/ques.jpg,stim_fb/negf.jpg,stim_fb/posf.jpg,stim_02/f.jpg,stim_02/e.jpg,1,3,f,0,54,54,41,f,1,0.76647653777,02,03,60.0166406392,PLT_learning_02,B,2014_Apr_04_1253,P27,
stim_fb/ques.jpg,stim_fb/negf.jpg,stim_fb/posf.jpg,stim_02/c.jpg,stim_02/d.jpg,2,2,j,0,55,55,30,f,0,0.749774155081,02,03,60.0166406392,PLT_learning_02,B,2014_Apr_04_1253,P27,
stim_fb/ques.jpg,stim_fb/negf.jpg,stim_fb/posf.jpg,stim_02/a.jpg,stim_02/b.jpg,2,1,j,0,56,56,14,f,0,0.866380869317,02,03,60.0166406392,PLT_learning_02,B,2014_Apr_04_1253,P27,
stim_fb/ques.jpg,stim_fb/posf.jpg,stim_fb/negf.jpg,stim_02/c.jpg,stim_02/d.jpg,2,2,j,0,57,57,39,f,0,1.06638267381,02,03,60.0166406392,PLT_learning_02,B,2014_Apr_04_1253,P27,
stim_fb/ques.jpg,stim_fb/posf.jpg,stim_fb/negf.jpg,stim_02/d.jpg,stim_02/c.jpg,1,2,f,0,58,58,27,f,1,1.03303901174,02,03,60.0166406392,PLT_learning_02,B,2014_Apr_04_1253,P27,
stim_fb/ques.jpg,stim_fb/posf.jpg,stim_fb/negf.jpg,stim_02/f.jpg,stim_02/e.jpg,1,3,f,0,59,59,49,f,1,0.849788795573,02,03,60.0166406392,PLT_learning_02,B,2014_Apr_04_1253,P27,
stim_fb/ques.jpg,stim_fb/posf.jpg,stim_fb/negf.jpg,stim_02/f.jpg,stim_02/e.jpg,1,3,f,1,0,60,48,f,1,0.766474501695,02,03,60.0166406392,PLT_learning_02,B,2014_Apr_04_1253,P27,
stim_fb/ques.jpg,stim_fb/negf.jpg,stim_fb/posf.jpg,stim_02/c.jpg,stim_02/d.jpg,2,2,j,1,1,61,36,j,1,0.98303825084,02,03,60.0166406392,PLT_learning_02,B,2014_Apr_04_1253,P27,
stim_fb/ques.jpg,stim_fb/negf.jpg,stim_fb/posf.jpg,stim_02/f.jpg,stim_02/e.jpg,1,3,f,1,2,62,44,f,1,0.749837216262,02,03,60.0166406392,PLT_learning_02,B,2014_Apr_04_1253,P27,
stim_fb/ques.jpg,stim_fb/posf.jpg,stim_fb/negf.jpg,stim_02/f.jpg,stim_02/e.jpg,1,3,f,1,3,63,46,f,1,0.633101715025,02,03,60.0166406392,PLT_learning_02,B,2014_Apr_04_1253,P27,
stim_fb/ques.jpg,stim_fb/negf.jpg,stim_fb/posf.jpg,stim_02/a.jpg,stim_02/b.jpg,2,1,j,1,4,64,13,j,1,0.599733033586,02,03,60.0166406392,PLT_learning_02,B,2014_Apr_04_1253,P27,
stim_fb/ques.jpg,stim_fb/negf.jpg,stim_fb/posf.jpg,stim_02/d.jpg,stim_02/c.jpg,1,2,f,1,5,65,23,f,1,0.916403251103,02,03,60.0166406392,PLT_learning_02,B,2014_Apr_04_1253,P27,
stim_fb/ques.jpg,stim_fb/negf.jpg,stim_fb/posf.jpg,stim_02/b.jpg,stim_02/a.jpg,1,1,f,1,6,66,7,f,1,0.983066767919,02,03,60.0166406392,PLT_learning_02,B,2014_Apr_04_1253,P27,
stim_fb/ques.jpg,stim_fb/negf.jpg,stim_fb/posf.jpg,stim_02/d.jpg,stim_02/c.jpg,1,2,f,1,7,67,21,f,1,0.633219347223,02,03,60.0166406392,PLT_learning_02,B,2014_Apr_04_1253,P27,
stim_fb/ques.jpg,stim_fb/negf.jpg,stim_fb/posf.jpg,stim_02/a.jpg,stim_02/b.jpg,2,1,j,1,8,68,11,f,0,0.799736597469,02,03,60.0166406392,PLT_learning_02,B,2014_Apr_04_1253,P27,
stim_fb/ques.jpg,stim_fb/negf.jpg,stim_fb/posf.jpg,stim_02/a.jpg,stim_02/b.jpg,2,1,j,1,9,69,14,j,1,0.766483163284,02,03,60.0166406392,PLT_learning_02,B,2014_Apr_04_1253,P27,
stim_fb/ques.jpg,stim_fb/negf.jpg,stim_fb/posf.jpg,stim_02/d.jpg,stim_02/c.jpg,1,2,f,1,10,70,25,f,1,0.916389293314,02,03,60.0166406392,PLT_learning_02,B,2014_Apr_04_1253,P27,
stim_fb/ques.jpg,stim_fb/negf.jpg,stim_fb/posf.jpg,stim_02/d.jpg,stim_02/c.jpg,1,2,f,1,11,71,22,f,1,0.799756600326,02,03,60.0166406392,PLT_learning_02,B,2014_Apr_04_1253,P27,
stim_fb/ques.jpg,stim_fb/posf.jpg,stim_fb/negf.jpg,stim_02/e.jpg,stim_02/f.jpg,2,3,j,1,12,72,59,j,1,0.899742152315,02,03,60.0166406392,PLT_learning_02,B,2014_Apr_04_1253,P27,
stim_fb/ques.jpg,stim_fb/negf.jpg,stim_fb/posf.jpg,stim_02/f.jpg,stim_02/e.jpg,1,3,f,1,13,73,43,f,1,0.649835141089,02,03,60.0166406392,PLT_learning_02,B,2014_Apr_04_1253,P27,
stim_fb/ques.jpg,stim_fb/negf.jpg,stim_fb/posf.jpg,stim_02/e.jpg,stim_02/f.jpg,2,3,j,1,14,74,52,j,1,0.849744585379,02,03,60.0166406392,PLT_learning_02,B,2014_Apr_04_1253,P27,
stim_fb/ques.jpg,stim_fb/negf.jpg,stim_fb/posf.jpg,stim_02/e.jpg,stim_02/f.jpg,2,3,j,1,15,75,50,j,1,0.499867276186,02,03,60.0166406392,PLT_learning_02,B,2014_Apr_04_1253,P27,
stim_fb/ques.jpg,stim_fb/negf.jpg,stim_fb/posf.jpg,stim_02/c.jpg,stim_02/d.jpg,2,2,j,1,16,76,33,j,1,0.68316231908,02,03,60.0166406392,PLT_learning_02,B,2014_Apr_04_1253,P27,
stim_fb/ques.jpg,stim_fb/posf.jpg,stim_fb/negf.jpg,stim_02/c.jpg,stim_02/d.jpg,2,2,j,1,17,77,38,j,1,0.633175777626,02,03,60.0166406392,PLT_learning_02,B,2014_Apr_04_1253,P27,
stim_fb/ques.jpg,stim_fb/negf.jpg,stim_fb/posf.jpg,stim_02/e.jpg,stim_02/f.jpg,2,3,j,1,18,78,54,j,1,0.649857796558,02,03,60.0166406392,PLT_learning_02,B,2014_Apr_04_1253,P27,
stim_fb/ques.jpg,stim_fb/negf.jpg,stim_fb/posf.jpg,stim_02/b.jpg,stim_02/a.jpg,1,1,f,1,19,79,3,f,1,0.649831706528,02,03,60.0166406392,PLT_learning_02,B,2014_Apr_04_1253,P27,
stim_fb/ques.jpg,stim_fb/negf.jpg,stim_fb/posf.jpg,stim_02/f.jpg,stim_02/e.jpg,1,3,f,1,20,80,42,f,1,0.549912701408,02,03,60.0166406392,PLT_learning_02,B,2014_Apr_04_1253,P27,
stim_fb/ques.jpg,stim_fb/negf.jpg,stim_fb/posf.jpg,stim_02/a.jpg,stim_02/b.jpg,2,1,j,1,21,81,10,j,1,0.766448781588,02,03,60.0166406392,PLT_learning_02,B,2014_Apr_04_1253,P27,
stim_fb/ques.jpg,stim_fb/negf.jpg,stim_fb/posf.jpg,stim_02/a.jpg,stim_02/b.jpg,2,1,j,1,22,82,12,j,1,0.666487196337,02,03,60.0166406392,PLT_learning_02,B,2014_Apr_04_1253,P27,
stim_fb/ques.jpg,stim_fb/negf.jpg,stim_fb/posf.jpg,stim_02/a.jpg,stim_02/b.jpg,2,1,j,1,23,83,17,j,1,0.866452065774,02,03,60.0166406392,PLT_learning_02,B,2014_Apr_04_1253,P27,
stim_fb/ques.jpg,stim_fb/negf.jpg,stim_fb/posf.jpg,stim_02/b.jpg,stim_02/a.jpg,1,1,f,1,24,84,5,f,1,0.933074280645,02,03,60.0166406392,PLT_learning_02,B,2014_Apr_04_1253,P27,
stim_fb/ques.jpg,stim_fb/posf.jpg,stim_fb/negf.jpg,stim_02/e.jpg,stim_02/f.jpg,2,3,j,1,25,85,56,j,1,0.649826699047,02,03,60.0166406392,PLT_learning_02,B,2014_Apr_04_1253,P27,
stim_fb/ques.jpg,stim_fb/negf.jpg,stim_fb/posf.jpg,stim_02/b.jpg,stim_02/a.jpg,1,1,f,1,26,86,1,f,1,0.849803547342,02,03,60.0166406392,PLT_learning_02,B,2014_Apr_04_1253,P27,
stim_fb/ques.jpg,stim_fb/negf.jpg,stim_fb/posf.jpg,stim_02/b.jpg,stim_02/a.jpg,1,1,f,1,27,87,6,f,1,0.483226165217,02,03,60.0166406392,PLT_learning_02,B,2014_Apr_04_1253,P27,
stim_fb/ques.jpg,stim_fb/posf.jpg,stim_fb/negf.jpg,stim_02/e.jpg,stim_02/f.jpg,2,3,j,1,28,88,57,j,1,0.716479572334,02,03,60.0166406392,PLT_learning_02,B,2014_Apr_04_1253,P27,
stim_fb/ques.jpg,stim_fb/posf.jpg,stim_fb/negf.jpg,stim_02/f.jpg,stim_02/e.jpg,1,3,f,1,29,89,49,f,1,0.866366033338,02,03,60.0166406392,PLT_learning_02,B,2014_Apr_04_1253,P27,
stim_fb/ques.jpg,stim_fb/posf.jpg,stim_fb/negf.jpg,stim_02/a.jpg,stim_02/b.jpg,2,1,j,1,30,90,19,j,1,0.69982240735,02,03,60.0166406392,PLT_learning_02,B,2014_Apr_04_1253,P27,
stim_fb/ques.jpg,stim_fb/posf.jpg,stim_fb/negf.jpg,stim_02/a.jpg,stim_02/b.jpg,2,1,j,1,31,91,18,j,1,0.699821384802,02,03,60.0166406392,PLT_learning_02,B,2014_Apr_04_1253,P27,
stim_fb/ques.jpg,stim_fb/negf.jpg,stim_fb/posf.jpg,stim_02/d.jpg,stim_02/c.jpg,1,2,f,1,32,92,26,f,1,0.599852641709,02,03,60.0166406392,PLT_learning_02,B,2014_Apr_04_1253,P27,
stim_fb/ques.jpg,stim_fb/posf.jpg,stim_fb/negf.jpg,stim_02/b.jpg,stim_02/a.jpg,1,1,f,1,33,93,8,f,1,0.766459091285,02,03,60.0166406392,PLT_learning_02,B,2014_Apr_04_1253,P27,
stim_fb/ques.jpg,stim_fb/posf.jpg,stim_fb/negf.jpg,stim_02/d.jpg,stim_02/c.jpg,1,2,f,1,34,94,27,f,1,0.616517996105,02,03,60.0166406392,PLT_learning_02,B,2014_Apr_04_1253,P27,
stim_fb/ques.jpg,stim_fb/negf.jpg,stim_fb/posf.jpg,stim_02/c.jpg,stim_02/d.jpg,2,2,j,1,35,95,32,j,1,0.533220420899,02,03,60.0166406392,PLT_learning_02,B,2014_Apr_04_1253,P27,
stim_fb/ques.jpg,stim_fb/negf.jpg,stim_fb/posf.jpg,stim_02/d.jpg,stim_02/c.jpg,1,2,f,1,36,96,24,j,0,0.733138526778,02,03,60.0166406392,PLT_learning_02,B,2014_Apr_04_1253,P27,
stim_fb/ques.jpg,stim_fb/negf.jpg,stim_fb/posf.jpg,stim_02/c.jpg,stim_02/d.jpg,2,2,j,1,37,97,35,f,0,0.533191070744,02,03,60.0166406392,PLT_learning_02,B,2014_Apr_04_1253,P27,
stim_fb/ques.jpg,stim_fb/negf.jpg,stim_fb/posf.jpg,stim_02/e.jpg,stim_02/f.jpg,2,3,j,1,38,98,53,j,1,0.699835032819,02,03,60.0166406392,PLT_learning_02,B,2014_Apr_04_1253,P27,
stim_fb/ques.jpg,stim_fb/posf.jpg,stim_fb/negf.jpg,stim_02/e.jpg,stim_02/f.jpg,2,3,j,1,39,99,58,j,1,0.633165290486,02,03,60.0166406392,PLT_learning_02,B,2014_Apr_04_1253,P27,
stim_fb/ques.jpg,stim_fb/posf.jpg,stim_fb/negf.jpg,stim_02/d.jpg,stim_02/c.jpg,1,2,f,1,40,100,28,f,1,0.516546967316,02,03,60.0166406392,PLT_learning_02,B,2014_Apr_04_1253,P27,
stim_fb/ques.jpg,stim_fb/negf.jpg,stim_fb/posf.jpg,stim_02/f.jpg,stim_02/e.jpg,1,3,f,1,41,101,41,f,1,0.833130505785,02,03,60.0166406392,PLT_learning_02,B,2014_Apr_04_1253,P27,
stim_fb/ques.jpg,stim_fb/posf.jpg,stim_fb/negf.jpg,stim_02/f.jpg,stim_02/e.jpg,1,3,f,1,42,102,47,f,1,0.699841095932,02,03,60.0166406392,PLT_learning_02,B,2014_Apr_04_1253,P27,
stim_fb/ques.jpg,stim_fb/posf.jpg,stim_fb/negf.jpg,stim_02/c.jpg,stim_02/d.jpg,2,2,j,1,43,103,39,j,1,0.499859586018,02,03,60.0166406392,PLT_learning_02,B,2014_Apr_04_1253,P27,
stim_fb/ques.jpg,stim_fb/negf.jpg,stim_fb/posf.jpg,stim_02/b.jpg,stim_02/a.jpg,1,1,f,1,44,104,0,f,1,0.550017323178,02,03,60.0166406392,PLT_learning_02,B,2014_Apr_04_1253,P27,
stim_fb/ques.jpg,stim_fb/negf.jpg,stim_fb/posf.jpg,stim_02/c.jpg,stim_02/d.jpg,2,2,j,1,45,105,34,f,0,0.699809751806,02,03,60.0166406392,PLT_learning_02,B,2014_Apr_04_1253,P27,
stim_fb/ques.jpg,stim_fb/posf.jpg,stim_fb/negf.jpg,stim_02/c.jpg,stim_02/d.jpg,2,2,j,1,46,106,37,j,1,0.449861050669,02,03,60.0166406392,PLT_learning_02,B,2014_Apr_04_1253,P27,
stim_fb/ques.jpg,stim_fb/negf.jpg,stim_fb/posf.jpg,stim_02/c.jpg,stim_02/d.jpg,2,2,j,1,47,107,30,j,1,0.483267076188,02,03,60.0166406392,PLT_learning_02,B,2014_Apr_04_1253,P27,
stim_fb/ques.jpg,stim_fb/negf.jpg,stim_fb/posf.jpg,stim_02/e.jpg,stim_02/f.jpg,2,3,j,1,48,108,51,j,1,0.616486645965,02,03,60.0166406392,PLT_learning_02,B,2014_Apr_04_1253,P27,
stim_fb/ques.jpg,stim_fb/negf.jpg,stim_fb/posf.jpg,stim_02/c.jpg,stim_02/d.jpg,2,2,j,1,49,109,31,j,1,0.56652804415,02,03,60.0166406392,PLT_learning_02,B,2014_Apr_04_1253,P27,
stim_fb/ques.jpg,stim_fb/posf.jpg,stim_fb/negf.jpg,stim_02/b.jpg,stim_02/a.jpg,1,1,f,1,50,110,9,f,1,0.516545409433,02,03,60.0166406392,PLT_learning_02,B,2014_Apr_04_1253,P27,
stim_fb/ques.jpg,stim_fb/negf.jpg,stim_fb/posf.jpg,stim_02/a.jpg,stim_02/b.jpg,2,1,j,1,51,111,16,j,1,0.549858683769,02,03,60.0166406392,PLT_learning_02,B,2014_Apr_04_1253,P27,
stim_fb/ques.jpg,stim_fb/negf.jpg,stim_fb/posf.jpg,stim_02/d.jpg,stim_02/c.jpg,1,2,f,1,52,112,20,j,0,0.466543848543,02,03,60.0166406392,PLT_learning_02,B,2014_Apr_04_1253,P27,
stim_fb/ques.jpg,stim_fb/negf.jpg,stim_fb/posf.jpg,stim_02/f.jpg,stim_02/e.jpg,1,3,f,1,53,113,45,f,1,0.616481085105,02,03,60.0166406392,PLT_learning_02,B,2014_Apr_04_1253,P27,
stim_fb/ques.jpg,stim_fb/negf.jpg,stim_fb/posf.jpg,stim_02/b.jpg,stim_02/a.jpg,1,1,f,1,54,114,4,f,1,0.466564519064,02,03,60.0166406392,PLT_learning_02,B,2014_Apr_04_1253,P27,
stim_fb/ques.jpg,stim_fb/posf.jpg,stim_fb/negf.jpg,stim_02/d.jpg,stim_02/c.jpg,1,2,f,1,55,115,29,f,1,0.733151146232,02,03,60.0166406392,PLT_learning_02,B,2014_Apr_04_1253,P27,
stim_fb/ques.jpg,stim_fb/negf.jpg,stim_fb/posf.jpg,stim_02/e.jpg,stim_02/f.jpg,2,3,j,1,56,116,55,j,1,0.849786780551,02,03,60.0166406392,PLT_learning_02,B,2014_Apr_04_1253,P27,
stim_fb/ques.jpg,stim_fb/negf.jpg,stim_fb/posf.jpg,stim_02/b.jpg,stim_02/a.jpg,1,1,f,1,57,117,2,f,1,0.799772909978,02,03,60.0166406392,PLT_learning_02,B,2014_Apr_04_1253,P27,
stim_fb/ques.jpg,stim_fb/negf.jpg,stim_fb/posf.jpg,stim_02/a.jpg,stim_02/b.jpg,2,1,j,1,58,118,15,j,1,0.733058398057,02,03,60.0166406392,PLT_learning_02,B,2014_Apr_04_1253,P27,
stim_fb/ques.jpg,stim_fb/negf.jpg,stim_fb/posf.jpg,stim_02/f.jpg,stim_02/e.jpg,1,3,f,1,59,119,40,f,1,0.783126322358,02,03,60.0166406392,PLT_learning_02,B,2014_Apr_04_1253,P27,
stim_fb/ques.jpg,stim_fb/posf.jpg,stim_fb/negf.jpg,stim_02/f.jpg,stim_02/e.jpg,1,3,f,2,0,120,46,f,1,0.766461373974,02,03,60.0166406392,PLT_learning_02,B,2014_Apr_04_1253,P27,
stim_fb/ques.jpg,stim_fb/negf.jpg,stim_fb/posf.jpg,stim_02/e.jpg,stim_02/f.jpg,2,3,j,2,1,121,53,f,0,0.583182517425,02,03,60.0166406392,PLT_learning_02,B,2014_Apr_04_1253,P27,
stim_fb/ques.jpg,stim_fb/negf.jpg,stim_fb/posf.jpg,stim_02/f.jpg,stim_02/e.jpg,1,3,f,2,2,122,40,f,1,0.683188998579,02,03,60.0166406392,PLT_learning_02,B,2014_Apr_04_1253,P27,
stim_fb/ques.jpg,stim_fb/posf.jpg,stim_fb/negf.jpg,stim_02/d.jpg,stim_02/c.jpg,1,2,f,2,3,123,27,f,1,0.81643762077,02,03,60.0166406392,PLT_learning_02,B,2014_Apr_04_1253,P27,
stim_fb/ques.jpg,stim_fb/negf.jpg,stim_fb/posf.jpg,stim_02/e.jpg,stim_02/f.jpg,2,3,j,2,4,124,50,j,1,0.999715584093,02,03,60.0166406392,PLT_learning_02,B,2014_Apr_04_1253,P27,
stim_fb/ques.jpg,stim_fb/posf.jpg,stim_fb/negf.jpg,stim_02/f.jpg,stim_02/e.jpg,1,3,f,2,5,125,48,f,1,0.583238968128,02,03,60.0166406392,PLT_learning_02,B,2014_Apr_04_1253,P27,
stim_fb/ques.jpg,stim_fb/negf.jpg,stim_fb/posf.jpg,stim_02/f.jpg,stim_02/e.jpg,1,3,f,2,6,126,43,f,1,0.633176893407,02,03,60.0166406392,PLT_learning_02,B,2014_Apr_04_1253,P27,
stim_fb/ques.jpg,stim_fb/negf.jpg,stim_fb/posf.jpg,stim_02/d.jpg,stim_02/c.jpg,1,2,f,2,7,127,22,f,1,0.81645126578,02,03,60.0166406392,PLT_learning_02,B,2014_Apr_04_1253,P27,
stim_fb/ques.jpg,stim_fb/negf.jpg,stim_fb/posf.jpg,stim_02/c.jpg,stim_02/d.jpg,2,2,j,2,8,128,30,j,1,0.766449530454,02,03,60.0166406392,PLT_learning_02,B,2014_Apr_04_1253,P27,
stim_fb/ques.jpg,stim_fb/posf.jpg,stim_fb/negf.jpg,stim_02/e.jpg,stim_02/f.jpg,2,3,j,2,9,129,58,j,1,0.766466390478,02,03,60.0166406392,PLT_learning_02,B,2014_Apr_04_1253,P27,
stim_fb/ques.jpg,stim_fb/negf.jpg,stim_fb/posf.jpg,stim_02/c.jpg,stim_02/d.jpg,2,2,j,2,10,130,33,j,1,0.533384200119,02,03,60.0166406392,PLT_learning_02,B,2014_Apr_04_1253,P27,
stim_fb/ques.jpg,stim_fb/posf.jpg,stim_fb/negf.jpg,stim_02/e.jpg,stim_02/f.jpg,2,3,j,2,11,131,57,j,1,0.566544780866,02,03,60.0166406392,PLT_learning_02,B,2014_Apr_04_1253,P27,
stim_fb/ques.jpg,stim_fb/negf.jpg,stim_fb/posf.jpg,stim_02/d.jpg,stim_02/c.jpg,1,2,f,2,12,132,25,f,1,0.683051345479,02,03,60.0166406392,PLT_learning_02,B,2014_Apr_04_1253,P27,
stim_fb/ques.jpg,stim_fb/negf.jpg,stim_fb/posf.jpg,stim_02/d.jpg,stim_02/c.jpg,1,2,f,2,13,133,24,f,1,0.549840271878,02,03,60.0166406392,PLT_learning_02,B,2014_Apr_04_1253,P27,
stim_fb/ques.jpg,stim_fb/posf.jpg,stim_fb/negf.jpg,stim_02/f.jpg,stim_02/e.jpg,1,3,f,2,14,134,47,f,1,0.99978682867,02,03,60.0166406392,PLT_learning_02,B,2014_Apr_04_1253,P27,
stim_fb/ques.jpg,stim_fb/posf.jpg,stim_fb/negf.jpg,stim_02/c.jpg,stim_02/d.jpg,2,2,j,2,15,135,37,j,1,0.56653191179,02,03,60.0166406392,PLT_learning_02,B,2014_Apr_04_1253,P27,
stim_fb/ques.jpg,stim_fb/negf.jpg,stim_fb/posf.jpg,stim_02/a.jpg,stim_02/b.jpg,2,1,j,2,16,136,15,f,0,0.899725184021,02,03,60.0166406392,PLT_learning_02,B,2014_Apr_04_1253,P27,
stim_fb/ques.jpg,stim_fb/posf.jpg,stim_fb/negf.jpg,stim_02/a.jpg,stim_02/b.jpg,2,1,j,2,17,137,19,f,0,0.71647912121,02,03,60.0166406392,PLT_learning_02,B,2014_Apr_04_1253,P27,
stim_fb/ques.jpg,stim_fb/negf.jpg,stim_fb/posf.jpg,stim_02/a.jpg,stim_02/b.jpg,2,1,j,2,18,138,16,f,0,0.616510248795,02,03,60.0166406392,PLT_learning_02,B,2014_Apr_04_1253,P27,
stim_fb/ques.jpg,stim_fb/negf.jpg,stim_fb/posf.jpg,stim_02/d.jpg,stim_02/c.jpg,1,2,f,2,19,139,23,f,1,0.733118821663,02,03,60.0166406392,PLT_learning_02,B,2014_Apr_04_1253,P27,
stim_fb/ques.jpg,stim_fb/negf.jpg,stim_fb/posf.jpg,stim_02/a.jpg,stim_02/b.jpg,2,1,j,2,20,140,13,j,1,0.83312105924,02,03,60.0166406392,PLT_learning_02,B,2014_Apr_04_1253,P27,
stim_fb/ques.jpg,stim_fb/posf.jpg,stim_fb/negf.jpg,stim_02/a.jpg,stim_02/b.jpg,2,1,j,2,21,141,18,j,1,0.716485728678,02,03,60.0166406392,PLT_learning_02,B,2014_Apr_04_1253,P27,
stim_fb/ques.jpg,stim_fb/negf.jpg,stim_fb/posf.jpg,stim_02/b.jpg,stim_02/a.jpg,1,1,f,2,22,142,7,f,1,0.733135765896,02,03,60.0166406392,PLT_learning_02,B,2014_Apr_04_1253,P27,
stim_fb/ques.jpg,stim_fb/negf.jpg,stim_fb/posf.jpg,stim_02/a.jpg,stim_02/b.jpg,2,1,j,2,23,143,14,j,1,0.6998188164,02,03,60.0166406392,PLT_learning_02,B,2014_Apr_04_1253,P27,
stim_fb/ques.jpg,stim_fb/posf.jpg,stim_fb/negf.jpg,stim_02/b.jpg,stim_02/a.jpg,1,1,f,2,24,144,9,f,1,0.516517229194,02,03,60.0166406392,PLT_learning_02,B,2014_Apr_04_1253,P27,
stim_fb/ques.jpg,stim_fb/negf.jpg,stim_fb/posf.jpg,stim_02/b.jpg,stim_02/a.jpg,1,1,f,2,25,145,5,f,1,0.633199500755,02,03,60.0166406392,PLT_learning_02,B,2014_Apr_04_1253,P27,
stim_fb/ques.jpg,stim_fb/posf.jpg,stim_fb/negf.jpg,stim_02/e.jpg,stim_02/f.jpg,2,3,j,2,26,146,59,j,1,0.683153004864,02,03,60.0166406392,PLT_learning_02,B,2014_Apr_04_1253,P27,
stim_fb/ques.jpg,stim_fb/negf.jpg,stim_fb/posf.jpg,stim_02/c.jpg,stim_02/d.jpg,2,2,j,2,27,147,34,j,1,0.566489322637,02,03,60.0166406392,PLT_learning_02,B,2014_Apr_04_1253,P27,
stim_fb/ques.jpg,stim_fb/posf.jpg,stim_fb/negf.jpg,stim_02/e.jpg,stim_02/f.jpg,2,3,j,2,28,148,56,j,1,0.866438153097,02,03,60.0166406392,PLT_learning_02,B,2014_Apr_04_1253,P27,
stim_fb/ques.jpg,stim_fb/negf.jpg,stim_fb/posf.jpg,stim_02/c.jpg,stim_02/d.jpg,2,2,j,2,29,149,31,j,1,0.649841559086,02,03,60.0166406392,PLT_learning_02,B,2014_Apr_04_1253,P27,
stim_fb/ques.jpg,stim_fb/posf.jpg,stim_fb/negf.jpg,stim_02/b.jpg,stim_02/a.jpg,1,1,f,2,30,150,8,f,1,0.549876259577,02,03,60.0166406392,PLT_learning_02,B,2014_Apr_04_1253,P27,
stim_fb/ques.jpg,stim_fb/negf.jpg,stim_fb/posf.jpg,stim_02/f.jpg,stim_02/e.jpg,1,3,f,2,31,151,44,f,1,0.716467852121,02,03,60.0166406392,PLT_learning_02,B,2014_Apr_04_1253,P27,
stim_fb/ques.jpg,stim_fb/negf.jpg,stim_fb/posf.jpg,stim_02/c.jpg,stim_02/d.jpg,2,2,j,2,32,152,35,j,1,0.783134165908,02,03,60.0166406392,PLT_learning_02,B,2014_Apr_04_1253,P27,
stim_fb/ques.jpg,stim_fb/posf.jpg,stim_fb/negf.jpg,stim_02/c.jpg,stim_02/d.jpg,2,2,j,2,33,153,39,j,1,0.416551965774,02,03,60.0166406392,PLT_learning_02,B,2014_Apr_04_1253,P27,
stim_fb/ques.jpg,stim_fb/negf.jpg,stim_fb/posf.jpg,stim_02/c.jpg,stim_02/d.jpg,2,2,j,2,34,154,32,j,1,0.466567986707,02,03,60.0166406392,PLT_learning_02,B,2014_Apr_04_1253,P27,
stim_fb/ques.jpg,stim_fb/negf.jpg,stim_fb/posf.jpg,stim_02/e.jpg,stim_02/f.jpg,2,3,j,2,35,155,52,j,1,0.833093011331,02,03,60.0166406392,PLT_learning_02,B,2014_Apr_04_1253,P27,
stim_fb/ques.jpg,stim_fb/posf.jpg,stim_fb/negf.jpg,stim_02/f.jpg,stim_02/e.jpg,1,3,f,2,36,156,49,f,1,0.566469280682,02,03,60.0166406392,PLT_learning_02,B,2014_Apr_04_1253,P27,
stim_fb/ques.jpg,stim_fb/posf.jpg,stim_fb/negf.jpg,stim_02/c.jpg,stim_02/d.jpg,2,2,j,2,37,157,38,j,1,0.549942388403,02,03,60.0166406392,PLT_learning_02,B,2014_Apr_04_1253,P27,
stim_fb/ques.jpg,stim_fb/posf.jpg,stim_fb/negf.jpg,stim_02/d.jpg,stim_02/c.jpg,1,2,f,2,38,158,28,f,1,0.616503241329,02,03,60.0166406392,PLT_learning_02,B,2014_Apr_04_1253,P27,
stim_fb/ques.jpg,stim_fb/negf.jpg,stim_fb/posf.jpg,stim_02/e.jpg,stim_02/f.jpg,2,3,j,2,39,159,51,j,1,0.799810993903,02,03,60.0166406392,PLT_learning_02,B,2014_Apr_04_1253,P27,
stim_fb/ques.jpg,stim_fb/negf.jpg,stim_fb/posf.jpg,stim_02/f.jpg,stim_02/e.jpg,1,3,f,2,40,160,41,f,1,0.766460417591,02,03,60.0166406392,PLT_learning_02,B,2014_Apr_04_1253,P27,
stim_fb/ques.jpg,stim_fb/negf.jpg,stim_fb/posf.jpg,stim_02/e.jpg,stim_02/f.jpg,2,3,j,2,41,161,55,j,1,0.566551794348,02,03,60.0166406392,PLT_learning_02,B,2014_Apr_04_1253,P27,
stim_fb/ques.jpg,stim_fb/negf.jpg,stim_fb/posf.jpg,stim_02/a.jpg,stim_02/b.jpg,2,1,j,2,42,162,11,j,1,0.683162701032,02,03,60.0166406392,PLT_learning_02,B,2014_Apr_04_1253,P27,
stim_fb/ques.jpg,stim_fb/negf.jpg,stim_fb/posf.jpg,stim_02/d.jpg,stim_02/c.jpg,1,2,f,2,43,163,26,f,1,0.733144027488,02,03,60.0166406392,PLT_learning_02,B,2014_Apr_04_1253,P27,
stim_fb/ques.jpg,stim_fb/negf.jpg,stim_fb/posf.jpg,stim_02/b.jpg,stim_02/a.jpg,1,1,f,2,44,164,0,f,1,0.816417626935,02,03,60.0166406392,PLT_learning_02,B,2014_Apr_04_1253,P27,
stim_fb/ques.jpg,stim_fb/negf.jpg,stim_fb/posf.jpg,stim_02/a.jpg,stim_02/b.jpg,2,1,j,2,45,165,17,j,1,0.599826690025,02,03,60.0166406392,PLT_learning_02,B,2014_Apr_04_1253,P27,
stim_fb/ques.jpg,stim_fb/negf.jpg,stim_fb/posf.jpg,stim_02/c.jpg,stim_02/d.jpg,2,2,j,2,46,166,36,j,1,0.649828783242,02,03,60.0166406392,PLT_learning_02,B,2014_Apr_04_1253,P27,
stim_fb/ques.jpg,stim_fb/posf.jpg,stim_fb/negf.jpg,stim_02/d.jpg,stim_02/c.jpg,1,2,f,2,47,167,29,f,1,0.849604688687,02,03,60.0166406392,PLT_learning_02,B,2014_Apr_04_1253,P27,
stim_fb/ques.jpg,stim_fb/negf.jpg,stim_fb/posf.jpg,stim_02/b.jpg,stim_02/a.jpg,1,1,f,2,48,168,6,f,1,0.533175323494,02,03,60.0166406392,PLT_learning_02,B,2014_Apr_04_1253,P27,
stim_fb/ques.jpg,stim_fb/negf.jpg,stim_fb/posf.jpg,stim_02/a.jpg,stim_02/b.jpg,2,1,j,2,49,169,12,j,1,0.616532059158,02,03,60.0166406392,PLT_learning_02,B,2014_Apr_04_1253,P27,
stim_fb/ques.jpg,stim_fb/negf.jpg,stim_fb/posf.jpg,stim_02/f.jpg,stim_02/e.jpg,1,3,f,2,50,170,42,f,1,0.633161687506,02,03,60.0166406392,PLT_learning_02,B,2014_Apr_04_1253,P27,
stim_fb/ques.jpg,stim_fb/negf.jpg,stim_fb/posf.jpg,stim_02/b.jpg,stim_02/a.jpg,1,1,f,2,51,171,3,f,1,0.516538630537,02,03,60.0166406392,PLT_learning_02,B,2014_Apr_04_1253,P27,
stim_fb/ques.jpg,stim_fb/negf.jpg,stim_fb/posf.jpg,stim_02/e.jpg,stim_02/f.jpg,2,3,j,2,52,172,54,j,1,0.883132797498,02,03,60.0166406392,PLT_learning_02,B,2014_Apr_04_1253,P27,
stim_fb/ques.jpg,stim_fb/negf.jpg,stim_fb/posf.jpg,stim_02/f.jpg,stim_02/e.jpg,1,3,f,2,53,173,45,f,1,0.499894460944,02,03,60.0166406392,PLT_learning_02,B,2014_Apr_04_1253,P27,
stim_fb/ques.jpg,stim_fb/negf.jpg,stim_fb/posf.jpg,stim_02/b.jpg,stim_02/a.jpg,1,1,f,2,54,174,2,f,1,0.766447987609,02,03,60.0166406392,PLT_learning_02,B,2014_Apr_04_1253,P27,
stim_fb/ques.jpg,stim_fb/negf.jpg,stim_fb/posf.jpg,stim_02/d.jpg,stim_02/c.jpg,1,2,f,2,55,175,20,f,1,0.616530594507,02,03,60.0166406392,PLT_learning_02,B,2014_Apr_04_1253,P27,
stim_fb/ques.jpg,stim_fb/negf.jpg,stim_fb/posf.jpg,stim_02/b.jpg,stim_02/a.jpg,1,1,f,2,56,176,1,f,1,0.499876497169,02,03,60.0166406392,PLT_learning_02,B,2014_Apr_04_1253,P27,
stim_fb/ques.jpg,stim_fb/negf.jpg,stim_fb/posf.jpg,stim_02/d.jpg,stim_02/c.jpg,1,2,f,2,57,177,21,f,1,0.583198595499,02,03,60.0166406392,PLT_learning_02,B,2014_Apr_04_1253,P27,
stim_fb/ques.jpg,stim_fb/negf.jpg,stim_fb/posf.jpg,stim_02/a.jpg,stim_02/b.jpg,2,1,j,2,58,178,10,j,1,0.683130556914,02,03,60.0166406392,PLT_learning_02,B,2014_Apr_04_1253,P27,
stim_fb/ques.jpg,stim_fb/negf.jpg,stim_fb/posf.jpg,stim_02/b.jpg,stim_02/a.jpg,1,1,f,2,59,179,4,f,1,0.466544738761,02,03,60.0166406392,PLT_learning_02,B,2014_Apr_04_1253,P27,
stim_fb/ques.jpg,stim_fb/posf.jpg,stim_fb/negf.jpg,stim_02/e.jpg,stim_02/f.jpg,2,3,j,3,0,180,58,j,1,0.833091360215,02,03,60.0166406392,PLT_learning_02,B,2014_Apr_04_1253,P27,
stim_fb/ques.jpg,stim_fb/negf.jpg,stim_fb/posf.jpg,stim_02/d.jpg,stim_02/c.jpg,1,2,f,3,1,181,20,f,1,0.766449671807,02,03,60.0166406392,PLT_learning_02,B,2014_Apr_04_1253,P27,
stim_fb/ques.jpg,stim_fb/negf.jpg,stim_fb/posf.jpg,stim_02/e.jpg,stim_02/f.jpg,2,3,j,3,2,182,52,j,1,0.933081041496,02,03,60.0166406392,PLT_learning_02,B,2014_Apr_04_1253,P27,
stim_fb/ques.jpg,stim_fb/negf.jpg,stim_fb/posf.jpg,stim_02/c.jpg,stim_02/d.jpg,2,2,j,3,3,183,32,j,1,0.483232914038,02,03,60.0166406392,PLT_learning_02,B,2014_Apr_04_1253,P27,
stim_fb/ques.jpg,stim_fb/negf.jpg,stim_fb/posf.jpg,stim_02/d.jpg,stim_02/c.jpg,1,2,f,3,4,184,23,f,1,0.649805129285,02,03,60.0166406392,PLT_learning_02,B,2014_Apr_04_1253,P27,
stim_fb/ques.jpg,stim_fb/posf.jpg,stim_fb/negf.jpg,stim_02/c.jpg,stim_02/d.jpg,2,2,j,3,5,185,37,j,1,0.516540149322,02,03,60.0166406392,PLT_learning_02,B,2014_Apr_04_1253,P27,
stim_fb/ques.jpg,stim_fb/posf.jpg,stim_fb/negf.jpg,stim_02/e.jpg,stim_02/f.jpg,2,3,j,3,6,186,57,j,1,0.716480928715,02,03,60.0166406392,PLT_learning_02,B,2014_Apr_04_1253,P27,
stim_fb/ques.jpg,stim_fb/negf.jpg,stim_fb/posf.jpg,stim_02/f.jpg,stim_02/e.jpg,1,3,f,3,7,187,43,f,1,0.816447280848,02,03,60.0166406392,PLT_learning_02,B,2014_Apr_04_1253,P27,
stim_fb/ques.jpg,stim_fb/negf.jpg,stim_fb/posf.jpg,stim_02/c.jpg,stim_02/d.jpg,2,2,j,3,8,188,34,j,1,0.549876431004,02,03,60.0166406392,PLT_learning_02,B,2014_Apr_04_1253,P27,
stim_fb/ques.jpg,stim_fb/negf.jpg,stim_fb/posf.jpg,stim_02/c.jpg,stim_02/d.jpg,2,2,j,3,9,189,35,j,1,0.449904310494,02,03,60.0166406392,PLT_learning_02,B,2014_Apr_04_1253,P27,
stim_fb/ques.jpg,stim_fb/negf.jpg,stim_fb/posf.jpg,stim_02/a.jpg,stim_02/b.jpg,2,1,j,3,10,190,13,j,1,0.999713496891,02,03,60.0166406392,PLT_learning_02,B,2014_Apr_04_1253,P27,
stim_fb/ques.jpg,stim_fb/negf.jpg,stim_fb/posf.jpg,stim_02/e.jpg,stim_02/f.jpg,2,3,j,3,11,191,54,j,1,0.666515319434,02,03,60.0166406392,PLT_learning_02,B,2014_Apr_04_1253,P27,
stim_fb/ques.jpg,stim_fb/negf.jpg,stim_fb/posf.jpg,stim_02/d.jpg,stim_02/c.jpg,1,2,f,3,12,192,25,f,1,0.783115934467,02,03,60.0166406392,PLT_learning_02,B,2014_Apr_04_1253,P27,
stim_fb/ques.jpg,stim_fb/posf.jpg,stim_fb/negf.jpg,stim_02/d.jpg,stim_02/c.jpg,1,2,f,3,13,193,28,f,1,0.749846055293,02,03,60.0166406392,PLT_learning_02,B,2014_Apr_04_1253,P27,
stim_fb/ques.jpg,stim_fb/posf.jpg,stim_fb/negf.jpg,stim_02/a.jpg,stim_02/b.jpg,2,1,j,3,14,194,19,f,0,0.799739878647,02,03,60.0166406392,PLT_learning_02,B,2014_Apr_04_1253,P27,
stim_fb/ques.jpg,stim_fb/negf.jpg,stim_fb/posf.jpg,stim_02/c.jpg,stim_02/d.jpg,2,2,j,3,15,195,33,j,1,0.599817159269,02,03,60.0166406392,PLT_learning_02,B,2014_Apr_04_1253,P27,
stim_fb/ques.jpg,stim_fb/negf.jpg,stim_fb/posf.jpg,stim_02/b.jpg,stim_02/a.jpg,1,1,f,3,16,196,2,j,0,0.833084873046,02,03,60.0166406392,PLT_learning_02,B,2014_Apr_04_1253,P27,
stim_fb/ques.jpg,stim_fb/negf.jpg,stim_fb/posf.jpg,stim_02/a.jpg,stim_02/b.jpg,2,1,j,3,17,197,11,j,1,0.599829186247,02,03,60.0166406392,PLT_learning_02,B,2014_Apr_04_1253,P27,
stim_fb/ques.jpg,stim_fb/negf.jpg,stim_fb/posf.jpg,stim_02/d.jpg,stim_02/c.jpg,1,2,f,3,18,198,22,f,1,0.583171506981,02,03,60.0166406392,PLT_learning_02,B,2014_Apr_04_1253,P27,
stim_fb/ques.jpg,stim_fb/negf.jpg,stim_fb/posf.jpg,stim_02/d.jpg,stim_02/c.jpg,1,2,f,3,19,199,21,f,1,0.816435365148,02,03,60.0166406392,PLT_learning_02,B,2014_Apr_04_1253,P27,
stim_fb/ques.jpg,stim_fb/posf.jpg,stim_fb/negf.jpg,stim_02/e.jpg,stim_02/f.jpg,2,3,j,3,20,200,59,j,1,0.866437497462,02,03,60.0166406392,PLT_learning_02,B,2014_Apr_04_1253,P27,
stim_fb/ques.jpg,stim_fb/posf.jpg,stim_fb/negf.jpg,stim_02/f.jpg,stim_02/e.jpg,1,3,f,3,21,201,46,f,1,0.699825887024,02,03,60.0166406392,PLT_learning_02,B,2014_Apr_04_1253,P27,
stim_fb/ques.jpg,stim_fb/negf.jpg,stim_fb/posf.jpg,stim_02/a.jpg,stim_02/b.jpg,2,1,j,3,22,202,16,j,1,0.699814978835,02,03,60.0166406392,PLT_learning_02,B,2014_Apr_04_1253,P27,
stim_fb/ques.jpg,stim_fb/posf.jpg,stim_fb/negf.jpg,stim_02/d.jpg,stim_02/c.jpg,1,2,f,3,23,203,27,f,1,0.816417714153,02,03,60.0166406392,PLT_learning_02,B,2014_Apr_04_1253,P27,
stim_fb/ques.jpg,stim_fb/posf.jpg,stim_fb/negf.jpg,stim_02/d.jpg,stim_02/c.jpg,1,2,f,3,24,204,29,f,1,0.766483470049,02,03,60.0166406392,PLT_learning_02,B,2014_Apr_04_1253,P27,
stim_fb/ques.jpg,stim_fb/negf.jpg,stim_fb/posf.jpg,stim_02/c.jpg,stim_02/d.jpg,2,2,j,3,25,205,36,j,1,0.549852623665,02,03,60.0166406392,PLT_learning_02,B,2014_Apr_04_1253,P27,
stim_fb/ques.jpg,stim_fb/negf.jpg,stim_fb/posf.jpg,stim_02/b.jpg,stim_02/a.jpg,1,1,f,3,26,206,4,f,1,0.733155224397,02,03,60.0166406392,PLT_learning_02,B,2014_Apr_04_1253,P27,
stim_fb/ques.jpg,stim_fb/posf.jpg,stim_fb/negf.jpg,stim_02/b.jpg,stim_02/a.jpg,1,1,f,3,27,207,8,f,1,0.549891429388,02,03,60.0166406392,PLT_learning_02,B,2014_Apr_04_1253,P27,
stim_fb/ques.jpg,stim_fb/negf.jpg,stim_fb/posf.jpg,stim_02/b.jpg,stim_02/a.jpg,1,1,f,3,28,208,3,f,1,0.549871649085,02,03,60.0166406392,PLT_learning_02,B,2014_Apr_04_1253,P27,
stim_fb/ques.jpg,stim_fb/negf.jpg,stim_fb/posf.jpg,stim_02/a.jpg,stim_02/b.jpg,2,1,j,3,29,209,17,j,1,0.833117895354,02,03,60.0166406392,PLT_learning_02,B,2014_Apr_04_1253,P27,
stim_fb/ques.jpg,stim_fb/negf.jpg,stim_fb/posf.jpg,stim_02/a.jpg,stim_02/b.jpg,2,1,j,3,30,210,12,j,1,0.383345860557,02,03,60.0166406392,PLT_learning_02,B,2014_Apr_04_1253,P27,
stim_fb/ques.jpg,stim_fb/negf.jpg,stim_fb/posf.jpg,stim_02/c.jpg,stim_02/d.jpg,2,2,j,3,31,211,30,j,1,0.41655159886,02,03,60.0166406392,PLT_learning_02,B,2014_Apr_04_1253,P27,
stim_fb/ques.jpg,stim_fb/negf.jpg,stim_fb/posf.jpg,stim_02/f.jpg,stim_02/e.jpg,1,3,f,3,32,212,45,f,1,0.6498288464,02,03,60.0166406392,PLT_learning_02,B,2014_Apr_04_1253,P27,
stim_fb/ques.jpg,stim_fb/negf.jpg,stim_fb/posf.jpg,stim_02/f.jpg,stim_02/e.jpg,1,3,f,3,33,213,40,f,1,0.766470979918,02,03,60.0166406392,PLT_learning_02,B,2014_Apr_04_1253,P27,
stim_fb/ques.jpg,stim_fb/posf.jpg,stim_fb/negf.jpg,stim_02/c.jpg,stim_02/d.jpg,2,2,j,3,34,214,39,f,0,0.749791754949,02,03,60.0166406392,PLT_learning_02,B,2014_Apr_04_1253,P27,
stim_fb/ques.jpg,stim_fb/negf.jpg,stim_fb/posf.jpg,stim_02/c.jpg,stim_02/d.jpg,2,2,j,3,35,215,31,j,1,0.23327064007,02,03,60.0166406392,PLT_learning_02,B,2014_Apr_04_1253,P27,
stim_fb/ques.jpg,stim_fb/negf.jpg,stim_fb/posf.jpg,stim_02/f.jpg,stim_02/e.jpg,1,3,f,3,36,216,42,f,1,0.699784305381,02,03,60.0166406392,PLT_learning_02,B,2014_Apr_04_1253,P27,
stim_fb/ques.jpg,stim_fb/negf.jpg,stim_fb/posf.jpg,stim_02/b.jpg,stim_02/a.jpg,1,1,f,3,37,217,0,f,1,0.866472291186,02,03,60.0166406392,PLT_learning_02,B,2014_Apr_04_1253,P27,
stim_fb/ques.jpg,stim_fb/posf.jpg,stim_fb/negf.jpg,stim_02/f.jpg,stim_02/e.jpg,1,3,f,3,38,218,47,f,1,1.1662958083,02,03,60.0166406392,PLT_learning_02,B,2014_Apr_04_1253,P27,
stim_fb/ques.jpg,stim_fb/posf.jpg,stim_fb/negf.jpg,stim_02/f.jpg,stim_02/e.jpg,1,3,f,3,39,219,48,f,1,0.466497169195,02,03,60.0166406392,PLT_learning_02,B,2014_Apr_04_1253,P27,
stim_fb/ques.jpg,stim_fb/posf.jpg,stim_fb/negf.jpg,stim_02/b.jpg,stim_02/a.jpg,1,1,f,3,40,220,9,f,1,0.649782404644,02,03,60.0166406392,PLT_learning_02,B,2014_Apr_04_1253,P27,
stim_fb/ques.jpg,stim_fb/negf.jpg,stim_fb/posf.jpg,stim_02/a.jpg,stim_02/b.jpg,2,1,j,3,41,221,10,j,1,0.54987375734,02,03,60.0166406392,PLT_learning_02,B,2014_Apr_04_1253,P27,
stim_fb/ques.jpg,stim_fb/negf.jpg,stim_fb/posf.jpg,stim_02/a.jpg,stim_02/b.jpg,2,1,j,3,42,222,14,j,1,0.516558880009,02,03,60.0166406392,PLT_learning_02,B,2014_Apr_04_1253,P27,
stim_fb/ques.jpg,stim_fb/posf.jpg,stim_fb/negf.jpg,stim_02/e.jpg,stim_02/f.jpg,2,3,j,3,43,223,56,j,1,0.783182956519,02,03,60.0166406392,PLT_learning_02,B,2014_Apr_04_1253,P27,
stim_fb/ques.jpg,stim_fb/negf.jpg,stim_fb/posf.jpg,stim_02/e.jpg,stim_02/f.jpg,2,3,j,3,44,224,50,j,1,0.516558627378,02,03,60.0166406392,PLT_learning_02,B,2014_Apr_04_1253,P27,
stim_fb/ques.jpg,stim_fb/negf.jpg,stim_fb/posf.jpg,stim_02/b.jpg,stim_02/a.jpg,1,1,f,3,45,225,5,f,1,0.566538341817,02,03,60.0166406392,PLT_learning_02,B,2014_Apr_04_1253,P27,
stim_fb/ques.jpg,stim_fb/posf.jpg,stim_fb/negf.jpg,stim_02/c.jpg,stim_02/d.jpg,2,2,j,3,46,226,38,j,1,0.866415112668,02,03,60.0166406392,PLT_learning_02,B,2014_Apr_04_1253,P27,
stim_fb/ques.jpg,stim_fb/posf.jpg,stim_fb/negf.jpg,stim_02/f.jpg,stim_02/e.jpg,1,3,f,3,47,227,49,f,1,0.649836151608,02,03,60.0166406392,PLT_learning_02,B,2014_Apr_04_1253,P27,
stim_fb/ques.jpg,stim_fb/negf.jpg,stim_fb/posf.jpg,stim_02/e.jpg,stim_02/f.jpg,2,3,j,3,48,228,53,j,1,0.583182556522,02,03,60.0166406392,PLT_learning_02,B,2014_Apr_04_1253,P27,
stim_fb/ques.jpg,stim_fb/negf.jpg,stim_fb/posf.jpg,stim_02/a.jpg,stim_02/b.jpg,2,1,j,3,49,229,15,j,1,0.533246366569,02,03,60.0166406392,PLT_learning_02,B,2014_Apr_04_1253,P27,
stim_fb/ques.jpg,stim_fb/negf.jpg,stim_fb/posf.jpg,stim_02/f.jpg,stim_02/e.jpg,1,3,f,3,50,230,41,f,1,0.766474441546,02,03,60.0166406392,PLT_learning_02,B,2014_Apr_04_1253,P27,
stim_fb/ques.jpg,stim_fb/negf.jpg,stim_fb/posf.jpg,stim_02/d.jpg,stim_02/c.jpg,1,2,f,3,51,231,24,f,1,0.799790194059,02,03,60.0166406392,PLT_learning_02,B,2014_Apr_04_1253,P27,
stim_fb/ques.jpg,stim_fb/negf.jpg,stim_fb/posf.jpg,stim_02/b.jpg,stim_02/a.jpg,1,1,f,3,52,232,6,f,1,0.599731605026,02,03,60.0166406392,PLT_learning_02,B,2014_Apr_04_1253,P27,
stim_fb/ques.jpg,stim_fb/negf.jpg,stim_fb/posf.jpg,stim_02/e.jpg,stim_02/f.jpg,2,3,j,3,53,233,55,j,1,0.666503292457,02,03,60.0166406392,PLT_learning_02,B,2014_Apr_04_1253,P27,
stim_fb/ques.jpg,stim_fb/negf.jpg,stim_fb/posf.jpg,stim_02/b.jpg,stim_02/a.jpg,1,1,f,3,54,234,1,f,1,0.533219593838,02,03,60.0166406392,PLT_learning_02,B,2014_Apr_04_1253,P27,
stim_fb/ques.jpg,stim_fb/posf.jpg,stim_fb/negf.jpg,stim_02/a.jpg,stim_02/b.jpg,2,1,j,3,55,235,18,j,1,0.516501779686,02,03,60.0166406392,PLT_learning_02,B,2014_Apr_04_1253,P27,
stim_fb/ques.jpg,stim_fb/negf.jpg,stim_fb/posf.jpg,stim_02/d.jpg,stim_02/c.jpg,1,2,f,3,56,236,26,f,1,0.883085029436,02,03,60.0166406392,PLT_learning_02,B,2014_Apr_04_1253,P27,
stim_fb/ques.jpg,stim_fb/negf.jpg,stim_fb/posf.jpg,stim_02/e.jpg,stim_02/f.jpg,2,3,j,3,57,237,51,j,1,0.966380039248,02,03,60.0166406392,PLT_learning_02,B,2014_Apr_04_1253,P27,
stim_fb/ques.jpg,stim_fb/negf.jpg,stim_fb/posf.jpg,stim_02/f.jpg,stim_02/e.jpg,1,3,f,3,58,238,44,f,1,0.683167949113,02,03,60.0166406392,PLT_learning_02,B,2014_Apr_04_1253,P27,
stim_fb/ques.jpg,stim_fb/negf.jpg,stim_fb/posf.jpg,stim_02/b.jpg,stim_02/a.jpg,1,1,f,3,59,239,7,f,1,0.599818013398,02,03,60.0166406392,PLT_learning_02,B,2014_Apr_04_1253,P27,
stim_fb/ques.jpg,stim_fb/negf.jpg,stim_fb/posf.jpg,stim_02/e.jpg,stim_02/f.jpg,2,3,j,4,0,240,55,j,1,0.966393395538,02,03,60.0166406392,PLT_learning_02,B,2014_Apr_04_1253,P27,
stim_fb/ques.jpg,stim_fb/negf.jpg,stim_fb/posf.jpg,stim_02/f.jpg,stim_02/e.jpg,1,3,f,4,1,241,42,f,1,0.599890770746,02,03,60.0166406392,PLT_learning_02,B,2014_Apr_04_1253,P27,
stim_fb/ques.jpg,stim_fb/negf.jpg,stim_fb/posf.jpg,stim_02/f.jpg,stim_02/e.jpg,1,3,f,4,2,242,44,f,1,0.533131146382,02,03,60.0166406392,PLT_learning_02,B,2014_Apr_04_1253,P27,
stim_fb/ques.jpg,stim_fb/posf.jpg,stim_fb/negf.jpg,stim_02/c.jpg,stim_02/d.jpg,2,2,j,4,3,243,39,j,1,0.766445728979,02,03,60.0166406392,PLT_learning_02,B,2014_Apr_04_1253,P27,
stim_fb/ques.jpg,stim_fb/posf.jpg,stim_fb/negf.jpg,stim_02/e.jpg,stim_02/f.jpg,2,3,j,4,4,244,57,j,1,0.633168294975,02,03,60.0166406392,PLT_learning_02,B,2014_Apr_04_1253,P27,
stim_fb/ques.jpg,stim_fb/negf.jpg,stim_fb/posf.jpg,stim_02/d.jpg,stim_02/c.jpg,1,2,f,4,5,245,25,f,1,0.63315507703,02,03,60.0166406392,PLT_learning_02,B,2014_Apr_04_1253,P27,
stim_fb/ques.jpg,stim_fb/negf.jpg,stim_fb/posf.jpg,stim_02/b.jpg,stim_02/a.jpg,1,1,f,4,6,246,5,f,1,0.666489491056,02,03,60.0166406392,PLT_learning_02,B,2014_Apr_04_1253,P27,
stim_fb/ques.jpg,stim_fb/negf.jpg,stim_fb/posf.jpg,stim_02/d.jpg,stim_02/c.jpg,1,2,f,4,7,247,26,f,1,0.699810323231,02,03,60.0166406392,PLT_learning_02,B,2014_Apr_04_1253,P27,
stim_fb/ques.jpg,stim_fb/posf.jpg,stim_fb/negf.jpg,stim_02/d.jpg,stim_02/c.jpg,1,2,f,4,8,248,29,f,1,0.549850115412,02,03,60.0166406392,PLT_learning_02,B,2014_Apr_04_1253,P27,
stim_fb/ques.jpg,stim_fb/negf.jpg,stim_fb/posf.jpg,stim_02/f.jpg,stim_02/e.jpg,1,3,f,4,9,249,41,f,1,0.666491698558,02,03,60.0166406392,PLT_learning_02,B,2014_Apr_04_1253,P27,
stim_fb/ques.jpg,stim_fb/negf.jpg,stim_fb/posf.jpg,stim_02/d.jpg,stim_02/c.jpg,1,2,f,4,10,250,24,f,1,0.533179007677,02,03,60.0166406392,PLT_learning_02,B,2014_Apr_04_1253,P27,
stim_fb/ques.jpg,stim_fb/negf.jpg,stim_fb/posf.jpg,stim_02/a.jpg,stim_02/b.jpg,2,1,j,4,11,251,11,j,1,0.799751601868,02,03,60.0166406392,PLT_learning_02,B,2014_Apr_04_1253,P27,
stim_fb/ques.jpg,stim_fb/posf.jpg,stim_fb/negf.jpg,stim_02/f.jpg,stim_02/e.jpg,1,3,f,4,12,252,46,f,1,0.516432796746,02,03,60.0166406392,PLT_learning_02,B,2014_Apr_04_1253,P27,
stim_fb/ques.jpg,stim_fb/posf.jpg,stim_fb/negf.jpg,stim_02/b.jpg,stim_02/a.jpg,1,1,f,4,13,253,8,f,1,0.683135970407,02,03,60.0166406392,PLT_learning_02,B,2014_Apr_04_1253,P27,
stim_fb/ques.jpg,stim_fb/negf.jpg,stim_fb/posf.jpg,stim_02/c.jpg,stim_02/d.jpg,2,2,j,4,14,254,36,f,0,0.583187825655,02,03,60.0166406392,PLT_learning_02,B,2014_Apr_04_1253,P27,
stim_fb/ques.jpg,stim_fb/posf.jpg,stim_fb/negf.jpg,stim_02/e.jpg,stim_02/f.jpg,2,3,j,4,15,255,59,j,1,0.699831733596,02,03,60.0166406392,PLT_learning_02,B,2014_Apr_04_1253,P27,
stim_fb/ques.jpg,stim_fb/posf.jpg,stim_fb/negf.jpg,stim_02/d.jpg,stim_02/c.jpg,1,2,f,4,16,256,27,f,1,0.483194673724,02,03,60.0166406392,PLT_learning_02,B,2014_Apr_04_1253,P27,
stim_fb/ques.jpg,stim_fb/negf.jpg,stim_fb/posf.jpg,stim_02/c.jpg,stim_02/d.jpg,2,2,j,4,17,257,30,j,1,0.649788025654,02,03,60.0166406392,PLT_learning_02,B,2014_Apr_04_1253,P27,
stim_fb/ques.jpg,stim_fb/negf.jpg,stim_fb/posf.jpg,stim_02/e.jpg,stim_02/f.jpg,2,3,j,4,18,258,53,j,1,0.799803935309,02,03,60.0166406392,PLT_learning_02,B,2014_Apr_04_1253,P27,
stim_fb/ques.jpg,stim_fb/negf.jpg,stim_fb/posf.jpg,stim_02/e.jpg,stim_02/f.jpg,2,3,j,4,19,259,52,j,1,0.583147501147,02,03,60.0166406392,PLT_learning_02,B,2014_Apr_04_1253,P27,
stim_fb/ques.jpg,stim_fb/negf.jpg,stim_fb/posf.jpg,stim_02/f.jpg,stim_02/e.jpg,1,3,f,4,20,260,45,f,1,0.633218748731,02,03,60.0166406392,PLT_learning_02,B,2014_Apr_04_1253,P27,
stim_fb/ques.jpg,stim_fb/negf.jpg,stim_fb/posf.jpg,stim_02/c.jpg,stim_02/d.jpg,2,2,j,4,21,261,35,f,0,0.583193088774,02,03,60.0166406392,PLT_learning_02,B,2014_Apr_04_1253,P27,
stim_fb/ques.jpg,stim_fb/posf.jpg,stim_fb/negf.jpg,stim_02/b.jpg,stim_02/a.jpg,1,1,f,4,22,262,9,f,1,0.466570804731,02,03,60.0166406392,PLT_learning_02,B,2014_Apr_04_1253,P27,
stim_fb/ques.jpg,stim_fb/negf.jpg,stim_fb/posf.jpg,stim_02/b.jpg,stim_02/a.jpg,1,1,f,4,23,263,1,f,1,0.516512504417,02,03,60.0166406392,PLT_learning_02,B,2014_Apr_04_1253,P27,
stim_fb/ques.jpg,stim_fb/negf.jpg,stim_fb/posf.jpg,stim_02/e.jpg,stim_02/f.jpg,2,3,j,4,24,264,54,j,1,0.649838864369,02,03,60.0166406392,PLT_learning_02,B,2014_Apr_04_1253,P27,
stim_fb/ques.jpg,stim_fb/negf.jpg,stim_fb/posf.jpg,stim_02/e.jpg,stim_02/f.jpg,2,3,j,4,25,265,51,j,1,0.699814762295,02,03,60.0166406392,PLT_learning_02,B,2014_Apr_04_1253,P27,
stim_fb/ques.jpg,stim_fb/posf.jpg,stim_fb/negf.jpg,stim_02/c.jpg,stim_02/d.jpg,2,2,j,4,26,266,38,j,1,0.91643931399,02,03,60.0166406392,PLT_learning_02,B,2014_Apr_04_1253,P27,
stim_fb/ques.jpg,stim_fb/negf.jpg,stim_fb/posf.jpg,stim_02/b.jpg,stim_02/a.jpg,1,1,f,4,27,267,7,f,1,0.549885904617,02,03,60.0166406392,PLT_learning_02,B,2014_Apr_04_1253,P27,
stim_fb/ques.jpg,stim_fb/negf.jpg,stim_fb/posf.jpg,stim_02/a.jpg,stim_02/b.jpg,2,1,j,4,28,268,12,j,1,0.799775207705,02,03,60.0166406392,PLT_learning_02,B,2014_Apr_04_1253,P27,
stim_fb/ques.jpg,stim_fb/negf.jpg,stim_fb/posf.jpg,stim_02/b.jpg,stim_02/a.jpg,1,1,f,4,29,269,3,f,1,0.616511560063,02,03,60.0166406392,PLT_learning_02,B,2014_Apr_04_1253,P27,
stim_fb/ques.jpg,stim_fb/negf.jpg,stim_fb/posf.jpg,stim_02/d.jpg,stim_02/c.jpg,1,2,f,4,30,270,23,f,1,0.799801586455,02,03,60.0166406392,PLT_learning_02,B,2014_Apr_04_1253,P27,
stim_fb/ques.jpg,stim_fb/negf.jpg,stim_fb/posf.jpg,stim_02/b.jpg,stim_02/a.jpg,1,1,f,4,31,271,6,f,1,0.633198538357,02,03,60.0166406392,PLT_learning_02,B,2014_Apr_04_1253,P27,
stim_fb/ques.jpg,stim_fb/negf.jpg,stim_fb/posf.jpg,stim_02/d.jpg,stim_02/c.jpg,1,2,f,4,32,272,22,f,1,0.749827321599,02,03,60.0166406392,PLT_learning_02,B,2014_Apr_04_1253,P27,
stim_fb/ques.jpg,stim_fb/posf.jpg,stim_fb/negf.jpg,stim_02/a.jpg,stim_02/b.jpg,2,1,j,4,33,273,18,j,1,0.866460423606,02,03,60.0166406392,PLT_learning_02,B,2014_Apr_04_1253,P27,
stim_fb/ques.jpg,stim_fb/negf.jpg,stim_fb/posf.jpg,stim_02/b.jpg,stim_02/a.jpg,1,1,f,4,34,274,2,f,1,0.46656406794,02,03,60.0166406392,PLT_learning_02,B,2014_Apr_04_1253,P27,
stim_fb/ques.jpg,stim_fb/negf.jpg,stim_fb/posf.jpg,stim_02/a.jpg,stim_02/b.jpg,2,1,j,4,35,275,14,j,1,0.599860262705,02,03,60.0166406392,PLT_learning_02,B,2014_Apr_04_1253,P27,
stim_fb/ques.jpg,stim_fb/negf.jpg,stim_fb/posf.jpg,stim_02/f.jpg,stim_02/e.jpg,1,3,f,4,36,276,40,f,1,0.733143540274,02,03,60.0166406392,PLT_learning_02,B,2014_Apr_04_1253,P27,
stim_fb/ques.jpg,stim_fb/negf.jpg,stim_fb/posf.jpg,stim_02/d.jpg,stim_02/c.jpg,1,2,f,4,37,277,20,f,1,0.96639979549,02,03,60.0166406392,PLT_learning_02,B,2014_Apr_04_1253,P27,
stim_fb/ques.jpg,stim_fb/posf.jpg,stim_fb/negf.jpg,stim_02/a.jpg,stim_02/b.jpg,2,1,j,4,38,278,19,j,1,0.583226032887,02,03,60.0166406392,PLT_learning_02,B,2014_Apr_04_1253,P27,
stim_fb/ques.jpg,stim_fb/posf.jpg,stim_fb/negf.jpg,stim_02/f.jpg,stim_02/e.jpg,1,3,f,4,39,279,48,f,1,0.566545418455,02,03,60.0166406392,PLT_learning_02,B,2014_Apr_04_1253,P27,
stim_fb/ques.jpg,stim_fb/posf.jpg,stim_fb/negf.jpg,stim_02/f.jpg,stim_02/e.jpg,1,3,f,4,40,280,47,f,1,0.549872930279,02,03,60.0166406392,PLT_learning_02,B,2014_Apr_04_1253,P27,
stim_fb/ques.jpg,stim_fb/negf.jpg,stim_fb/posf.jpg,stim_02/c.jpg,stim_02/d.jpg,2,2,j,4,41,281,34,j,1,0.683145934241,02,03,60.0166406392,PLT_learning_02,B,2014_Apr_04_1253,P27,
stim_fb/ques.jpg,stim_fb/posf.jpg,stim_fb/negf.jpg,stim_02/e.jpg,stim_02/f.jpg,2,3,j,4,42,282,58,j,1,0.616522925392,02,03,60.0166406392,PLT_learning_02,B,2014_Apr_04_1253,P27,
stim_fb/ques.jpg,stim_fb/posf.jpg,stim_fb/negf.jpg,stim_02/e.jpg,stim_02/f.jpg,2,3,j,4,43,283,56,j,1,0.649812160811,02,03,60.0166406392,PLT_learning_02,B,2014_Apr_04_1253,P27,
stim_fb/ques.jpg,stim_fb/posf.jpg,stim_fb/negf.jpg,stim_02/d.jpg,stim_02/c.jpg,1,2,f,4,44,284,28,f,1,0.59981870813,02,03,60.0166406392,PLT_learning_02,B,2014_Apr_04_1253,P27,
stim_fb/ques.jpg,stim_fb/posf.jpg,stim_fb/negf.jpg,stim_02/f.jpg,stim_02/e.jpg,1,3,f,4,45,285,49,f,1,0.799803351854,02,03,60.0166406392,PLT_learning_02,B,2014_Apr_04_1253,P27,
stim_fb/ques.jpg,stim_fb/negf.jpg,stim_fb/posf.jpg,stim_02/f.jpg,stim_02/e.jpg,1,3,f,4,46,286,43,j,0,0.683164394252,02,03,60.0166406392,PLT_learning_02,B,2014_Apr_04_1253,P27,
stim_fb/ques.jpg,stim_fb/negf.jpg,stim_fb/posf.jpg,stim_02/e.jpg,stim_02/f.jpg,2,3,j,4,47,287,50,j,1,0.73311552244,02,03,60.0166406392,PLT_learning_02,B,2014_Apr_04_1253,P27,
stim_fb/ques.jpg,stim_fb/negf.jpg,stim_fb/posf.jpg,stim_02/a.jpg,stim_02/b.jpg,2,1,j,4,48,288,15,j,1,0.483238673393,02,03,60.0166406392,PLT_learning_02,B,2014_Apr_04_1253,P27,
stim_fb/ques.jpg,stim_fb/negf.jpg,stim_fb/posf.jpg,stim_02/b.jpg,stim_02/a.jpg,1,1,f,4,49,289,4,f,1,0.783101663897,02,03,60.0166406392,PLT_learning_02,B,2014_Apr_04_1253,P27,
stim_fb/ques.jpg,stim_fb/negf.jpg,stim_fb/posf.jpg,stim_02/c.jpg,stim_02/d.jpg,2,2,j,4,50,290,33,j,1,0.733148517681,02,03,60.0166406392,PLT_learning_02,B,2014_Apr_04_1253,P27,
stim_fb/ques.jpg,stim_fb/negf.jpg,stim_fb/posf.jpg,stim_02/a.jpg,stim_02/b.jpg,2,1,j,4,51,291,17,j,1,0.849825718604,02,03,60.0166406392,PLT_learning_02,B,2014_Apr_04_1253,P27,
stim_fb/ques.jpg,stim_fb/posf.jpg,stim_fb/negf.jpg,stim_02/c.jpg,stim_02/d.jpg,2,2,j,4,52,292,37,j,1,0.583188956474,02,03,60.0166406392,PLT_learning_02,B,2014_Apr_04_1253,P27,
stim_fb/ques.jpg,stim_fb/negf.jpg,stim_fb/posf.jpg,stim_02/b.jpg,stim_02/a.jpg,1,1,f,4,53,293,0,f,1,0.799804314253,02,03,60.0166406392,PLT_learning_02,B,2014_Apr_04_1253,P27,
stim_fb/ques.jpg,stim_fb/negf.jpg,stim_fb/posf.jpg,stim_02/d.jpg,stim_02/c.jpg,1,2,f,4,54,294,21,f,1,1.08302381787,02,03,60.0166406392,PLT_learning_02,B,2014_Apr_04_1253,P27,
stim_fb/ques.jpg,stim_fb/negf.jpg,stim_fb/posf.jpg,stim_02/a.jpg,stim_02/b.jpg,2,1,j,4,55,295,10,j,1,0.666479524214,02,03,60.0166406392,PLT_learning_02,B,2014_Apr_04_1253,P27,
stim_fb/ques.jpg,stim_fb/negf.jpg,stim_fb/posf.jpg,stim_02/c.jpg,stim_02/d.jpg,2,2,j,4,56,296,31,j,1,0.583146231983,02,03,60.0166406392,PLT_learning_02,B,2014_Apr_04_1253,P27,
stim_fb/ques.jpg,stim_fb/negf.jpg,stim_fb/posf.jpg,stim_02/a.jpg,stim_02/b.jpg,2,1,j,4,57,297,16,j,1,0.449898319561,02,03,60.0166406392,PLT_learning_02,B,2014_Apr_04_1253,P27,
stim_fb/ques.jpg,stim_fb/negf.jpg,stim_fb/posf.jpg,stim_02/c.jpg,stim_02/d.jpg,2,2,j,4,58,298,32,j,1,0.46655128608,02,03,60.0166406392,PLT_learning_02,B,2014_Apr_04_1253,P27,
stim_fb/ques.jpg,stim_fb/negf.jpg,stim_fb/posf.jpg,stim_02/a.jpg,stim_02/b.jpg,2,1,j,4,59,299,13,j,1,0.466531884723,02,03,60.0166406392,PLT_learning_02,B,2014_Apr_04_1253,P27,
stim_fb/ques.jpg,stim_fb/negf.jpg,stim_fb/posf.jpg,stim_02/d.jpg,stim_02/c.jpg,1,2,f,5,0,300,24,f,1,0.916402899226,02,03,60.0166406392,PLT_learning_02,B,2014_Apr_04_1253,P27,
stim_fb/ques.jpg,stim_fb/posf.jpg,stim_fb/negf.jpg,stim_02/d.jpg,stim_02/c.jpg,1,2,f,5,1,301,28,f,1,0.48322564492,02,03,60.0166406392,PLT_learning_02,B,2014_Apr_04_1253,P27,
stim_fb/ques.jpg,stim_fb/posf.jpg,stim_fb/negf.jpg,stim_02/e.jpg,stim_02/f.jpg,2,3,j,5,2,302,56,j,1,0.799779075345,02,03,60.0166406392,PLT_learning_02,B,2014_Apr_04_1253,P27,
stim_fb/ques.jpg,stim_fb/negf.jpg,stim_fb/posf.jpg,stim_02/f.jpg,stim_02/e.jpg,1,3,f,5,3,303,41,f,1,0.849699890978,02,03,60.0166406392,PLT_learning_02,B,2014_Apr_04_1253,P27,
stim_fb/ques.jpg,stim_fb/negf.jpg,stim_fb/posf.jpg,stim_02/a.jpg,stim_02/b.jpg,2,1,j,5,4,304,13,j,1,0.616782388102,02,03,60.0166406392,PLT_learning_02,B,2014_Apr_04_1253,P27,
stim_fb/ques.jpg,stim_fb/negf.jpg,stim_fb/posf.jpg,stim_02/f.jpg,stim_02/e.jpg,1,3,f,5,5,305,44,f,1,0.68316832505,02,03,60.0166406392,PLT_learning_02,B,2014_Apr_04_1253,P27,
stim_fb/ques.jpg,stim_fb/posf.jpg,stim_fb/negf.jpg,stim_02/c.jpg,stim_02/d.jpg,2,2,j,5,6,306,37,j,1,0.499897871444,02,03,60.0166406392,PLT_learning_02,B,2014_Apr_04_1253,P27,
stim_fb/ques.jpg,stim_fb/negf.jpg,stim_fb/posf.jpg,stim_02/c.jpg,stim_02/d.jpg,2,2,j,5,7,307,30,j,1,0.449937314757,02,03,60.0166406392,PLT_learning_02,B,2014_Apr_04_1253,P27,
stim_fb/ques.jpg,stim_fb/posf.jpg,stim_fb/negf.jpg,stim_02/f.jpg,stim_02/e.jpg,1,3,f,5,8,308,46,j,0,0.783161973218,02,03,60.0166406392,PLT_learning_02,B,2014_Apr_04_1253,P27,
stim_fb/ques.jpg,stim_fb/posf.jpg,stim_fb/negf.jpg,stim_02/e.jpg,stim_02/f.jpg,2,3,j,5,9,309,59,f,0,0.716488360238,02,03,60.0166406392,PLT_learning_02,B,2014_Apr_04_1253,P27,
stim_fb/ques.jpg,stim_fb/negf.jpg,stim_fb/posf.jpg,stim_02/f.jpg,stim_02/e.jpg,1,3,f,5,10,310,42,j,0,0.516542561334,02,03,60.0166406392,PLT_learning_02,B,2014_Apr_04_1253,P27,
stim_fb/ques.jpg,stim_fb/negf.jpg,stim_fb/posf.jpg,stim_02/f.jpg,stim_02/e.jpg,1,3,f,5,11,311,43,f,1,0.783121462244,02,03,60.0166406392,PLT_learning_02,B,2014_Apr_04_1253,P27,
stim_fb/ques.jpg,stim_fb/negf.jpg,stim_fb/posf.jpg,stim_02/e.jpg,stim_02/f.jpg,2,3,j,5,12,312,55,j,1,0.849773709972,02,03,60.0166406392,PLT_learning_02,B,2014_Apr_04_1253,P27,
stim_fb/ques.jpg,stim_fb/negf.jpg,stim_fb/posf.jpg,stim_02/f.jpg,stim_02/e.jpg,1,3,f,5,13,313,40,f,1,0.66648034526,02,03,60.0166406392,PLT_learning_02,B,2014_Apr_04_1253,P27,
stim_fb/ques.jpg,stim_fb/negf.jpg,stim_fb/posf.jpg,stim_02/a.jpg,stim_02/b.jpg,2,1,j,5,14,314,10,j,1,0.783118635198,02,03,60.0166406392,PLT_learning_02,B,2014_Apr_04_1253,P27,
stim_fb/ques.jpg,stim_fb/posf.jpg,stim_fb/negf.jpg,stim_02/b.jpg,stim_02/a.jpg,1,1,f,5,15,315,8,f,1,0.433235816272,02,03,60.0166406392,PLT_learning_02,B,2014_Apr_04_1253,P27,
stim_fb/ques.jpg,stim_fb/posf.jpg,stim_fb/negf.jpg,stim_02/a.jpg,stim_02/b.jpg,2,1,j,5,16,316,18,j,1,0.516564058917,02,03,60.0166406392,PLT_learning_02,B,2014_Apr_04_1253,P27,
stim_fb/ques.jpg,stim_fb/negf.jpg,stim_fb/posf.jpg,stim_02/b.jpg,stim_02/a.jpg,1,1,f,5,17,317,1,f,1,0.549883423433,02,03,60.0166406392,PLT_learning_02,B,2014_Apr_04_1253,P27,
stim_fb/ques.jpg,stim_fb/posf.jpg,stim_fb/negf.jpg,stim_02/c.jpg,stim_02/d.jpg,2,2,j,5,18,318,39,j,1,0.84971447132,02,03,60.0166406392,PLT_learning_02,B,2014_Apr_04_1253,P27,
stim_fb/ques.jpg,stim_fb/posf.jpg,stim_fb/negf.jpg,stim_02/f.jpg,stim_02/e.jpg,1,3,f,5,19,319,49,f,1,0.916421840437,02,03,60.0166406392,PLT_learning_02,B,2014_Apr_04_1253,P27,
stim_fb/ques.jpg,stim_fb/negf.jpg,stim_fb/posf.jpg,stim_02/d.jpg,stim_02/c.jpg,1,2,f,5,20,320,23,f,1,0.79979094894,02,03,60.0166406392,PLT_learning_02,B,2014_Apr_04_1253,P27,
stim_fb/ques.jpg,stim_fb/negf.jpg,stim_fb/posf.jpg,stim_02/d.jpg,stim_02/c.jpg,1,2,f,5,21,321,20,f,1,0.583190652702,02,03,60.0166406392,PLT_learning_02,B,2014_Apr_04_1253,P27,
stim_fb/ques.jpg,stim_fb/posf.jpg,stim_fb/negf.jpg,stim_02/d.jpg,stim_02/c.jpg,1,2,f,5,22,322,27,f,1,0.566574943046,02,03,60.0166406392,PLT_learning_02,B,2014_Apr_04_1253,P27,
stim_fb/ques.jpg,stim_fb/negf.jpg,stim_fb/posf.jpg,stim_02/b.jpg,stim_02/a.jpg,1,1,f,5,23,323,0,f,1,0.549882151262,02,03,60.0166406392,PLT_learning_02,B,2014_Apr_04_1253,P27,
stim_fb/ques.jpg,stim_fb/negf.jpg,stim_fb/posf.jpg,stim_02/e.jpg,stim_02/f.jpg,2,3,j,5,24,324,54,j,1,0.69980261201,02,03,60.0166406392,PLT_learning_02,B,2014_Apr_04_1253,P27,
stim_fb/ques.jpg,stim_fb/negf.jpg,stim_fb/posf.jpg,stim_02/c.jpg,stim_02/d.jpg,2,2,j,5,25,325,31,j,1,1.06638387982,02,03,60.0166406392,PLT_learning_02,B,2014_Apr_04_1253,P27,
stim_fb/ques.jpg,stim_fb/negf.jpg,stim_fb/posf.jpg,stim_02/c.jpg,stim_02/d.jpg,2,2,j,5,26,326,33,j,1,0.583163882978,02,03,60.0166406392,PLT_learning_02,B,2014_Apr_04_1253,P27,
stim_fb/ques.jpg,stim_fb/negf.jpg,stim_fb/posf.jpg,stim_02/a.jpg,stim_02/b.jpg,2,1,j,5,27,327,15,j,1,0.51644123578,02,03,60.0166406392,PLT_learning_02,B,2014_Apr_04_1253,P27,
stim_fb/ques.jpg,stim_fb/negf.jpg,stim_fb/posf.jpg,stim_02/b.jpg,stim_02/a.jpg,1,1,f,5,28,328,3,f,1,0.5665101706,02,03,60.0166406392,PLT_learning_02,B,2014_Apr_04_1253,P27,
stim_fb/ques.jpg,stim_fb/negf.jpg,stim_fb/posf.jpg,stim_02/e.jpg,stim_02/f.jpg,2,3,j,5,29,329,50,j,1,0.79961607206,02,03,60.0166406392,PLT_learning_02,B,2014_Apr_04_1253,P27,
stim_fb/ques.jpg,stim_fb/posf.jpg,stim_fb/negf.jpg,stim_02/d.jpg,stim_02/c.jpg,1,2,f,5,30,330,29,f,1,0.533178908429,02,03,60.0166406392,PLT_learning_02,B,2014_Apr_04_1253,P27,
stim_fb/ques.jpg,stim_fb/negf.jpg,stim_fb/posf.jpg,stim_02/b.jpg,stim_02/a.jpg,1,1,f,5,31,331,2,f,1,0.516583992602,02,03,60.0166406392,PLT_learning_02,B,2014_Apr_04_1253,P27,
stim_fb/ques.jpg,stim_fb/negf.jpg,stim_fb/posf.jpg,stim_02/d.jpg,stim_02/c.jpg,1,2,f,5,32,332,22,f,1,0.549902975166,02,03,60.0166406392,PLT_learning_02,B,2014_Apr_04_1253,P27,
stim_fb/ques.jpg,stim_fb/negf.jpg,stim_fb/posf.jpg,stim_02/b.jpg,stim_02/a.jpg,1,1,f,5,33,333,4,f,1,0.449901937579,02,03,60.0166406392,PLT_learning_02,B,2014_Apr_04_1253,P27,
stim_fb/ques.jpg,stim_fb/negf.jpg,stim_fb/posf.jpg,stim_02/b.jpg,stim_02/a.jpg,1,1,f,5,34,334,6,f,1,0.649823375764,02,03,60.0166406392,PLT_learning_02,B,2014_Apr_04_1253,P27,
stim_fb/ques.jpg,stim_fb/negf.jpg,stim_fb/posf.jpg,stim_02/d.jpg,stim_02/c.jpg,1,2,f,5,35,335,25,f,1,0.666482982835,02,03,60.0166406392,PLT_learning_02,B,2014_Apr_04_1253,P27,
stim_fb/ques.jpg,stim_fb/negf.jpg,stim_fb/posf.jpg,stim_02/f.jpg,stim_02/e.jpg,1,3,f,5,36,336,45,f,1,0.799783015165,02,03,60.0166406392,PLT_learning_02,B,2014_Apr_04_1253,P27,
stim_fb/ques.jpg,stim_fb/posf.jpg,stim_fb/negf.jpg,stim_02/f.jpg,stim_02/e.jpg,1,3,f,5,37,337,47,f,1,0.699838374147,02,03,60.0166406392,PLT_learning_02,B,2014_Apr_04_1253,P27,
stim_fb/ques.jpg,stim_fb/negf.jpg,stim_fb/posf.jpg,stim_02/d.jpg,stim_02/c.jpg,1,2,f,5,38,338,26,f,1,0.516512847272,02,03,60.0166406392,PLT_learning_02,B,2014_Apr_04_1253,P27,
stim_fb/ques.jpg,stim_fb/posf.jpg,stim_fb/negf.jpg,stim_02/a.jpg,stim_02/b.jpg,2,1,j,5,39,339,19,j,1,0.716462432613,02,03,60.0166406392,PLT_learning_02,B,2014_Apr_04_1253,P27,
stim_fb/ques.jpg,stim_fb/posf.jpg,stim_fb/negf.jpg,stim_02/c.jpg,stim_02/d.jpg,2,2,j,5,40,340,38,j,1,0.666521972015,02,03,60.0166406392,PLT_learning_02,B,2014_Apr_04_1253,P27,
stim_fb/ques.jpg,stim_fb/negf.jpg,stim_fb/posf.jpg,stim_02/c.jpg,stim_02/d.jpg,2,2,j,5,41,341,35,f,0,0.66648460989,02,03,60.0166406392,PLT_learning_02,B,2014_Apr_04_1253,P27,
stim_fb/ques.jpg,stim_fb/negf.jpg,stim_fb/posf.jpg,stim_02/e.jpg,stim_02/f.jpg,2,3,j,5,42,342,52,j,1,0.699811727731,02,03,60.0166406392,PLT_learning_02,B,2014_Apr_04_1253,P27,
stim_fb/ques.jpg,stim_fb/negf.jpg,stim_fb/posf.jpg,stim_02/e.jpg,stim_02/f.jpg,2,3,j,5,43,343,53,j,1,0.599850855257,02,03,60.0166406392,PLT_learning_02,B,2014_Apr_04_1253,P27,
stim_fb/ques.jpg,stim_fb/negf.jpg,stim_fb/posf.jpg,stim_02/b.jpg,stim_02/a.jpg,1,1,f,5,44,344,7,f,1,0.616519818648,02,03,60.0166406392,PLT_learning_02,B,2014_Apr_04_1253,P27,
stim_fb/ques.jpg,stim_fb/negf.jpg,stim_fb/posf.jpg,stim_02/a.jpg,stim_02/b.jpg,2,1,j,5,45,345,16,j,1,0.549867453628,02,03,60.0166406392,PLT_learning_02,B,2014_Apr_04_1253,P27,
stim_fb/ques.jpg,stim_fb/negf.jpg,stim_fb/posf.jpg,stim_02/c.jpg,stim_02/d.jpg,2,2,j,5,46,346,34,j,1,0.633175230262,02,03,60.0166406392,PLT_learning_02,B,2014_Apr_04_1253,P27,
stim_fb/ques.jpg,stim_fb/negf.jpg,stim_fb/posf.jpg,stim_02/b.jpg,stim_02/a.jpg,1,1,f,5,47,347,5,f,1,0.499882172314,02,03,60.0166406392,PLT_learning_02,B,2014_Apr_04_1253,P27,
stim_fb/ques.jpg,stim_fb/negf.jpg,stim_fb/posf.jpg,stim_02/d.jpg,stim_02/c.jpg,1,2,f,5,48,348,21,f,1,0.566513084864,02,03,60.0166406392,PLT_learning_02,B,2014_Apr_04_1253,P27,
stim_fb/ques.jpg,stim_fb/negf.jpg,stim_fb/posf.jpg,stim_02/c.jpg,stim_02/d.jpg,2,2,j,5,49,349,36,j,1,0.833164860415,02,03,60.0166406392,PLT_learning_02,B,2014_Apr_04_1253,P27,
stim_fb/ques.jpg,stim_fb/negf.jpg,stim_fb/posf.jpg,stim_02/a.jpg,stim_02/b.jpg,2,1,j,5,50,350,17,j,1,0.516496342133,02,03,60.0166406392,PLT_learning_02,B,2014_Apr_04_1253,P27,
stim_fb/ques.jpg,stim_fb/negf.jpg,stim_fb/posf.jpg,stim_02/a.jpg,stim_02/b.jpg,2,1,j,5,51,351,11,j,1,0.533217235961,02,03,60.0166406392,PLT_learning_02,B,2014_Apr_04_1253,P27,
stim_fb/ques.jpg,stim_fb/posf.jpg,stim_fb/negf.jpg,stim_02/b.jpg,stim_02/a.jpg,1,1,f,5,52,352,9,f,1,0.599860731874,02,03,60.0166406392,PLT_learning_02,B,2014_Apr_04_1253,P27,
stim_fb/ques.jpg,stim_fb/posf.jpg,stim_fb/negf.jpg,stim_02/f.jpg,stim_02/e.jpg,1,3,f,5,53,353,48,f,1,0.599839971128,02,03,60.0166406392,PLT_learning_02,B,2014_Apr_04_1253,P27,
stim_fb/ques.jpg,stim_fb/negf.jpg,stim_fb/posf.jpg,stim_02/a.jpg,stim_02/b.jpg,2,1,j,5,54,354,12,j,1,0.466546819949,02,03,60.0166406392,PLT_learning_02,B,2014_Apr_04_1253,P27,
stim_fb/ques.jpg,stim_fb/negf.jpg,stim_fb/posf.jpg,stim_02/e.jpg,stim_02/f.jpg,2,3,j,5,55,355,51,j,1,0.533207317238,02,03,60.0166406392,PLT_learning_02,B,2014_Apr_04_1253,P27,
stim_fb/ques.jpg,stim_fb/posf.jpg,stim_fb/negf.jpg,stim_02/e.jpg,stim_02/f.jpg,2,3,j,5,56,356,57,j,1,0.599852939451,02,03,60.0166406392,PLT_learning_02,B,2014_Apr_04_1253,P27,
stim_fb/ques.jpg,stim_fb/negf.jpg,stim_fb/posf.jpg,stim_02/c.jpg,stim_02/d.jpg,2,2,j,5,57,357,32,j,1,0.466554302599,02,03,60.0166406392,PLT_learning_02,B,2014_Apr_04_1253,P27,
stim_fb/ques.jpg,stim_fb/posf.jpg,stim_fb/negf.jpg,stim_02/e.jpg,stim_02/f.jpg,2,3,j,5,58,358,58,j,1,0.549916722431,02,03,60.0166406392,PLT_learning_02,B,2014_Apr_04_1253,P27,
stim_fb/ques.jpg,stim_fb/negf.jpg,stim_fb/posf.jpg,stim_02/a.jpg,stim_02/b.jpg,2,1,j,5,59,359,14,j,1,0.483226884008,02,03,60.0166406392,PLT_learning_02,B,2014_Apr_04_1253,P27,
