Fb3,Fb2,Fb1,Symbol2,Symbol1,PosCond,Pair,Correct,trials.thisRepN,trials.thisTrialN,trials.thisN,trials.thisIndex,Response.keys,Response.corr,Response.rt,Version,Session Number,frameRate,expName,StimCondition,date,Participant,
stim_fb/ques.jpg,stim_fb/posf.jpg,stim_fb/negf.jpg,stim_03/d.jpg,stim_03/c.jpg,1,2,f,0,0,0,29,f,1,0.933084502054,03,02,60.0158783071,PLT_learning_3,B,2014_Mrz_25_1630,P28,
stim_fb/ques.jpg,stim_fb/posf.jpg,stim_fb/negf.jpg,stim_03/e.jpg,stim_03/f.jpg,2,3,j,0,1,1,56,j,1,1.19965908655,03,02,60.0158783071,PLT_learning_3,B,2014_Mrz_25_1630,P28,
stim_fb/ques.jpg,stim_fb/negf.jpg,stim_fb/posf.jpg,stim_03/b.jpg,stim_03/a.jpg,1,1,f,0,2,2,6,f,1,0.766507565704,03,02,60.0158783071,PLT_learning_3,B,2014_Mrz_25_1630,P28,
stim_fb/ques.jpg,stim_fb/posf.jpg,stim_fb/negf.jpg,stim_03/c.jpg,stim_03/d.jpg,2,2,j,0,3,3,39,f,0,1.23296792893,03,02,60.0158783071,PLT_learning_3,B,2014_Mrz_25_1630,P28,
stim_fb/ques.jpg,stim_fb/negf.jpg,stim_fb/posf.jpg,stim_03/c.jpg,stim_03/d.jpg,2,2,j,0,4,4,35,f,0,0.883094891411,03,02,60.0158783071,PLT_learning_3,B,2014_Mrz_25_1630,P28,
stim_fb/ques.jpg,stim_fb/negf.jpg,stim_fb/posf.jpg,stim_03/a.jpg,stim_03/b.jpg,2,1,j,0,5,5,13,f,0,1.11637901528,03,02,60.0158783071,PLT_learning_3,B,2014_Mrz_25_1630,P28,
stim_fb/ques.jpg,stim_fb/posf.jpg,stim_fb/negf.jpg,stim_03/f.jpg,stim_03/e.jpg,1,3,f,0,6,6,48,j,0,0.983061860205,03,02,60.0158783071,PLT_learning_3,B,2014_Mrz_25_1630,P28,
stim_fb/ques.jpg,stim_fb/negf.jpg,stim_fb/posf.jpg,stim_03/d.jpg,stim_03/c.jpg,1,2,f,0,7,7,20,j,0,0.833144741977,03,02,60.0158783071,PLT_learning_3,B,2014_Mrz_25_1630,P28,
stim_fb/ques.jpg,stim_fb/negf.jpg,stim_fb/posf.jpg,stim_03/f.jpg,stim_03/e.jpg,1,3,f,0,8,8,43,j,0,0.916374867951,03,02,60.0158783071,PLT_learning_3,B,2014_Mrz_25_1630,P28,
stim_fb/ques.jpg,stim_fb/negf.jpg,stim_fb/posf.jpg,stim_03/a.jpg,stim_03/b.jpg,2,1,j,0,9,9,12,f,0,1.29958441371,03,02,60.0158783071,PLT_learning_3,B,2014_Mrz_25_1630,P28,
stim_fb/ques.jpg,stim_fb/negf.jpg,stim_fb/posf.jpg,stim_03/b.jpg,stim_03/a.jpg,1,1,f,0,10,10,7,j,0,0.933028427498,03,02,60.0158783071,PLT_learning_3,B,2014_Mrz_25_1630,P28,
stim_fb/ques.jpg,stim_fb/posf.jpg,stim_fb/negf.jpg,stim_03/b.jpg,stim_03/a.jpg,1,1,f,0,11,11,8,f,1,0.733092183171,03,02,60.0158783071,PLT_learning_3,B,2014_Mrz_25_1630,P28,
stim_fb/ques.jpg,stim_fb/negf.jpg,stim_fb/posf.jpg,stim_03/d.jpg,stim_03/c.jpg,1,2,f,0,12,12,24,f,1,1.46618787006,03,02,60.0158783071,PLT_learning_3,B,2014_Mrz_25_1630,P28,
stim_fb/ques.jpg,stim_fb/posf.jpg,stim_fb/negf.jpg,stim_03/b.jpg,stim_03/a.jpg,1,1,f,0,13,13,9,f,1,1.09968901103,03,02,60.0158783071,PLT_learning_3,B,2014_Mrz_25_1630,P28,
stim_fb/ques.jpg,stim_fb/posf.jpg,stim_fb/negf.jpg,stim_03/d.jpg,stim_03/c.jpg,1,2,f,0,14,14,28,None,0,,03,02,60.0158783071,PLT_learning_3,B,2014_Mrz_25_1630,P28,
stim_fb/ques.jpg,stim_fb/negf.jpg,stim_fb/posf.jpg,stim_03/c.jpg,stim_03/d.jpg,2,2,j,0,15,15,30,j,1,0.616513985182,03,02,60.0158783071,PLT_learning_3,B,2014_Mrz_25_1630,P28,
stim_fb/ques.jpg,stim_fb/negf.jpg,stim_fb/posf.jpg,stim_03/a.jpg,stim_03/b.jpg,2,1,j,0,16,16,11,j,1,1.04969545155,03,02,60.0158783071,PLT_learning_3,B,2014_Mrz_25_1630,P28,
stim_fb/ques.jpg,stim_fb/negf.jpg,stim_fb/posf.jpg,stim_03/e.jpg,stim_03/f.jpg,2,3,j,0,17,17,52,j,1,0.799761701935,03,02,60.0158783071,PLT_learning_3,B,2014_Mrz_25_1630,P28,
stim_fb/ques.jpg,stim_fb/negf.jpg,stim_fb/posf.jpg,stim_03/a.jpg,stim_03/b.jpg,2,1,j,0,18,18,10,j,1,0.833115548321,03,02,60.0158783071,PLT_learning_3,B,2014_Mrz_25_1630,P28,
stim_fb/ques.jpg,stim_fb/posf.jpg,stim_fb/negf.jpg,stim_03/f.jpg,stim_03/e.jpg,1,3,f,0,19,19,46,j,0,0.833120883599,03,02,60.0158783071,PLT_learning_3,B,2014_Mrz_25_1630,P28,
stim_fb/ques.jpg,stim_fb/negf.jpg,stim_fb/posf.jpg,stim_03/a.jpg,stim_03/b.jpg,2,1,j,0,20,20,14,j,1,0.966435569524,03,02,60.0158783071,PLT_learning_3,B,2014_Mrz_25_1630,P28,
stim_fb/ques.jpg,stim_fb/negf.jpg,stim_fb/posf.jpg,stim_03/b.jpg,stim_03/a.jpg,1,1,f,0,21,21,4,j,0,0.933066421056,03,02,60.0158783071,PLT_learning_3,B,2014_Mrz_25_1630,P28,
stim_fb/ques.jpg,stim_fb/negf.jpg,stim_fb/posf.jpg,stim_03/d.jpg,stim_03/c.jpg,1,2,f,0,22,22,21,f,1,0.749803736047,03,02,60.0158783071,PLT_learning_3,B,2014_Mrz_25_1630,P28,
stim_fb/ques.jpg,stim_fb/posf.jpg,stim_fb/negf.jpg,stim_03/a.jpg,stim_03/b.jpg,2,1,j,0,23,23,18,f,0,0.78312513468,03,02,60.0158783071,PLT_learning_3,B,2014_Mrz_25_1630,P28,
stim_fb/ques.jpg,stim_fb/negf.jpg,stim_fb/posf.jpg,stim_03/a.jpg,stim_03/b.jpg,2,1,j,0,24,24,17,j,1,0.983053953527,03,02,60.0158783071,PLT_learning_3,B,2014_Mrz_25_1630,P28,
stim_fb/ques.jpg,stim_fb/posf.jpg,stim_fb/negf.jpg,stim_03/a.jpg,stim_03/b.jpg,2,1,j,0,25,25,19,j,1,0.899753548645,03,02,60.0158783071,PLT_learning_3,B,2014_Mrz_25_1630,P28,
stim_fb/ques.jpg,stim_fb/negf.jpg,stim_fb/posf.jpg,stim_03/c.jpg,stim_03/d.jpg,2,2,j,0,26,26,31,j,1,0.76644655286,03,02,60.0158783071,PLT_learning_3,B,2014_Mrz_25_1630,P28,
stim_fb/ques.jpg,stim_fb/negf.jpg,stim_fb/posf.jpg,stim_03/f.jpg,stim_03/e.jpg,1,3,f,0,27,27,40,j,0,0.883143744995,03,02,60.0158783071,PLT_learning_3,B,2014_Mrz_25_1630,P28,
stim_fb/ques.jpg,stim_fb/negf.jpg,stim_fb/posf.jpg,stim_03/b.jpg,stim_03/a.jpg,1,1,f,0,28,28,2,j,0,0.899715786663,03,02,60.0158783071,PLT_learning_3,B,2014_Mrz_25_1630,P28,
stim_fb/ques.jpg,stim_fb/posf.jpg,stim_fb/negf.jpg,stim_03/c.jpg,stim_03/d.jpg,2,2,j,0,29,29,37,j,1,0.78310370635,03,02,60.0158783071,PLT_learning_3,B,2014_Mrz_25_1630,P28,
stim_fb/ques.jpg,stim_fb/negf.jpg,stim_fb/posf.jpg,stim_03/e.jpg,stim_03/f.jpg,2,3,j,0,30,30,54,j,1,0.83304588294,03,02,60.0158783071,PLT_learning_3,B,2014_Mrz_25_1630,P28,
stim_fb/ques.jpg,stim_fb/negf.jpg,stim_fb/posf.jpg,stim_03/a.jpg,stim_03/b.jpg,2,1,j,0,31,31,16,j,1,1.13300310448,03,02,60.0158783071,PLT_learning_3,B,2014_Mrz_25_1630,P28,
stim_fb/ques.jpg,stim_fb/negf.jpg,stim_fb/posf.jpg,stim_03/a.jpg,stim_03/b.jpg,2,1,j,0,32,32,15,j,1,0.84975978767,03,02,60.0158783071,PLT_learning_3,B,2014_Mrz_25_1630,P28,
stim_fb/ques.jpg,stim_fb/negf.jpg,stim_fb/posf.jpg,stim_03/e.jpg,stim_03/f.jpg,2,3,j,0,33,33,50,j,1,0.849687012553,03,02,60.0158783071,PLT_learning_3,B,2014_Mrz_25_1630,P28,
stim_fb/ques.jpg,stim_fb/negf.jpg,stim_fb/posf.jpg,stim_03/b.jpg,stim_03/a.jpg,1,1,f,0,34,34,1,f,1,0.983039701056,03,02,60.0158783071,PLT_learning_3,B,2014_Mrz_25_1630,P28,
stim_fb/ques.jpg,stim_fb/negf.jpg,stim_fb/posf.jpg,stim_03/b.jpg,stim_03/a.jpg,1,1,f,0,35,35,3,f,1,0.849768428176,03,02,60.0158783071,PLT_learning_3,B,2014_Mrz_25_1630,P28,
stim_fb/ques.jpg,stim_fb/negf.jpg,stim_fb/posf.jpg,stim_03/d.jpg,stim_03/c.jpg,1,2,f,0,36,36,26,f,1,0.783104728893,03,02,60.0158783071,PLT_learning_3,B,2014_Mrz_25_1630,P28,
stim_fb/ques.jpg,stim_fb/posf.jpg,stim_fb/negf.jpg,stim_03/e.jpg,stim_03/f.jpg,2,3,j,0,37,37,58,j,1,0.799768688323,03,02,60.0158783071,PLT_learning_3,B,2014_Mrz_25_1630,P28,
stim_fb/ques.jpg,stim_fb/negf.jpg,stim_fb/posf.jpg,stim_03/b.jpg,stim_03/a.jpg,1,1,f,0,38,38,5,f,1,1.09967362173,03,02,60.0158783071,PLT_learning_3,B,2014_Mrz_25_1630,P28,
stim_fb/ques.jpg,stim_fb/negf.jpg,stim_fb/posf.jpg,stim_03/f.jpg,stim_03/e.jpg,1,3,f,0,39,39,41,f,1,0.849761089912,03,02,60.0158783071,PLT_learning_3,B,2014_Mrz_25_1630,P28,
stim_fb/ques.jpg,stim_fb/posf.jpg,stim_fb/negf.jpg,stim_03/e.jpg,stim_03/f.jpg,2,3,j,0,40,40,57,j,1,0.783123465526,03,02,60.0158783071,PLT_learning_3,B,2014_Mrz_25_1630,P28,
stim_fb/ques.jpg,stim_fb/negf.jpg,stim_fb/posf.jpg,stim_03/e.jpg,stim_03/f.jpg,2,3,j,0,41,41,55,j,1,0.566501262016,03,02,60.0158783071,PLT_learning_3,B,2014_Mrz_25_1630,P28,
stim_fb/ques.jpg,stim_fb/negf.jpg,stim_fb/posf.jpg,stim_03/d.jpg,stim_03/c.jpg,1,2,f,0,42,42,22,f,1,0.566555598245,03,02,60.0158783071,PLT_learning_3,B,2014_Mrz_25_1630,P28,
stim_fb/ques.jpg,stim_fb/negf.jpg,stim_fb/posf.jpg,stim_03/c.jpg,stim_03/d.jpg,2,2,j,0,43,43,36,j,1,0.616496647031,03,02,60.0158783071,PLT_learning_3,B,2014_Mrz_25_1630,P28,
stim_fb/ques.jpg,stim_fb/negf.jpg,stim_fb/posf.jpg,stim_03/c.jpg,stim_03/d.jpg,2,2,j,0,44,44,33,j,1,0.666510034851,03,02,60.0158783071,PLT_learning_3,B,2014_Mrz_25_1630,P28,
stim_fb/ques.jpg,stim_fb/negf.jpg,stim_fb/posf.jpg,stim_03/f.jpg,stim_03/e.jpg,1,3,f,0,45,45,44,f,1,0.666491093711,03,02,60.0158783071,PLT_learning_3,B,2014_Mrz_25_1630,P28,
stim_fb/ques.jpg,stim_fb/negf.jpg,stim_fb/posf.jpg,stim_03/d.jpg,stim_03/c.jpg,1,2,f,0,46,46,25,f,1,0.566515288925,03,02,60.0158783071,PLT_learning_3,B,2014_Mrz_25_1630,P28,
stim_fb/ques.jpg,stim_fb/negf.jpg,stim_fb/posf.jpg,stim_03/f.jpg,stim_03/e.jpg,1,3,f,0,47,47,45,f,1,0.749794316605,03,02,60.0158783071,PLT_learning_3,B,2014_Mrz_25_1630,P28,
stim_fb/ques.jpg,stim_fb/posf.jpg,stim_fb/negf.jpg,stim_03/f.jpg,stim_03/e.jpg,1,3,f,0,48,48,47,f,1,0.666478681818,03,02,60.0158783071,PLT_learning_3,B,2014_Mrz_25_1630,P28,
stim_fb/ques.jpg,stim_fb/posf.jpg,stim_fb/negf.jpg,stim_03/f.jpg,stim_03/e.jpg,1,3,f,0,49,49,49,f,1,0.616489970414,03,02,60.0158783071,PLT_learning_3,B,2014_Mrz_25_1630,P28,
stim_fb/ques.jpg,stim_fb/negf.jpg,stim_fb/posf.jpg,stim_03/f.jpg,stim_03/e.jpg,1,3,f,0,50,50,42,f,1,0.549844502506,03,02,60.0158783071,PLT_learning_3,B,2014_Mrz_25_1630,P28,
stim_fb/ques.jpg,stim_fb/negf.jpg,stim_fb/posf.jpg,stim_03/d.jpg,stim_03/c.jpg,1,2,f,0,51,51,23,f,1,0.58316255982,03,02,60.0158783071,PLT_learning_3,B,2014_Mrz_25_1630,P28,
stim_fb/ques.jpg,stim_fb/negf.jpg,stim_fb/posf.jpg,stim_03/e.jpg,stim_03/f.jpg,2,3,j,0,52,52,53,j,1,0.933075870573,03,02,60.0158783071,PLT_learning_3,B,2014_Mrz_25_1630,P28,
stim_fb/ques.jpg,stim_fb/negf.jpg,stim_fb/posf.jpg,stim_03/c.jpg,stim_03/d.jpg,2,2,j,0,53,53,32,j,1,0.58318584076,03,02,60.0158783071,PLT_learning_3,B,2014_Mrz_25_1630,P28,
stim_fb/ques.jpg,stim_fb/posf.jpg,stim_fb/negf.jpg,stim_03/d.jpg,stim_03/c.jpg,1,2,f,0,54,54,27,f,1,0.533210720179,03,02,60.0158783071,PLT_learning_3,B,2014_Mrz_25_1630,P28,
stim_fb/ques.jpg,stim_fb/negf.jpg,stim_fb/posf.jpg,stim_03/e.jpg,stim_03/f.jpg,2,3,j,0,55,55,51,j,1,0.599852079864,03,02,60.0158783071,PLT_learning_3,B,2014_Mrz_25_1630,P28,
stim_fb/ques.jpg,stim_fb/posf.jpg,stim_fb/negf.jpg,stim_03/e.jpg,stim_03/f.jpg,2,3,j,0,56,56,59,j,1,0.599723088839,03,02,60.0158783071,PLT_learning_3,B,2014_Mrz_25_1630,P28,
stim_fb/ques.jpg,stim_fb/negf.jpg,stim_fb/posf.jpg,stim_03/c.jpg,stim_03/d.jpg,2,2,j,0,57,57,34,j,1,0.566508747645,03,02,60.0158783071,PLT_learning_3,B,2014_Mrz_25_1630,P28,
stim_fb/ques.jpg,stim_fb/posf.jpg,stim_fb/negf.jpg,stim_03/c.jpg,stim_03/d.jpg,2,2,j,0,58,58,38,j,1,0.466567889836,03,02,60.0158783071,PLT_learning_3,B,2014_Mrz_25_1630,P28,
stim_fb/ques.jpg,stim_fb/negf.jpg,stim_fb/posf.jpg,stim_03/b.jpg,stim_03/a.jpg,1,1,f,0,59,59,0,f,1,0.916464024842,03,02,60.0158783071,PLT_learning_3,B,2014_Mrz_25_1630,P28,
stim_fb/ques.jpg,stim_fb/negf.jpg,stim_fb/posf.jpg,stim_03/a.jpg,stim_03/b.jpg,2,1,j,1,0,60,14,j,1,0.883115730274,03,02,60.0158783071,PLT_learning_3,B,2014_Mrz_25_1630,P28,
stim_fb/ques.jpg,stim_fb/negf.jpg,stim_fb/posf.jpg,stim_03/a.jpg,stim_03/b.jpg,2,1,j,1,1,61,15,j,1,0.599841637877,03,02,60.0158783071,PLT_learning_3,B,2014_Mrz_25_1630,P28,
stim_fb/ques.jpg,stim_fb/negf.jpg,stim_fb/posf.jpg,stim_03/b.jpg,stim_03/a.jpg,1,1,f,1,2,62,4,f,1,0.883115050581,03,02,60.0158783071,PLT_learning_3,B,2014_Mrz_25_1630,P28,
stim_fb/ques.jpg,stim_fb/negf.jpg,stim_fb/posf.jpg,stim_03/a.jpg,stim_03/b.jpg,2,1,j,1,3,63,16,j,1,0.666474269839,03,02,60.0158783071,PLT_learning_3,B,2014_Mrz_25_1630,P28,
stim_fb/ques.jpg,stim_fb/negf.jpg,stim_fb/posf.jpg,stim_03/a.jpg,stim_03/b.jpg,2,1,j,1,4,64,13,j,1,0.582213099851,03,02,60.0158783071,PLT_learning_3,B,2014_Mrz_25_1630,P28,
stim_fb/ques.jpg,stim_fb/posf.jpg,stim_fb/negf.jpg,stim_03/d.jpg,stim_03/c.jpg,1,2,f,1,5,65,27,f,1,1.08301937948,03,02,60.0158783071,PLT_learning_3,B,2014_Mrz_25_1630,P28,
stim_fb/ques.jpg,stim_fb/negf.jpg,stim_fb/posf.jpg,stim_03/b.jpg,stim_03/a.jpg,1,1,f,1,6,66,1,f,1,0.649759610231,03,02,60.0158783071,PLT_learning_3,B,2014_Mrz_25_1630,P28,
stim_fb/ques.jpg,stim_fb/posf.jpg,stim_fb/negf.jpg,stim_03/d.jpg,stim_03/c.jpg,1,2,f,1,7,67,29,f,1,0.649847672395,03,02,60.0158783071,PLT_learning_3,B,2014_Mrz_25_1630,P28,
stim_fb/ques.jpg,stim_fb/negf.jpg,stim_fb/posf.jpg,stim_03/d.jpg,stim_03/c.jpg,1,2,f,1,8,68,24,f,1,0.599812690834,03,02,60.0158783071,PLT_learning_3,B,2014_Mrz_25_1630,P28,
stim_fb/ques.jpg,stim_fb/posf.jpg,stim_fb/negf.jpg,stim_03/e.jpg,stim_03/f.jpg,2,3,j,1,9,69,58,j,1,0.699846958116,03,02,60.0158783071,PLT_learning_3,B,2014_Mrz_25_1630,P28,
stim_fb/ques.jpg,stim_fb/negf.jpg,stim_fb/posf.jpg,stim_03/b.jpg,stim_03/a.jpg,1,1,f,1,10,70,2,f,1,0.766487629087,03,02,60.0158783071,PLT_learning_3,B,2014_Mrz_25_1630,P28,
stim_fb/ques.jpg,stim_fb/negf.jpg,stim_fb/posf.jpg,stim_03/f.jpg,stim_03/e.jpg,1,3,f,1,11,71,43,f,1,1.08303864543,03,02,60.0158783071,PLT_learning_3,B,2014_Mrz_25_1630,P28,
stim_fb/ques.jpg,stim_fb/negf.jpg,stim_fb/posf.jpg,stim_03/c.jpg,stim_03/d.jpg,2,2,j,1,12,72,36,j,1,0.616534980432,03,02,60.0158783071,PLT_learning_3,B,2014_Mrz_25_1630,P28,
stim_fb/ques.jpg,stim_fb/negf.jpg,stim_fb/posf.jpg,stim_03/a.jpg,stim_03/b.jpg,2,1,j,1,13,73,12,j,1,0.549855070807,03,02,60.0158783071,PLT_learning_3,B,2014_Mrz_25_1630,P28,
stim_fb/ques.jpg,stim_fb/posf.jpg,stim_fb/negf.jpg,stim_03/c.jpg,stim_03/d.jpg,2,2,j,1,14,74,37,j,1,0.699788895614,03,02,60.0158783071,PLT_learning_3,B,2014_Mrz_25_1630,P28,
stim_fb/ques.jpg,stim_fb/posf.jpg,stim_fb/negf.jpg,stim_03/f.jpg,stim_03/e.jpg,1,3,f,1,15,75,46,f,1,0.916363650034,03,02,60.0158783071,PLT_learning_3,B,2014_Mrz_25_1630,P28,
stim_fb/ques.jpg,stim_fb/posf.jpg,stim_fb/negf.jpg,stim_03/b.jpg,stim_03/a.jpg,1,1,f,1,16,76,9,f,1,0.899730033119,03,02,60.0158783071,PLT_learning_3,B,2014_Mrz_25_1630,P28,
stim_fb/ques.jpg,stim_fb/posf.jpg,stim_fb/negf.jpg,stim_03/f.jpg,stim_03/e.jpg,1,3,f,1,17,77,49,f,1,0.733137731529,03,02,60.0158783071,PLT_learning_3,B,2014_Mrz_25_1630,P28,
stim_fb/ques.jpg,stim_fb/negf.jpg,stim_fb/posf.jpg,stim_03/e.jpg,stim_03/f.jpg,2,3,j,1,18,78,53,j,1,0.766457857995,03,02,60.0158783071,PLT_learning_3,B,2014_Mrz_25_1630,P28,
stim_fb/ques.jpg,stim_fb/negf.jpg,stim_fb/posf.jpg,stim_03/d.jpg,stim_03/c.jpg,1,2,f,1,19,79,20,f,1,0.649816111849,03,02,60.0158783071,PLT_learning_3,B,2014_Mrz_25_1630,P28,
stim_fb/ques.jpg,stim_fb/negf.jpg,stim_fb/posf.jpg,stim_03/d.jpg,stim_03/c.jpg,1,2,f,1,20,80,23,f,1,0.61648666218,03,02,60.0158783071,PLT_learning_3,B,2014_Mrz_25_1630,P28,
stim_fb/ques.jpg,stim_fb/posf.jpg,stim_fb/negf.jpg,stim_03/c.jpg,stim_03/d.jpg,2,2,j,1,21,81,38,j,1,0.666511267917,03,02,60.0158783071,PLT_learning_3,B,2014_Mrz_25_1630,P28,
stim_fb/ques.jpg,stim_fb/negf.jpg,stim_fb/posf.jpg,stim_03/d.jpg,stim_03/c.jpg,1,2,f,1,22,82,26,f,1,0.983057433188,03,02,60.0158783071,PLT_learning_3,B,2014_Mrz_25_1630,P28,
stim_fb/ques.jpg,stim_fb/negf.jpg,stim_fb/posf.jpg,stim_03/f.jpg,stim_03/e.jpg,1,3,f,1,23,83,45,f,1,0.616513254363,03,02,60.0158783071,PLT_learning_3,B,2014_Mrz_25_1630,P28,
stim_fb/ques.jpg,stim_fb/negf.jpg,stim_fb/posf.jpg,stim_03/f.jpg,stim_03/e.jpg,1,3,f,1,24,84,44,f,1,0.683170108608,03,02,60.0158783071,PLT_learning_3,B,2014_Mrz_25_1630,P28,
stim_fb/ques.jpg,stim_fb/negf.jpg,stim_fb/posf.jpg,stim_03/f.jpg,stim_03/e.jpg,1,3,f,1,25,85,40,f,1,0.533193403082,03,02,60.0158783071,PLT_learning_3,B,2014_Mrz_25_1630,P28,
stim_fb/ques.jpg,stim_fb/negf.jpg,stim_fb/posf.jpg,stim_03/b.jpg,stim_03/a.jpg,1,1,f,1,26,86,3,f,1,0.566498095135,03,02,60.0158783071,PLT_learning_3,B,2014_Mrz_25_1630,P28,
stim_fb/ques.jpg,stim_fb/negf.jpg,stim_fb/posf.jpg,stim_03/c.jpg,stim_03/d.jpg,2,2,j,1,27,87,33,f,0,0.683128767721,03,02,60.0158783071,PLT_learning_3,B,2014_Mrz_25_1630,P28,
stim_fb/ques.jpg,stim_fb/negf.jpg,stim_fb/posf.jpg,stim_03/d.jpg,stim_03/c.jpg,1,2,f,1,28,88,21,f,1,0.566522882826,03,02,60.0158783071,PLT_learning_3,B,2014_Mrz_25_1630,P28,
stim_fb/ques.jpg,stim_fb/negf.jpg,stim_fb/posf.jpg,stim_03/c.jpg,stim_03/d.jpg,2,2,j,1,29,89,32,j,1,0.533218524604,03,02,60.0158783071,PLT_learning_3,B,2014_Mrz_25_1630,P28,
stim_fb/ques.jpg,stim_fb/negf.jpg,stim_fb/posf.jpg,stim_03/a.jpg,stim_03/b.jpg,2,1,j,1,30,90,10,j,1,0.783172884518,03,02,60.0158783071,PLT_learning_3,B,2014_Mrz_25_1630,P28,
stim_fb/ques.jpg,stim_fb/posf.jpg,stim_fb/negf.jpg,stim_03/e.jpg,stim_03/f.jpg,2,3,j,1,31,91,57,j,1,0.966385407683,03,02,60.0158783071,PLT_learning_3,B,2014_Mrz_25_1630,P28,
stim_fb/ques.jpg,stim_fb/negf.jpg,stim_fb/posf.jpg,stim_03/b.jpg,stim_03/a.jpg,1,1,f,1,32,92,0,f,1,0.81640547212,03,02,60.0158783071,PLT_learning_3,B,2014_Mrz_25_1630,P28,
stim_fb/ques.jpg,stim_fb/negf.jpg,stim_fb/posf.jpg,stim_03/c.jpg,stim_03/d.jpg,2,2,j,1,33,93,34,j,1,0.699822741848,03,02,60.0158783071,PLT_learning_3,B,2014_Mrz_25_1630,P28,
stim_fb/ques.jpg,stim_fb/posf.jpg,stim_fb/negf.jpg,stim_03/a.jpg,stim_03/b.jpg,2,1,j,1,34,94,19,j,1,0.566513469397,03,02,60.0158783071,PLT_learning_3,B,2014_Mrz_25_1630,P28,
stim_fb/ques.jpg,stim_fb/negf.jpg,stim_fb/posf.jpg,stim_03/e.jpg,stim_03/f.jpg,2,3,j,1,35,95,52,j,1,0.599820263682,03,02,60.0158783071,PLT_learning_3,B,2014_Mrz_25_1630,P28,
stim_fb/ques.jpg,stim_fb/negf.jpg,stim_fb/posf.jpg,stim_03/c.jpg,stim_03/d.jpg,2,2,j,1,36,96,30,j,1,0.616514809233,03,02,60.0158783071,PLT_learning_3,B,2014_Mrz_25_1630,P28,
stim_fb/ques.jpg,stim_fb/negf.jpg,stim_fb/posf.jpg,stim_03/e.jpg,stim_03/f.jpg,2,3,j,1,37,97,55,j,1,0.64980489393,03,02,60.0158783071,PLT_learning_3,B,2014_Mrz_25_1630,P28,
stim_fb/ques.jpg,stim_fb/negf.jpg,stim_fb/posf.jpg,stim_03/d.jpg,stim_03/c.jpg,1,2,f,1,38,98,22,f,1,0.699823328308,03,02,60.0158783071,PLT_learning_3,B,2014_Mrz_25_1630,P28,
stim_fb/ques.jpg,stim_fb/posf.jpg,stim_fb/negf.jpg,stim_03/a.jpg,stim_03/b.jpg,2,1,j,1,39,99,18,j,1,0.566549640418,03,02,60.0158783071,PLT_learning_3,B,2014_Mrz_25_1630,P28,
stim_fb/ques.jpg,stim_fb/negf.jpg,stim_fb/posf.jpg,stim_03/b.jpg,stim_03/a.jpg,1,1,f,1,40,100,5,f,1,0.516544559272,03,02,60.0158783071,PLT_learning_3,B,2014_Mrz_25_1630,P28,
stim_fb/ques.jpg,stim_fb/negf.jpg,stim_fb/posf.jpg,stim_03/b.jpg,stim_03/a.jpg,1,1,f,1,41,101,7,f,1,0.766474453296,03,02,60.0158783071,PLT_learning_3,B,2014_Mrz_25_1630,P28,
stim_fb/ques.jpg,stim_fb/posf.jpg,stim_fb/negf.jpg,stim_03/e.jpg,stim_03/f.jpg,2,3,j,1,42,102,56,j,1,1.01639109935,03,02,60.0158783071,PLT_learning_3,B,2014_Mrz_25_1630,P28,
stim_fb/ques.jpg,stim_fb/posf.jpg,stim_fb/negf.jpg,stim_03/e.jpg,stim_03/f.jpg,2,3,j,1,43,103,59,j,1,0.599863415073,03,02,60.0158783071,PLT_learning_3,B,2014_Mrz_25_1630,P28,
stim_fb/ques.jpg,stim_fb/posf.jpg,stim_fb/negf.jpg,stim_03/f.jpg,stim_03/e.jpg,1,3,f,1,44,104,48,j,0,0.733078216412,03,02,60.0158783071,PLT_learning_3,B,2014_Mrz_25_1630,P28,
stim_fb/ques.jpg,stim_fb/posf.jpg,stim_fb/negf.jpg,stim_03/d.jpg,stim_03/c.jpg,1,2,f,1,45,105,28,f,1,0.96639821656,03,02,60.0158783071,PLT_learning_3,B,2014_Mrz_25_1630,P28,
stim_fb/ques.jpg,stim_fb/negf.jpg,stim_fb/posf.jpg,stim_03/f.jpg,stim_03/e.jpg,1,3,f,1,46,106,41,j,0,0.583196887254,03,02,60.0158783071,PLT_learning_3,B,2014_Mrz_25_1630,P28,
stim_fb/ques.jpg,stim_fb/negf.jpg,stim_fb/posf.jpg,stim_03/b.jpg,stim_03/a.jpg,1,1,f,1,47,107,6,f,1,0.816432867299,03,02,60.0158783071,PLT_learning_3,B,2014_Mrz_25_1630,P28,
stim_fb/ques.jpg,stim_fb/negf.jpg,stim_fb/posf.jpg,stim_03/d.jpg,stim_03/c.jpg,1,2,f,1,48,108,25,f,1,0.616500204884,03,02,60.0158783071,PLT_learning_3,B,2014_Mrz_25_1630,P28,
stim_fb/ques.jpg,stim_fb/posf.jpg,stim_fb/negf.jpg,stim_03/c.jpg,stim_03/d.jpg,2,2,j,1,49,109,39,j,1,0.799765401141,03,02,60.0158783071,PLT_learning_3,B,2014_Mrz_25_1630,P28,
stim_fb/ques.jpg,stim_fb/posf.jpg,stim_fb/negf.jpg,stim_03/f.jpg,stim_03/e.jpg,1,3,f,1,50,110,47,j,0,0.666490904237,03,02,60.0158783071,PLT_learning_3,B,2014_Mrz_25_1630,P28,
stim_fb/ques.jpg,stim_fb/posf.jpg,stim_fb/negf.jpg,stim_03/b.jpg,stim_03/a.jpg,1,1,f,1,51,111,8,f,1,0.683166250004,03,02,60.0158783071,PLT_learning_3,B,2014_Mrz_25_1630,P28,
stim_fb/ques.jpg,stim_fb/negf.jpg,stim_fb/posf.jpg,stim_03/c.jpg,stim_03/d.jpg,2,2,j,1,52,112,35,j,1,0.966385326481,03,02,60.0158783071,PLT_learning_3,B,2014_Mrz_25_1630,P28,
stim_fb/ques.jpg,stim_fb/negf.jpg,stim_fb/posf.jpg,stim_03/e.jpg,stim_03/f.jpg,2,3,j,1,53,113,51,f,0,1.03300911945,03,02,60.0158783071,PLT_learning_3,B,2014_Mrz_25_1630,P28,
stim_fb/ques.jpg,stim_fb/negf.jpg,stim_fb/posf.jpg,stim_03/e.jpg,stim_03/f.jpg,2,3,j,1,54,114,54,f,0,0.766471960091,03,02,60.0158783071,PLT_learning_3,B,2014_Mrz_25_1630,P28,
stim_fb/ques.jpg,stim_fb/negf.jpg,stim_fb/posf.jpg,stim_03/a.jpg,stim_03/b.jpg,2,1,j,1,55,115,11,j,1,0.716467164655,03,02,60.0158783071,PLT_learning_3,B,2014_Mrz_25_1630,P28,
stim_fb/ques.jpg,stim_fb/negf.jpg,stim_fb/posf.jpg,stim_03/c.jpg,stim_03/d.jpg,2,2,j,1,56,116,31,j,1,0.666464579723,03,02,60.0158783071,PLT_learning_3,B,2014_Mrz_25_1630,P28,
stim_fb/ques.jpg,stim_fb/negf.jpg,stim_fb/posf.jpg,stim_03/a.jpg,stim_03/b.jpg,2,1,j,1,57,117,17,j,1,0.766482708841,03,02,60.0158783071,PLT_learning_3,B,2014_Mrz_25_1630,P28,
stim_fb/ques.jpg,stim_fb/negf.jpg,stim_fb/posf.jpg,stim_03/f.jpg,stim_03/e.jpg,1,3,f,1,58,118,42,j,0,1.19962541174,03,02,60.0158783071,PLT_learning_3,B,2014_Mrz_25_1630,P28,
stim_fb/ques.jpg,stim_fb/negf.jpg,stim_fb/posf.jpg,stim_03/e.jpg,stim_03/f.jpg,2,3,j,1,59,119,50,j,1,0.816442593505,03,02,60.0158783071,PLT_learning_3,B,2014_Mrz_25_1630,P28,
stim_fb/ques.jpg,stim_fb/negf.jpg,stim_fb/posf.jpg,stim_03/b.jpg,stim_03/a.jpg,1,1,f,2,0,120,3,j,0,0.733132513544,03,02,60.0158783071,PLT_learning_3,B,2014_Mrz_25_1630,P28,
stim_fb/ques.jpg,stim_fb/negf.jpg,stim_fb/posf.jpg,stim_03/c.jpg,stim_03/d.jpg,2,2,j,2,1,121,32,j,1,0.766440573978,03,02,60.0158783071,PLT_learning_3,B,2014_Mrz_25_1630,P28,
stim_fb/ques.jpg,stim_fb/negf.jpg,stim_fb/posf.jpg,stim_03/c.jpg,stim_03/d.jpg,2,2,j,2,2,122,31,j,1,0.666474991636,03,02,60.0158783071,PLT_learning_3,B,2014_Mrz_25_1630,P28,
stim_fb/ques.jpg,stim_fb/negf.jpg,stim_fb/posf.jpg,stim_03/d.jpg,stim_03/c.jpg,1,2,f,2,3,123,24,f,1,0.884056026436,03,02,60.0158783071,PLT_learning_3,B,2014_Mrz_25_1630,P28,
stim_fb/ques.jpg,stim_fb/negf.jpg,stim_fb/posf.jpg,stim_03/d.jpg,stim_03/c.jpg,1,2,f,2,4,124,20,f,1,0.566529806054,03,02,60.0158783071,PLT_learning_3,B,2014_Mrz_25_1630,P28,
stim_fb/ques.jpg,stim_fb/negf.jpg,stim_fb/posf.jpg,stim_03/e.jpg,stim_03/f.jpg,2,3,j,2,5,125,55,j,1,0.699816790036,03,02,60.0158783071,PLT_learning_3,B,2014_Mrz_25_1630,P28,
stim_fb/ques.jpg,stim_fb/posf.jpg,stim_fb/negf.jpg,stim_03/e.jpg,stim_03/f.jpg,2,3,j,2,6,126,57,j,1,0.883109252152,03,02,60.0158783071,PLT_learning_3,B,2014_Mrz_25_1630,P28,
stim_fb/ques.jpg,stim_fb/posf.jpg,stim_fb/negf.jpg,stim_03/c.jpg,stim_03/d.jpg,2,2,j,2,7,127,39,j,1,0.549806911951,03,02,60.0158783071,PLT_learning_3,B,2014_Mrz_25_1630,P28,
stim_fb/ques.jpg,stim_fb/negf.jpg,stim_fb/posf.jpg,stim_03/a.jpg,stim_03/b.jpg,2,1,j,2,8,128,13,j,1,0.549879455495,03,02,60.0158783071,PLT_learning_3,B,2014_Mrz_25_1630,P28,
stim_fb/ques.jpg,stim_fb/negf.jpg,stim_fb/posf.jpg,stim_03/f.jpg,stim_03/e.jpg,1,3,f,2,9,129,44,j,0,0.966394935394,03,02,60.0158783071,PLT_learning_3,B,2014_Mrz_25_1630,P28,
stim_fb/ques.jpg,stim_fb/posf.jpg,stim_fb/negf.jpg,stim_03/a.jpg,stim_03/b.jpg,2,1,j,2,10,130,18,j,1,0.583303171768,03,02,60.0158783071,PLT_learning_3,B,2014_Mrz_25_1630,P28,
stim_fb/ques.jpg,stim_fb/negf.jpg,stim_fb/posf.jpg,stim_03/a.jpg,stim_03/b.jpg,2,1,j,2,11,131,17,j,1,0.566493632026,03,02,60.0158783071,PLT_learning_3,B,2014_Mrz_25_1630,P28,
stim_fb/ques.jpg,stim_fb/posf.jpg,stim_fb/negf.jpg,stim_03/f.jpg,stim_03/e.jpg,1,3,f,2,12,132,48,f,1,0.683174905547,03,02,60.0158783071,PLT_learning_3,B,2014_Mrz_25_1630,P28,
stim_fb/ques.jpg,stim_fb/negf.jpg,stim_fb/posf.jpg,stim_03/e.jpg,stim_03/f.jpg,2,3,j,2,13,133,52,j,1,0.816436602596,03,02,60.0158783071,PLT_learning_3,B,2014_Mrz_25_1630,P28,
stim_fb/ques.jpg,stim_fb/negf.jpg,stim_fb/posf.jpg,stim_03/f.jpg,stim_03/e.jpg,1,3,f,2,14,134,43,f,1,0.69980743375,03,02,60.0158783071,PLT_learning_3,B,2014_Mrz_25_1630,P28,
stim_fb/ques.jpg,stim_fb/negf.jpg,stim_fb/posf.jpg,stim_03/d.jpg,stim_03/c.jpg,1,2,f,2,15,135,23,f,1,1.36625822416,03,02,60.0158783071,PLT_learning_3,B,2014_Mrz_25_1630,P28,
stim_fb/ques.jpg,stim_fb/posf.jpg,stim_fb/negf.jpg,stim_03/e.jpg,stim_03/f.jpg,2,3,j,2,16,136,59,j,1,0.766437987542,03,02,60.0158783071,PLT_learning_3,B,2014_Mrz_25_1630,P28,
stim_fb/ques.jpg,stim_fb/negf.jpg,stim_fb/posf.jpg,stim_03/d.jpg,stim_03/c.jpg,1,2,f,2,17,137,22,f,1,0.883093739545,03,02,60.0158783071,PLT_learning_3,B,2014_Mrz_25_1630,P28,
stim_fb/ques.jpg,stim_fb/negf.jpg,stim_fb/posf.jpg,stim_03/d.jpg,stim_03/c.jpg,1,2,f,2,18,138,21,f,1,0.983053971571,03,02,60.0158783071,PLT_learning_3,B,2014_Mrz_25_1630,P28,
stim_fb/ques.jpg,stim_fb/posf.jpg,stim_fb/negf.jpg,stim_03/b.jpg,stim_03/a.jpg,1,1,f,2,19,139,8,f,1,0.883094590661,03,02,60.0158783071,PLT_learning_3,B,2014_Mrz_25_1630,P28,
stim_fb/ques.jpg,stim_fb/negf.jpg,stim_fb/posf.jpg,stim_03/f.jpg,stim_03/e.jpg,1,3,f,2,20,140,42,f,1,1.0497098544,03,02,60.0158783071,PLT_learning_3,B,2014_Mrz_25_1630,P28,
stim_fb/ques.jpg,stim_fb/negf.jpg,stim_fb/posf.jpg,stim_03/b.jpg,stim_03/a.jpg,1,1,f,2,21,141,0,f,1,0.799752926094,03,02,60.0158783071,PLT_learning_3,B,2014_Mrz_25_1630,P28,
stim_fb/ques.jpg,stim_fb/negf.jpg,stim_fb/posf.jpg,stim_03/b.jpg,stim_03/a.jpg,1,1,f,2,22,142,5,f,1,1.13299453315,03,02,60.0158783071,PLT_learning_3,B,2014_Mrz_25_1630,P28,
stim_fb/ques.jpg,stim_fb/posf.jpg,stim_fb/negf.jpg,stim_03/b.jpg,stim_03/a.jpg,1,1,f,2,23,143,9,f,1,1.19969168468,03,02,60.0158783071,PLT_learning_3,B,2014_Mrz_25_1630,P28,
stim_fb/ques.jpg,stim_fb/negf.jpg,stim_fb/posf.jpg,stim_03/e.jpg,stim_03/f.jpg,2,3,j,2,24,144,53,j,1,0.933055161033,03,02,60.0158783071,PLT_learning_3,B,2014_Mrz_25_1630,P28,
stim_fb/ques.jpg,stim_fb/posf.jpg,stim_fb/negf.jpg,stim_03/f.jpg,stim_03/e.jpg,1,3,f,2,25,145,47,f,1,0.983070359358,03,02,60.0158783071,PLT_learning_3,B,2014_Mrz_25_1630,P28,
stim_fb/ques.jpg,stim_fb/negf.jpg,stim_fb/posf.jpg,stim_03/e.jpg,stim_03/f.jpg,2,3,j,2,26,146,50,j,1,0.599853385113,03,02,60.0158783071,PLT_learning_3,B,2014_Mrz_25_1630,P28,
stim_fb/ques.jpg,stim_fb/negf.jpg,stim_fb/posf.jpg,stim_03/b.jpg,stim_03/a.jpg,1,1,f,2,27,147,2,j,0,0.783114151343,03,02,60.0158783071,PLT_learning_3,B,2014_Mrz_25_1630,P28,
stim_fb/ques.jpg,stim_fb/negf.jpg,stim_fb/posf.jpg,stim_03/c.jpg,stim_03/d.jpg,2,2,j,2,28,148,34,j,1,0.516509705531,03,02,60.0158783071,PLT_learning_3,B,2014_Mrz_25_1630,P28,
stim_fb/ques.jpg,stim_fb/negf.jpg,stim_fb/posf.jpg,stim_03/a.jpg,stim_03/b.jpg,2,1,j,2,29,149,11,j,1,0.799807292398,03,02,60.0158783071,PLT_learning_3,B,2014_Mrz_25_1630,P28,
stim_fb/ques.jpg,stim_fb/negf.jpg,stim_fb/posf.jpg,stim_03/a.jpg,stim_03/b.jpg,2,1,j,2,30,150,15,j,1,0.633173959692,03,02,60.0158783071,PLT_learning_3,B,2014_Mrz_25_1630,P28,
stim_fb/ques.jpg,stim_fb/negf.jpg,stim_fb/posf.jpg,stim_03/c.jpg,stim_03/d.jpg,2,2,j,2,31,151,35,j,1,0.566507135632,03,02,60.0158783071,PLT_learning_3,B,2014_Mrz_25_1630,P28,
stim_fb/ques.jpg,stim_fb/negf.jpg,stim_fb/posf.jpg,stim_03/f.jpg,stim_03/e.jpg,1,3,f,2,32,152,41,f,1,0.949733460149,03,02,60.0158783071,PLT_learning_3,B,2014_Mrz_25_1630,P28,
stim_fb/ques.jpg,stim_fb/negf.jpg,stim_fb/posf.jpg,stim_03/b.jpg,stim_03/a.jpg,1,1,f,2,33,153,7,f,1,1.68286427446,03,02,60.0158783071,PLT_learning_3,B,2014_Mrz_25_1630,P28,
stim_fb/ques.jpg,stim_fb/posf.jpg,stim_fb/negf.jpg,stim_03/e.jpg,stim_03/f.jpg,2,3,j,2,34,154,58,j,1,0.983034010895,03,02,60.0158783071,PLT_learning_3,B,2014_Mrz_25_1630,P28,
stim_fb/ques.jpg,stim_fb/posf.jpg,stim_fb/negf.jpg,stim_03/c.jpg,stim_03/d.jpg,2,2,j,2,35,155,38,j,1,0.633150167479,03,02,60.0158783071,PLT_learning_3,B,2014_Mrz_25_1630,P28,
stim_fb/ques.jpg,stim_fb/posf.jpg,stim_fb/negf.jpg,stim_03/f.jpg,stim_03/e.jpg,1,3,f,2,36,156,49,f,1,1.5662197073,03,02,60.0158783071,PLT_learning_3,B,2014_Mrz_25_1630,P28,
stim_fb/ques.jpg,stim_fb/negf.jpg,stim_fb/posf.jpg,stim_03/f.jpg,stim_03/e.jpg,1,3,f,2,37,157,45,f,1,1.11633384887,03,02,60.0158783071,PLT_learning_3,B,2014_Mrz_25_1630,P28,
stim_fb/ques.jpg,stim_fb/negf.jpg,stim_fb/posf.jpg,stim_03/a.jpg,stim_03/b.jpg,2,1,j,2,38,158,16,j,1,0.583240131878,03,02,60.0158783071,PLT_learning_3,B,2014_Mrz_25_1630,P28,
stim_fb/ques.jpg,stim_fb/negf.jpg,stim_fb/posf.jpg,stim_03/d.jpg,stim_03/c.jpg,1,2,f,2,39,159,26,f,1,1.03310756044,03,02,60.0158783071,PLT_learning_3,B,2014_Mrz_25_1630,P28,
stim_fb/ques.jpg,stim_fb/posf.jpg,stim_fb/negf.jpg,stim_03/e.jpg,stim_03/f.jpg,2,3,j,2,40,160,56,j,1,1.58286911952,03,02,60.0158783071,PLT_learning_3,B,2014_Mrz_25_1630,P28,
stim_fb/ques.jpg,stim_fb/negf.jpg,stim_fb/posf.jpg,stim_03/a.jpg,stim_03/b.jpg,2,1,j,2,41,161,12,j,1,0.816441910805,03,02,60.0158783071,PLT_learning_3,B,2014_Mrz_25_1630,P28,
stim_fb/ques.jpg,stim_fb/negf.jpg,stim_fb/posf.jpg,stim_03/a.jpg,stim_03/b.jpg,2,1,j,2,42,162,10,j,1,1.58280109322,03,02,60.0158783071,PLT_learning_3,B,2014_Mrz_25_1630,P28,
stim_fb/ques.jpg,stim_fb/negf.jpg,stim_fb/posf.jpg,stim_03/f.jpg,stim_03/e.jpg,1,3,f,2,43,163,40,f,1,1.11633389699,03,02,60.0158783071,PLT_learning_3,B,2014_Mrz_25_1630,P28,
stim_fb/ques.jpg,stim_fb/negf.jpg,stim_fb/posf.jpg,stim_03/b.jpg,stim_03/a.jpg,1,1,f,2,44,164,4,f,1,0.733146221659,03,02,60.0158783071,PLT_learning_3,B,2014_Mrz_25_1630,P28,
stim_fb/ques.jpg,stim_fb/negf.jpg,stim_fb/posf.jpg,stim_03/b.jpg,stim_03/a.jpg,1,1,f,2,45,165,6,f,1,0.866408757794,03,02,60.0158783071,PLT_learning_3,B,2014_Mrz_25_1630,P28,
stim_fb/ques.jpg,stim_fb/negf.jpg,stim_fb/posf.jpg,stim_03/e.jpg,stim_03/f.jpg,2,3,j,2,46,166,54,j,1,0.649807540516,03,02,60.0158783071,PLT_learning_3,B,2014_Mrz_25_1630,P28,
stim_fb/ques.jpg,stim_fb/posf.jpg,stim_fb/negf.jpg,stim_03/a.jpg,stim_03/b.jpg,2,1,j,2,47,167,19,j,1,0.933053843753,03,02,60.0158783071,PLT_learning_3,B,2014_Mrz_25_1630,P28,
stim_fb/ques.jpg,stim_fb/negf.jpg,stim_fb/posf.jpg,stim_03/c.jpg,stim_03/d.jpg,2,2,j,2,48,168,30,j,1,0.98305222723,03,02,60.0158783071,PLT_learning_3,B,2014_Mrz_25_1630,P28,
stim_fb/ques.jpg,stim_fb/negf.jpg,stim_fb/posf.jpg,stim_03/c.jpg,stim_03/d.jpg,2,2,j,2,49,169,33,j,1,0.866389344481,03,02,60.0158783071,PLT_learning_3,B,2014_Mrz_25_1630,P28,
stim_fb/ques.jpg,stim_fb/negf.jpg,stim_fb/posf.jpg,stim_03/e.jpg,stim_03/f.jpg,2,3,j,2,50,170,51,j,1,0.716497431984,03,02,60.0158783071,PLT_learning_3,B,2014_Mrz_25_1630,P28,
stim_fb/ques.jpg,stim_fb/posf.jpg,stim_fb/negf.jpg,stim_03/d.jpg,stim_03/c.jpg,1,2,f,2,51,171,27,f,1,0.933088646369,03,02,60.0158783071,PLT_learning_3,B,2014_Mrz_25_1630,P28,
stim_fb/ques.jpg,stim_fb/negf.jpg,stim_fb/posf.jpg,stim_03/d.jpg,stim_03/c.jpg,1,2,f,2,52,172,25,f,1,0.66649789664,03,02,60.0158783071,PLT_learning_3,B,2014_Mrz_25_1630,P28,
stim_fb/ques.jpg,stim_fb/negf.jpg,stim_fb/posf.jpg,stim_03/b.jpg,stim_03/a.jpg,1,1,f,2,53,173,1,f,1,0.766470125525,03,02,60.0158783071,PLT_learning_3,B,2014_Mrz_25_1630,P28,
stim_fb/ques.jpg,stim_fb/posf.jpg,stim_fb/negf.jpg,stim_03/f.jpg,stim_03/e.jpg,1,3,f,2,54,174,46,f,1,0.849744705134,03,02,60.0158783071,PLT_learning_3,B,2014_Mrz_25_1630,P28,
stim_fb/ques.jpg,stim_fb/posf.jpg,stim_fb/negf.jpg,stim_03/d.jpg,stim_03/c.jpg,1,2,f,2,55,175,28,f,1,0.66644969568,03,02,60.0158783071,PLT_learning_3,B,2014_Mrz_25_1630,P28,
stim_fb/ques.jpg,stim_fb/posf.jpg,stim_fb/negf.jpg,stim_03/d.jpg,stim_03/c.jpg,1,2,f,2,56,176,29,f,1,0.716472566099,03,02,60.0158783071,PLT_learning_3,B,2014_Mrz_25_1630,P28,
stim_fb/ques.jpg,stim_fb/posf.jpg,stim_fb/negf.jpg,stim_03/c.jpg,stim_03/d.jpg,2,2,j,2,57,177,37,j,1,1.04970870855,03,02,60.0158783071,PLT_learning_3,B,2014_Mrz_25_1630,P28,
stim_fb/ques.jpg,stim_fb/negf.jpg,stim_fb/posf.jpg,stim_03/a.jpg,stim_03/b.jpg,2,1,j,2,58,178,14,j,1,0.866423097485,03,02,60.0158783071,PLT_learning_3,B,2014_Mrz_25_1630,P28,
stim_fb/ques.jpg,stim_fb/negf.jpg,stim_fb/posf.jpg,stim_03/c.jpg,stim_03/d.jpg,2,2,j,2,59,179,36,j,1,0.549923400864,03,02,60.0158783071,PLT_learning_3,B,2014_Mrz_25_1630,P28,
stim_fb/ques.jpg,stim_fb/negf.jpg,stim_fb/posf.jpg,stim_03/e.jpg,stim_03/f.jpg,2,3,j,3,0,180,51,j,1,1.04968838998,03,02,60.0158783071,PLT_learning_3,B,2014_Mrz_25_1630,P28,
stim_fb/ques.jpg,stim_fb/negf.jpg,stim_fb/posf.jpg,stim_03/a.jpg,stim_03/b.jpg,2,1,j,3,1,181,12,j,1,0.716482722375,03,02,60.0158783071,PLT_learning_3,B,2014_Mrz_25_1630,P28,
stim_fb/ques.jpg,stim_fb/negf.jpg,stim_fb/posf.jpg,stim_03/a.jpg,stim_03/b.jpg,2,1,j,3,2,182,11,j,1,0.466571441675,03,02,60.0158783071,PLT_learning_3,B,2014_Mrz_25_1630,P28,
stim_fb/ques.jpg,stim_fb/negf.jpg,stim_fb/posf.jpg,stim_03/f.jpg,stim_03/e.jpg,1,3,f,3,3,183,40,f,1,0.89975058928,03,02,60.0158783071,PLT_learning_3,B,2014_Mrz_25_1630,P28,
stim_fb/ques.jpg,stim_fb/negf.jpg,stim_fb/posf.jpg,stim_03/b.jpg,stim_03/a.jpg,1,1,f,3,4,184,7,f,1,1.29962774555,03,02,60.0158783071,PLT_learning_3,B,2014_Mrz_25_1630,P28,
stim_fb/ques.jpg,stim_fb/negf.jpg,stim_fb/posf.jpg,stim_03/d.jpg,stim_03/c.jpg,1,2,f,3,5,185,20,f,1,0.533228214719,03,02,60.0158783071,PLT_learning_3,B,2014_Mrz_25_1630,P28,
stim_fb/ques.jpg,stim_fb/negf.jpg,stim_fb/posf.jpg,stim_03/e.jpg,stim_03/f.jpg,2,3,j,3,6,186,53,j,1,0.649851278367,03,02,60.0158783071,PLT_learning_3,B,2014_Mrz_25_1630,P28,
stim_fb/ques.jpg,stim_fb/negf.jpg,stim_fb/posf.jpg,stim_03/d.jpg,stim_03/c.jpg,1,2,f,3,7,187,26,j,0,1.54953460826,03,02,60.0158783071,PLT_learning_3,B,2014_Mrz_25_1630,P28,
stim_fb/ques.jpg,stim_fb/posf.jpg,stim_fb/negf.jpg,stim_03/d.jpg,stim_03/c.jpg,1,2,f,3,8,188,27,f,1,0.833107458187,03,02,60.0158783071,PLT_learning_3,B,2014_Mrz_25_1630,P28,
stim_fb/ques.jpg,stim_fb/negf.jpg,stim_fb/posf.jpg,stim_03/c.jpg,stim_03/d.jpg,2,2,j,3,9,189,33,j,1,0.849757706492,03,02,60.0158783071,PLT_learning_3,B,2014_Mrz_25_1630,P28,
stim_fb/ques.jpg,stim_fb/posf.jpg,stim_fb/negf.jpg,stim_03/f.jpg,stim_03/e.jpg,1,3,f,3,10,190,48,f,1,0.599846173163,03,02,60.0158783071,PLT_learning_3,B,2014_Mrz_25_1630,P28,
stim_fb/ques.jpg,stim_fb/posf.jpg,stim_fb/negf.jpg,stim_03/e.jpg,stim_03/f.jpg,2,3,j,3,11,191,56,j,1,1.06636166961,03,02,60.0158783071,PLT_learning_3,B,2014_Mrz_25_1630,P28,
stim_fb/ques.jpg,stim_fb/negf.jpg,stim_fb/posf.jpg,stim_03/b.jpg,stim_03/a.jpg,1,1,f,3,12,192,0,None,0,,03,02,60.0158783071,PLT_learning_3,B,2014_Mrz_25_1630,P28,
stim_fb/ques.jpg,stim_fb/negf.jpg,stim_fb/posf.jpg,stim_03/a.jpg,stim_03/b.jpg,2,1,j,3,13,193,13,j,1,1.33296171547,03,02,60.0158783071,PLT_learning_3,B,2014_Mrz_25_1630,P28,
stim_fb/ques.jpg,stim_fb/posf.jpg,stim_fb/negf.jpg,stim_03/b.jpg,stim_03/a.jpg,1,1,f,3,14,194,9,f,1,1.04969635981,03,02,60.0158783071,PLT_learning_3,B,2014_Mrz_25_1630,P28,
stim_fb/ques.jpg,stim_fb/negf.jpg,stim_fb/posf.jpg,stim_03/d.jpg,stim_03/c.jpg,1,2,f,3,15,195,21,f,1,0.599893480901,03,02,60.0158783071,PLT_learning_3,B,2014_Mrz_25_1630,P28,
stim_fb/ques.jpg,stim_fb/posf.jpg,stim_fb/negf.jpg,stim_03/c.jpg,stim_03/d.jpg,2,2,j,3,16,196,37,j,1,0.64982463506,03,02,60.0158783071,PLT_learning_3,B,2014_Mrz_25_1630,P28,
stim_fb/ques.jpg,stim_fb/negf.jpg,stim_fb/posf.jpg,stim_03/c.jpg,stim_03/d.jpg,2,2,j,3,17,197,36,j,1,0.683152436628,03,02,60.0158783071,PLT_learning_3,B,2014_Mrz_25_1630,P28,
stim_fb/ques.jpg,stim_fb/negf.jpg,stim_fb/posf.jpg,stim_03/c.jpg,stim_03/d.jpg,2,2,j,3,18,198,34,j,1,0.683191443706,03,02,60.0158783071,PLT_learning_3,B,2014_Mrz_25_1630,P28,
stim_fb/ques.jpg,stim_fb/posf.jpg,stim_fb/negf.jpg,stim_03/f.jpg,stim_03/e.jpg,1,3,f,3,19,199,47,f,1,0.799795521103,03,02,60.0158783071,PLT_learning_3,B,2014_Mrz_25_1630,P28,
stim_fb/ques.jpg,stim_fb/negf.jpg,stim_fb/posf.jpg,stim_03/a.jpg,stim_03/b.jpg,2,1,j,3,20,200,14,j,1,0.749826259102,03,02,60.0158783071,PLT_learning_3,B,2014_Mrz_25_1630,P28,
stim_fb/ques.jpg,stim_fb/negf.jpg,stim_fb/posf.jpg,stim_03/b.jpg,stim_03/a.jpg,1,1,f,3,21,201,5,None,0,,03,02,60.0158783071,PLT_learning_3,B,2014_Mrz_25_1630,P28,
stim_fb/ques.jpg,stim_fb/negf.jpg,stim_fb/posf.jpg,stim_03/d.jpg,stim_03/c.jpg,1,2,f,3,22,202,25,f,1,0.633176413801,03,02,60.0158783071,PLT_learning_3,B,2014_Mrz_25_1630,P28,
stim_fb/ques.jpg,stim_fb/negf.jpg,stim_fb/posf.jpg,stim_03/b.jpg,stim_03/a.jpg,1,1,f,3,23,203,1,f,1,0.783126848946,03,02,60.0158783071,PLT_learning_3,B,2014_Mrz_25_1630,P28,
stim_fb/ques.jpg,stim_fb/negf.jpg,stim_fb/posf.jpg,stim_03/c.jpg,stim_03/d.jpg,2,2,j,3,24,204,32,f,0,0.499907922844,03,02,60.0158783071,PLT_learning_3,B,2014_Mrz_25_1630,P28,
stim_fb/ques.jpg,stim_fb/negf.jpg,stim_fb/posf.jpg,stim_03/e.jpg,stim_03/f.jpg,2,3,j,3,25,205,52,j,1,0.683172998801,03,02,60.0158783071,PLT_learning_3,B,2014_Mrz_25_1630,P28,
stim_fb/ques.jpg,stim_fb/negf.jpg,stim_fb/posf.jpg,stim_03/e.jpg,stim_03/f.jpg,2,3,j,3,26,206,50,j,1,0.699799539103,03,02,60.0158783071,PLT_learning_3,B,2014_Mrz_25_1630,P28,
stim_fb/ques.jpg,stim_fb/negf.jpg,stim_fb/posf.jpg,stim_03/a.jpg,stim_03/b.jpg,2,1,j,3,27,207,15,j,1,0.633189174558,03,02,60.0158783071,PLT_learning_3,B,2014_Mrz_25_1630,P28,
stim_fb/ques.jpg,stim_fb/negf.jpg,stim_fb/posf.jpg,stim_03/c.jpg,stim_03/d.jpg,2,2,j,3,28,208,30,j,1,0.5498681263,03,02,60.0158783071,PLT_learning_3,B,2014_Mrz_25_1630,P28,
stim_fb/ques.jpg,stim_fb/negf.jpg,stim_fb/posf.jpg,stim_03/a.jpg,stim_03/b.jpg,2,1,j,3,29,209,17,j,1,0.566507944646,03,02,60.0158783071,PLT_learning_3,B,2014_Mrz_25_1630,P28,
stim_fb/ques.jpg,stim_fb/negf.jpg,stim_fb/posf.jpg,stim_03/c.jpg,stim_03/d.jpg,2,2,j,3,30,210,31,j,1,0.549922378319,03,02,60.0158783071,PLT_learning_3,B,2014_Mrz_25_1630,P28,
stim_fb/ques.jpg,stim_fb/posf.jpg,stim_fb/negf.jpg,stim_03/f.jpg,stim_03/e.jpg,1,3,f,3,31,211,49,j,0,1.01636332523,03,02,60.0158783071,PLT_learning_3,B,2014_Mrz_25_1630,P28,
stim_fb/ques.jpg,stim_fb/negf.jpg,stim_fb/posf.jpg,stim_03/d.jpg,stim_03/c.jpg,1,2,f,3,32,212,24,f,1,0.79977060409,03,02,60.0158783071,PLT_learning_3,B,2014_Mrz_25_1630,P28,
stim_fb/ques.jpg,stim_fb/negf.jpg,stim_fb/posf.jpg,stim_03/d.jpg,stim_03/c.jpg,1,2,f,3,33,213,23,f,1,0.59984938215,03,02,60.0158783071,PLT_learning_3,B,2014_Mrz_25_1630,P28,
stim_fb/ques.jpg,stim_fb/negf.jpg,stim_fb/posf.jpg,stim_03/f.jpg,stim_03/e.jpg,1,3,f,3,34,214,42,f,1,0.816430509431,03,02,60.0158783071,PLT_learning_3,B,2014_Mrz_25_1630,P28,
stim_fb/ques.jpg,stim_fb/posf.jpg,stim_fb/negf.jpg,stim_03/b.jpg,stim_03/a.jpg,1,1,f,3,35,215,8,None,0,,03,02,60.0158783071,PLT_learning_3,B,2014_Mrz_25_1630,P28,
stim_fb/ques.jpg,stim_fb/posf.jpg,stim_fb/negf.jpg,stim_03/e.jpg,stim_03/f.jpg,2,3,j,3,36,216,59,j,1,0.799784844532,03,02,60.0158783071,PLT_learning_3,B,2014_Mrz_25_1630,P28,
stim_fb/ques.jpg,stim_fb/posf.jpg,stim_fb/negf.jpg,stim_03/a.jpg,stim_03/b.jpg,2,1,j,3,37,217,19,j,1,0.883106888268,03,02,60.0158783071,PLT_learning_3,B,2014_Mrz_25_1630,P28,
stim_fb/ques.jpg,stim_fb/negf.jpg,stim_fb/posf.jpg,stim_03/f.jpg,stim_03/e.jpg,1,3,f,3,38,218,44,j,0,0.616542989364,03,02,60.0158783071,PLT_learning_3,B,2014_Mrz_25_1630,P28,
stim_fb/ques.jpg,stim_fb/negf.jpg,stim_fb/posf.jpg,stim_03/b.jpg,stim_03/a.jpg,1,1,f,3,39,219,4,f,1,0.933063921837,03,02,60.0158783071,PLT_learning_3,B,2014_Mrz_25_1630,P28,
stim_fb/ques.jpg,stim_fb/negf.jpg,stim_fb/posf.jpg,stim_03/f.jpg,stim_03/e.jpg,1,3,f,3,40,220,45,f,1,0.783108725842,03,02,60.0158783071,PLT_learning_3,B,2014_Mrz_25_1630,P28,
stim_fb/ques.jpg,stim_fb/negf.jpg,stim_fb/posf.jpg,stim_03/b.jpg,stim_03/a.jpg,1,1,f,3,41,221,6,f,1,0.83309928685,03,02,60.0158783071,PLT_learning_3,B,2014_Mrz_25_1630,P28,
stim_fb/ques.jpg,stim_fb/negf.jpg,stim_fb/posf.jpg,stim_03/f.jpg,stim_03/e.jpg,1,3,f,3,42,222,43,f,1,0.649836649962,03,02,60.0158783071,PLT_learning_3,B,2014_Mrz_25_1630,P28,
stim_fb/ques.jpg,stim_fb/negf.jpg,stim_fb/posf.jpg,stim_03/b.jpg,stim_03/a.jpg,1,1,f,3,43,223,2,f,1,0.883075457044,03,02,60.0158783071,PLT_learning_3,B,2014_Mrz_25_1630,P28,
stim_fb/ques.jpg,stim_fb/posf.jpg,stim_fb/negf.jpg,stim_03/e.jpg,stim_03/f.jpg,2,3,j,3,44,224,57,j,1,0.599856094857,03,02,60.0158783071,PLT_learning_3,B,2014_Mrz_25_1630,P28,
stim_fb/ques.jpg,stim_fb/posf.jpg,stim_fb/negf.jpg,stim_03/a.jpg,stim_03/b.jpg,2,1,j,3,45,225,18,j,1,0.733116958832,03,02,60.0158783071,PLT_learning_3,B,2014_Mrz_25_1630,P28,
stim_fb/ques.jpg,stim_fb/posf.jpg,stim_fb/negf.jpg,stim_03/f.jpg,stim_03/e.jpg,1,3,f,3,46,226,46,j,0,1.53286553009,03,02,60.0158783071,PLT_learning_3,B,2014_Mrz_25_1630,P28,
stim_fb/ques.jpg,stim_fb/negf.jpg,stim_fb/posf.jpg,stim_03/f.jpg,stim_03/e.jpg,1,3,f,3,47,227,41,f,1,0.949690892208,03,02,60.0158783071,PLT_learning_3,B,2014_Mrz_25_1630,P28,
stim_fb/ques.jpg,stim_fb/negf.jpg,stim_fb/posf.jpg,stim_03/a.jpg,stim_03/b.jpg,2,1,j,3,48,228,10,j,1,0.799759683912,03,02,60.0158783071,PLT_learning_3,B,2014_Mrz_25_1630,P28,
stim_fb/ques.jpg,stim_fb/posf.jpg,stim_fb/negf.jpg,stim_03/c.jpg,stim_03/d.jpg,2,2,j,3,49,229,39,j,1,0.583226745563,03,02,60.0158783071,PLT_learning_3,B,2014_Mrz_25_1630,P28,
stim_fb/ques.jpg,stim_fb/negf.jpg,stim_fb/posf.jpg,stim_03/c.jpg,stim_03/d.jpg,2,2,j,3,50,230,35,j,1,0.766443509283,03,02,60.0158783071,PLT_learning_3,B,2014_Mrz_25_1630,P28,
stim_fb/ques.jpg,stim_fb/posf.jpg,stim_fb/negf.jpg,stim_03/d.jpg,stim_03/c.jpg,1,2,f,3,51,231,29,f,1,0.59983684996,03,02,60.0158783071,PLT_learning_3,B,2014_Mrz_25_1630,P28,
stim_fb/ques.jpg,stim_fb/negf.jpg,stim_fb/posf.jpg,stim_03/e.jpg,stim_03/f.jpg,2,3,j,3,52,232,54,j,1,0.633205586402,03,02,60.0158783071,PLT_learning_3,B,2014_Mrz_25_1630,P28,
stim_fb/ques.jpg,stim_fb/negf.jpg,stim_fb/posf.jpg,stim_03/b.jpg,stim_03/a.jpg,1,1,f,3,53,233,3,f,1,0.816425655348,03,02,60.0158783071,PLT_learning_3,B,2014_Mrz_25_1630,P28,
stim_fb/ques.jpg,stim_fb/posf.jpg,stim_fb/negf.jpg,stim_03/d.jpg,stim_03/c.jpg,1,2,f,3,54,234,28,j,0,0.78310030789,03,02,60.0158783071,PLT_learning_3,B,2014_Mrz_25_1630,P28,
stim_fb/ques.jpg,stim_fb/posf.jpg,stim_fb/negf.jpg,stim_03/e.jpg,stim_03/f.jpg,2,3,j,3,55,235,58,j,1,0.766459515118,03,02,60.0158783071,PLT_learning_3,B,2014_Mrz_25_1630,P28,
stim_fb/ques.jpg,stim_fb/negf.jpg,stim_fb/posf.jpg,stim_03/e.jpg,stim_03/f.jpg,2,3,j,3,56,236,55,j,1,0.966427341045,03,02,60.0158783071,PLT_learning_3,B,2014_Mrz_25_1630,P28,
stim_fb/ques.jpg,stim_fb/posf.jpg,stim_fb/negf.jpg,stim_03/c.jpg,stim_03/d.jpg,2,2,j,3,57,237,38,j,1,0.816438226637,03,02,60.0158783071,PLT_learning_3,B,2014_Mrz_25_1630,P28,
stim_fb/ques.jpg,stim_fb/negf.jpg,stim_fb/posf.jpg,stim_03/a.jpg,stim_03/b.jpg,2,1,j,3,58,238,16,j,1,0.649834887578,03,02,60.0158783071,PLT_learning_3,B,2014_Mrz_25_1630,P28,
stim_fb/ques.jpg,stim_fb/negf.jpg,stim_fb/posf.jpg,stim_03/d.jpg,stim_03/c.jpg,1,2,f,3,59,239,22,f,1,0.699774249162,03,02,60.0158783071,PLT_learning_3,B,2014_Mrz_25_1630,P28,
stim_fb/ques.jpg,stim_fb/posf.jpg,stim_fb/negf.jpg,stim_03/b.jpg,stim_03/a.jpg,1,1,f,4,0,240,8,j,0,1.51622091781,03,02,60.0158783071,PLT_learning_3,B,2014_Mrz_25_1630,P28,
stim_fb/ques.jpg,stim_fb/negf.jpg,stim_fb/posf.jpg,stim_03/a.jpg,stim_03/b.jpg,2,1,j,4,1,241,13,j,1,0.599857661757,03,02,60.0158783071,PLT_learning_3,B,2014_Mrz_25_1630,P28,
stim_fb/ques.jpg,stim_fb/posf.jpg,stim_fb/negf.jpg,stim_03/f.jpg,stim_03/e.jpg,1,3,f,4,2,242,47,f,1,0.599859601585,03,02,60.0158783071,PLT_learning_3,B,2014_Mrz_25_1630,P28,
stim_fb/ques.jpg,stim_fb/negf.jpg,stim_fb/posf.jpg,stim_03/f.jpg,stim_03/e.jpg,1,3,f,4,3,243,42,f,1,0.916404867616,03,02,60.0158783071,PLT_learning_3,B,2014_Mrz_25_1630,P28,
stim_fb/ques.jpg,stim_fb/negf.jpg,stim_fb/posf.jpg,stim_03/d.jpg,stim_03/c.jpg,1,2,f,4,4,244,21,f,1,0.666502281552,03,02,60.0158783071,PLT_learning_3,B,2014_Mrz_25_1630,P28,
stim_fb/ques.jpg,stim_fb/negf.jpg,stim_fb/posf.jpg,stim_03/a.jpg,stim_03/b.jpg,2,1,j,4,5,245,14,j,1,0.616478289343,03,02,60.0158783071,PLT_learning_3,B,2014_Mrz_25_1630,P28,
stim_fb/ques.jpg,stim_fb/negf.jpg,stim_fb/posf.jpg,stim_03/b.jpg,stim_03/a.jpg,1,1,f,4,6,246,7,f,1,0.749773330375,03,02,60.0158783071,PLT_learning_3,B,2014_Mrz_25_1630,P28,
stim_fb/ques.jpg,stim_fb/negf.jpg,stim_fb/posf.jpg,stim_03/f.jpg,stim_03/e.jpg,1,3,f,4,7,247,41,f,1,0.616495816965,03,02,60.0158783071,PLT_learning_3,B,2014_Mrz_25_1630,P28,
stim_fb/ques.jpg,stim_fb/negf.jpg,stim_fb/posf.jpg,stim_03/a.jpg,stim_03/b.jpg,2,1,j,4,8,248,17,j,1,0.68345567832,03,02,60.0158783071,PLT_learning_3,B,2014_Mrz_25_1630,P28,
stim_fb/ques.jpg,stim_fb/negf.jpg,stim_fb/posf.jpg,stim_03/f.jpg,stim_03/e.jpg,1,3,f,4,9,249,45,f,1,0.549810132969,03,02,60.0158783071,PLT_learning_3,B,2014_Mrz_25_1630,P28,
stim_fb/ques.jpg,stim_fb/posf.jpg,stim_fb/negf.jpg,stim_03/c.jpg,stim_03/d.jpg,2,2,j,4,10,250,39,j,1,0.816458027917,03,02,60.0158783071,PLT_learning_3,B,2014_Mrz_25_1630,P28,
stim_fb/ques.jpg,stim_fb/negf.jpg,stim_fb/posf.jpg,stim_03/c.jpg,stim_03/d.jpg,2,2,j,4,11,251,36,j,1,0.633160901194,03,02,60.0158783071,PLT_learning_3,B,2014_Mrz_25_1630,P28,
stim_fb/ques.jpg,stim_fb/negf.jpg,stim_fb/posf.jpg,stim_03/b.jpg,stim_03/a.jpg,1,1,f,4,12,252,5,f,1,0.899742035992,03,02,60.0158783071,PLT_learning_3,B,2014_Mrz_25_1630,P28,
stim_fb/ques.jpg,stim_fb/posf.jpg,stim_fb/negf.jpg,stim_03/e.jpg,stim_03/f.jpg,2,3,j,4,13,253,56,j,1,0.549862312831,03,02,60.0158783071,PLT_learning_3,B,2014_Mrz_25_1630,P28,
stim_fb/ques.jpg,stim_fb/negf.jpg,stim_fb/posf.jpg,stim_03/c.jpg,stim_03/d.jpg,2,2,j,4,14,254,32,j,1,0.666443428081,03,02,60.0158783071,PLT_learning_3,B,2014_Mrz_25_1630,P28,
stim_fb/ques.jpg,stim_fb/posf.jpg,stim_fb/negf.jpg,stim_03/f.jpg,stim_03/e.jpg,1,3,f,4,15,255,48,f,1,0.599834344726,03,02,60.0158783071,PLT_learning_3,B,2014_Mrz_25_1630,P28,
stim_fb/ques.jpg,stim_fb/negf.jpg,stim_fb/posf.jpg,stim_03/e.jpg,stim_03/f.jpg,2,3,j,4,16,256,51,j,1,0.733136567633,03,02,60.0158783071,PLT_learning_3,B,2014_Mrz_25_1630,P28,
stim_fb/ques.jpg,stim_fb/posf.jpg,stim_fb/negf.jpg,stim_03/c.jpg,stim_03/d.jpg,2,2,j,4,17,257,37,j,1,0.783131396263,03,02,60.0158783071,PLT_learning_3,B,2014_Mrz_25_1630,P28,
stim_fb/ques.jpg,stim_fb/posf.jpg,stim_fb/negf.jpg,stim_03/f.jpg,stim_03/e.jpg,1,3,f,4,18,258,46,j,0,0.766435951475,03,02,60.0158783071,PLT_learning_3,B,2014_Mrz_25_1630,P28,
stim_fb/ques.jpg,stim_fb/negf.jpg,stim_fb/posf.jpg,stim_03/a.jpg,stim_03/b.jpg,2,1,j,4,19,259,16,j,1,0.93310653188,03,02,60.0158783071,PLT_learning_3,B,2014_Mrz_25_1630,P28,
stim_fb/ques.jpg,stim_fb/negf.jpg,stim_fb/posf.jpg,stim_03/c.jpg,stim_03/d.jpg,2,2,j,4,20,260,35,j,1,0.633165704146,03,02,60.0158783071,PLT_learning_3,B,2014_Mrz_25_1630,P28,
stim_fb/ques.jpg,stim_fb/negf.jpg,stim_fb/posf.jpg,stim_03/b.jpg,stim_03/a.jpg,1,1,f,4,21,261,1,f,1,0.633158173403,03,02,60.0158783071,PLT_learning_3,B,2014_Mrz_25_1630,P28,
stim_fb/ques.jpg,stim_fb/negf.jpg,stim_fb/posf.jpg,stim_03/d.jpg,stim_03/c.jpg,1,2,f,4,22,262,25,f,1,0.69981371338,03,02,60.0158783071,PLT_learning_3,B,2014_Mrz_25_1630,P28,
stim_fb/ques.jpg,stim_fb/posf.jpg,stim_fb/negf.jpg,stim_03/d.jpg,stim_03/c.jpg,1,2,f,4,23,263,29,f,1,0.566536912742,03,02,60.0158783071,PLT_learning_3,B,2014_Mrz_25_1630,P28,
stim_fb/ques.jpg,stim_fb/posf.jpg,stim_fb/negf.jpg,stim_03/e.jpg,stim_03/f.jpg,2,3,j,4,24,264,57,j,1,0.766472239786,03,02,60.0158783071,PLT_learning_3,B,2014_Mrz_25_1630,P28,
stim_fb/ques.jpg,stim_fb/negf.jpg,stim_fb/posf.jpg,stim_03/a.jpg,stim_03/b.jpg,2,1,j,4,25,265,11,j,1,0.849757489954,03,02,60.0158783071,PLT_learning_3,B,2014_Mrz_25_1630,P28,
stim_fb/ques.jpg,stim_fb/negf.jpg,stim_fb/posf.jpg,stim_03/c.jpg,stim_03/d.jpg,2,2,j,4,26,266,30,j,1,0.616554607279,03,02,60.0158783071,PLT_learning_3,B,2014_Mrz_25_1630,P28,
stim_fb/ques.jpg,stim_fb/posf.jpg,stim_fb/negf.jpg,stim_03/c.jpg,stim_03/d.jpg,2,2,j,4,27,267,38,j,1,0.616512291967,03,02,60.0158783071,PLT_learning_3,B,2014_Mrz_25_1630,P28,
stim_fb/ques.jpg,stim_fb/negf.jpg,stim_fb/posf.jpg,stim_03/e.jpg,stim_03/f.jpg,2,3,j,4,28,268,53,j,1,0.56650265749,03,02,60.0158783071,PLT_learning_3,B,2014_Mrz_25_1630,P28,
stim_fb/ques.jpg,stim_fb/negf.jpg,stim_fb/posf.jpg,stim_03/d.jpg,stim_03/c.jpg,1,2,f,4,29,269,23,f,1,0.583140460822,03,02,60.0158783071,PLT_learning_3,B,2014_Mrz_25_1630,P28,
stim_fb/ques.jpg,stim_fb/negf.jpg,stim_fb/posf.jpg,stim_03/f.jpg,stim_03/e.jpg,1,3,f,4,30,270,44,f,1,0.666486898268,03,02,60.0158783071,PLT_learning_3,B,2014_Mrz_25_1630,P28,
stim_fb/ques.jpg,stim_fb/negf.jpg,stim_fb/posf.jpg,stim_03/c.jpg,stim_03/d.jpg,2,2,j,4,31,271,31,j,1,0.816424680925,03,02,60.0158783071,PLT_learning_3,B,2014_Mrz_25_1630,P28,
stim_fb/ques.jpg,stim_fb/negf.jpg,stim_fb/posf.jpg,stim_03/e.jpg,stim_03/f.jpg,2,3,j,4,32,272,52,j,1,0.549897704914,03,02,60.0158783071,PLT_learning_3,B,2014_Mrz_25_1630,P28,
stim_fb/ques.jpg,stim_fb/negf.jpg,stim_fb/posf.jpg,stim_03/b.jpg,stim_03/a.jpg,1,1,f,4,33,273,2,f,1,0.916406145794,03,02,60.0158783071,PLT_learning_3,B,2014_Mrz_25_1630,P28,
stim_fb/ques.jpg,stim_fb/negf.jpg,stim_fb/posf.jpg,stim_03/b.jpg,stim_03/a.jpg,1,1,f,4,34,274,3,f,1,0.583165504149,03,02,60.0158783071,PLT_learning_3,B,2014_Mrz_25_1630,P28,
stim_fb/ques.jpg,stim_fb/posf.jpg,stim_fb/negf.jpg,stim_03/d.jpg,stim_03/c.jpg,1,2,f,4,35,275,27,None,0,,03,02,60.0158783071,PLT_learning_3,B,2014_Mrz_25_1630,P28,
stim_fb/ques.jpg,stim_fb/negf.jpg,stim_fb/posf.jpg,stim_03/a.jpg,stim_03/b.jpg,2,1,j,4,36,276,15,None,0,,03,02,60.0158783071,PLT_learning_3,B,2014_Mrz_25_1630,P28,
stim_fb/ques.jpg,stim_fb/posf.jpg,stim_fb/negf.jpg,stim_03/e.jpg,stim_03/f.jpg,2,3,j,4,37,277,58,j,1,0.699823704244,03,02,60.0158783071,PLT_learning_3,B,2014_Mrz_25_1630,P28,
stim_fb/ques.jpg,stim_fb/negf.jpg,stim_fb/posf.jpg,stim_03/a.jpg,stim_03/b.jpg,2,1,j,4,38,278,10,j,1,0.533237174017,03,02,60.0158783071,PLT_learning_3,B,2014_Mrz_25_1630,P28,
stim_fb/ques.jpg,stim_fb/negf.jpg,stim_fb/posf.jpg,stim_03/b.jpg,stim_03/a.jpg,1,1,f,4,39,279,0,f,1,0.649827140296,03,02,60.0158783071,PLT_learning_3,B,2014_Mrz_25_1630,P28,
stim_fb/ques.jpg,stim_fb/negf.jpg,stim_fb/posf.jpg,stim_03/b.jpg,stim_03/a.jpg,1,1,f,4,40,280,4,f,1,0.599845406256,03,02,60.0158783071,PLT_learning_3,B,2014_Mrz_25_1630,P28,
stim_fb/ques.jpg,stim_fb/negf.jpg,stim_fb/posf.jpg,stim_03/a.jpg,stim_03/b.jpg,2,1,j,4,41,281,12,j,1,0.549864156419,03,02,60.0158783071,PLT_learning_3,B,2014_Mrz_25_1630,P28,
stim_fb/ques.jpg,stim_fb/negf.jpg,stim_fb/posf.jpg,stim_03/d.jpg,stim_03/c.jpg,1,2,f,4,42,282,26,f,1,0.633143611161,03,02,60.0158783071,PLT_learning_3,B,2014_Mrz_25_1630,P28,
stim_fb/ques.jpg,stim_fb/negf.jpg,stim_fb/posf.jpg,stim_03/f.jpg,stim_03/e.jpg,1,3,f,4,43,283,40,f,1,0.68314432544,03,02,60.0158783071,PLT_learning_3,B,2014_Mrz_25_1630,P28,
stim_fb/ques.jpg,stim_fb/negf.jpg,stim_fb/posf.jpg,stim_03/f.jpg,stim_03/e.jpg,1,3,f,4,44,284,43,f,1,0.699782315236,03,02,60.0158783071,PLT_learning_3,B,2014_Mrz_25_1630,P28,
stim_fb/ques.jpg,stim_fb/negf.jpg,stim_fb/posf.jpg,stim_03/e.jpg,stim_03/f.jpg,2,3,j,4,45,285,54,j,1,0.649817218604,03,02,60.0158783071,PLT_learning_3,B,2014_Mrz_25_1630,P28,
stim_fb/ques.jpg,stim_fb/negf.jpg,stim_fb/posf.jpg,stim_03/d.jpg,stim_03/c.jpg,1,2,f,4,46,286,24,f,1,0.849721532464,03,02,60.0158783071,PLT_learning_3,B,2014_Mrz_25_1630,P28,
stim_fb/ques.jpg,stim_fb/posf.jpg,stim_fb/negf.jpg,stim_03/a.jpg,stim_03/b.jpg,2,1,j,4,47,287,19,j,1,0.583182559596,03,02,60.0158783071,PLT_learning_3,B,2014_Mrz_25_1630,P28,
stim_fb/ques.jpg,stim_fb/posf.jpg,stim_fb/negf.jpg,stim_03/d.jpg,stim_03/c.jpg,1,2,f,4,48,288,28,f,1,0.79980470897,03,02,60.0158783071,PLT_learning_3,B,2014_Mrz_25_1630,P28,
stim_fb/ques.jpg,stim_fb/posf.jpg,stim_fb/negf.jpg,stim_03/b.jpg,stim_03/a.jpg,1,1,f,4,49,289,9,f,1,0.699801746598,03,02,60.0158783071,PLT_learning_3,B,2014_Mrz_25_1630,P28,
stim_fb/ques.jpg,stim_fb/negf.jpg,stim_fb/posf.jpg,stim_03/d.jpg,stim_03/c.jpg,1,2,f,4,50,290,20,f,1,0.633147824648,03,02,60.0158783071,PLT_learning_3,B,2014_Mrz_25_1630,P28,
stim_fb/ques.jpg,stim_fb/negf.jpg,stim_fb/posf.jpg,stim_03/e.jpg,stim_03/f.jpg,2,3,j,4,51,291,50,j,1,0.683132629332,03,02,60.0158783071,PLT_learning_3,B,2014_Mrz_25_1630,P28,
stim_fb/ques.jpg,stim_fb/posf.jpg,stim_fb/negf.jpg,stim_03/e.jpg,stim_03/f.jpg,2,3,j,4,52,292,59,j,1,0.583185392647,03,02,60.0158783071,PLT_learning_3,B,2014_Mrz_25_1630,P28,
stim_fb/ques.jpg,stim_fb/negf.jpg,stim_fb/posf.jpg,stim_03/e.jpg,stim_03/f.jpg,2,3,j,4,53,293,55,j,1,0.749782897186,03,02,60.0158783071,PLT_learning_3,B,2014_Mrz_25_1630,P28,
stim_fb/ques.jpg,stim_fb/posf.jpg,stim_fb/negf.jpg,stim_03/f.jpg,stim_03/e.jpg,1,3,f,4,54,294,49,None,0,,03,02,60.0158783071,PLT_learning_3,B,2014_Mrz_25_1630,P28,
stim_fb/ques.jpg,stim_fb/negf.jpg,stim_fb/posf.jpg,stim_03/c.jpg,stim_03/d.jpg,2,2,j,4,55,295,34,j,1,0.499880305109,03,02,60.0158783071,PLT_learning_3,B,2014_Mrz_25_1630,P28,
stim_fb/ques.jpg,stim_fb/posf.jpg,stim_fb/negf.jpg,stim_03/a.jpg,stim_03/b.jpg,2,1,j,4,56,296,18,j,1,0.816434945471,03,02,60.0158783071,PLT_learning_3,B,2014_Mrz_25_1630,P28,
stim_fb/ques.jpg,stim_fb/negf.jpg,stim_fb/posf.jpg,stim_03/d.jpg,stim_03/c.jpg,1,2,f,4,57,297,22,f,1,0.849767294354,03,02,60.0158783071,PLT_learning_3,B,2014_Mrz_25_1630,P28,
stim_fb/ques.jpg,stim_fb/negf.jpg,stim_fb/posf.jpg,stim_03/b.jpg,stim_03/a.jpg,1,1,f,4,58,298,6,f,1,0.583210162291,03,02,60.0158783071,PLT_learning_3,B,2014_Mrz_25_1630,P28,
stim_fb/ques.jpg,stim_fb/negf.jpg,stim_fb/posf.jpg,stim_03/c.jpg,stim_03/d.jpg,2,2,j,4,59,299,33,j,1,0.566510627323,03,02,60.0158783071,PLT_learning_3,B,2014_Mrz_25_1630,P28,
stim_fb/ques.jpg,stim_fb/negf.jpg,stim_fb/posf.jpg,stim_03/a.jpg,stim_03/b.jpg,2,1,j,5,0,300,13,j,1,1.09968185622,03,02,60.0158783071,PLT_learning_3,B,2014_Mrz_25_1630,P28,
stim_fb/ques.jpg,stim_fb/negf.jpg,stim_fb/posf.jpg,stim_03/f.jpg,stim_03/e.jpg,1,3,f,5,1,301,40,None,0,,03,02,60.0158783071,PLT_learning_3,B,2014_Mrz_25_1630,P28,
stim_fb/ques.jpg,stim_fb/posf.jpg,stim_fb/negf.jpg,stim_03/a.jpg,stim_03/b.jpg,2,1,j,5,2,302,18,j,1,0.91642088548,03,02,60.0158783071,PLT_learning_3,B,2014_Mrz_25_1630,P28,
stim_fb/ques.jpg,stim_fb/negf.jpg,stim_fb/posf.jpg,stim_03/a.jpg,stim_03/b.jpg,2,1,j,5,3,303,16,j,1,0.899696746277,03,02,60.0158783071,PLT_learning_3,B,2014_Mrz_25_1630,P28,
stim_fb/ques.jpg,stim_fb/posf.jpg,stim_fb/negf.jpg,stim_03/f.jpg,stim_03/e.jpg,1,3,f,5,4,304,48,f,1,0.683447473901,03,02,60.0158783071,PLT_learning_3,B,2014_Mrz_25_1630,P28,
stim_fb/ques.jpg,stim_fb/negf.jpg,stim_fb/posf.jpg,stim_03/b.jpg,stim_03/a.jpg,1,1,f,5,5,305,7,f,1,0.516524920395,03,02,60.0158783071,PLT_learning_3,B,2014_Mrz_25_1630,P28,
stim_fb/ques.jpg,stim_fb/negf.jpg,stim_fb/posf.jpg,stim_03/a.jpg,stim_03/b.jpg,2,1,j,5,6,306,17,j,1,0.733126047451,03,02,60.0158783071,PLT_learning_3,B,2014_Mrz_25_1630,P28,
stim_fb/ques.jpg,stim_fb/negf.jpg,stim_fb/posf.jpg,stim_03/c.jpg,stim_03/d.jpg,2,2,j,5,7,307,36,j,1,0.54987206009,03,02,60.0158783071,PLT_learning_3,B,2014_Mrz_25_1630,P28,
stim_fb/ques.jpg,stim_fb/negf.jpg,stim_fb/posf.jpg,stim_03/e.jpg,stim_03/f.jpg,2,3,j,5,8,308,52,j,1,0.566525538434,03,02,60.0158783071,PLT_learning_3,B,2014_Mrz_25_1630,P28,
stim_fb/ques.jpg,stim_fb/negf.jpg,stim_fb/posf.jpg,stim_03/f.jpg,stim_03/e.jpg,1,3,f,5,9,309,41,j,0,1.04970014323,03,02,60.0158783071,PLT_learning_3,B,2014_Mrz_25_1630,P28,
stim_fb/ques.jpg,stim_fb/negf.jpg,stim_fb/posf.jpg,stim_03/d.jpg,stim_03/c.jpg,1,2,f,5,10,310,24,f,1,1.08304559272,03,02,60.0158783071,PLT_learning_3,B,2014_Mrz_25_1630,P28,
stim_fb/ques.jpg,stim_fb/negf.jpg,stim_fb/posf.jpg,stim_03/b.jpg,stim_03/a.jpg,1,1,f,5,11,311,0,None,0,,03,02,60.0158783071,PLT_learning_3,B,2014_Mrz_25_1630,P28,
stim_fb/ques.jpg,stim_fb/negf.jpg,stim_fb/posf.jpg,stim_03/b.jpg,stim_03/a.jpg,1,1,f,5,12,312,6,f,1,0.566505352195,03,02,60.0158783071,PLT_learning_3,B,2014_Mrz_25_1630,P28,
stim_fb/ques.jpg,stim_fb/negf.jpg,stim_fb/posf.jpg,stim_03/b.jpg,stim_03/a.jpg,1,1,f,5,13,313,1,f,1,0.566516729512,03,02,60.0158783071,PLT_learning_3,B,2014_Mrz_25_1630,P28,
stim_fb/ques.jpg,stim_fb/posf.jpg,stim_fb/negf.jpg,stim_03/e.jpg,stim_03/f.jpg,2,3,j,5,14,314,57,j,1,0.54990032744,03,02,60.0158783071,PLT_learning_3,B,2014_Mrz_25_1630,P28,
stim_fb/ques.jpg,stim_fb/negf.jpg,stim_fb/posf.jpg,stim_03/c.jpg,stim_03/d.jpg,2,2,j,5,15,315,32,j,1,0.766485301294,03,02,60.0158783071,PLT_learning_3,B,2014_Mrz_25_1630,P28,
stim_fb/ques.jpg,stim_fb/negf.jpg,stim_fb/posf.jpg,stim_03/c.jpg,stim_03/d.jpg,2,2,j,5,16,316,31,j,1,0.63318636256,03,02,60.0158783071,PLT_learning_3,B,2014_Mrz_25_1630,P28,
stim_fb/ques.jpg,stim_fb/negf.jpg,stim_fb/posf.jpg,stim_03/e.jpg,stim_03/f.jpg,2,3,j,5,17,317,55,j,1,0.999753305037,03,02,60.0158783071,PLT_learning_3,B,2014_Mrz_25_1630,P28,
stim_fb/ques.jpg,stim_fb/negf.jpg,stim_fb/posf.jpg,stim_03/f.jpg,stim_03/e.jpg,1,3,f,5,18,318,43,j,0,0.533183165602,03,02,60.0158783071,PLT_learning_3,B,2014_Mrz_25_1630,P28,
stim_fb/ques.jpg,stim_fb/negf.jpg,stim_fb/posf.jpg,stim_03/a.jpg,stim_03/b.jpg,2,1,j,5,19,319,11,j,1,0.616541115702,03,02,60.0158783071,PLT_learning_3,B,2014_Mrz_25_1630,P28,
stim_fb/ques.jpg,stim_fb/negf.jpg,stim_fb/posf.jpg,stim_03/f.jpg,stim_03/e.jpg,1,3,f,5,20,320,45,f,1,0.799734249615,03,02,60.0158783071,PLT_learning_3,B,2014_Mrz_25_1630,P28,
stim_fb/ques.jpg,stim_fb/negf.jpg,stim_fb/posf.jpg,stim_03/d.jpg,stim_03/c.jpg,1,2,f,5,21,321,21,f,1,0.599852302417,03,02,60.0158783071,PLT_learning_3,B,2014_Mrz_25_1630,P28,
stim_fb/ques.jpg,stim_fb/negf.jpg,stim_fb/posf.jpg,stim_03/d.jpg,stim_03/c.jpg,1,2,f,5,22,322,20,f,1,0.733153129853,03,02,60.0158783071,PLT_learning_3,B,2014_Mrz_25_1630,P28,
stim_fb/ques.jpg,stim_fb/posf.jpg,stim_fb/negf.jpg,stim_03/b.jpg,stim_03/a.jpg,1,1,f,5,23,323,8,f,1,0.549873648042,03,02,60.0158783071,PLT_learning_3,B,2014_Mrz_25_1630,P28,
stim_fb/ques.jpg,stim_fb/negf.jpg,stim_fb/posf.jpg,stim_03/e.jpg,stim_03/f.jpg,2,3,j,5,24,324,51,j,1,0.666518131,03,02,60.0158783071,PLT_learning_3,B,2014_Mrz_25_1630,P28,
stim_fb/ques.jpg,stim_fb/negf.jpg,stim_fb/posf.jpg,stim_03/b.jpg,stim_03/a.jpg,1,1,f,5,25,325,3,f,1,0.983040239395,03,02,60.0158783071,PLT_learning_3,B,2014_Mrz_25_1630,P28,
stim_fb/ques.jpg,stim_fb/posf.jpg,stim_fb/negf.jpg,stim_03/d.jpg,stim_03/c.jpg,1,2,f,5,26,326,27,f,1,0.899739972858,03,02,60.0158783071,PLT_learning_3,B,2014_Mrz_25_1630,P28,
stim_fb/ques.jpg,stim_fb/negf.jpg,stim_fb/posf.jpg,stim_03/f.jpg,stim_03/e.jpg,1,3,f,5,27,327,42,f,1,0.699839150686,03,02,60.0158783071,PLT_learning_3,B,2014_Mrz_25_1630,P28,
stim_fb/ques.jpg,stim_fb/posf.jpg,stim_fb/negf.jpg,stim_03/c.jpg,stim_03/d.jpg,2,2,j,5,28,328,37,j,1,0.749762617716,03,02,60.0158783071,PLT_learning_3,B,2014_Mrz_25_1630,P28,
stim_fb/ques.jpg,stim_fb/negf.jpg,stim_fb/posf.jpg,stim_03/a.jpg,stim_03/b.jpg,2,1,j,5,29,329,10,j,1,0.966389115913,03,02,60.0158783071,PLT_learning_3,B,2014_Mrz_25_1630,P28,
stim_fb/ques.jpg,stim_fb/posf.jpg,stim_fb/negf.jpg,stim_03/e.jpg,stim_03/f.jpg,2,3,j,5,30,330,59,j,1,0.566498934222,03,02,60.0158783071,PLT_learning_3,B,2014_Mrz_25_1630,P28,
stim_fb/ques.jpg,stim_fb/posf.jpg,stim_fb/negf.jpg,stim_03/d.jpg,stim_03/c.jpg,1,2,f,5,31,331,28,f,1,0.599830516196,03,02,60.0158783071,PLT_learning_3,B,2014_Mrz_25_1630,P28,
stim_fb/ques.jpg,stim_fb/negf.jpg,stim_fb/posf.jpg,stim_03/e.jpg,stim_03/f.jpg,2,3,j,5,32,332,54,j,1,0.683149832144,03,02,60.0158783071,PLT_learning_3,B,2014_Mrz_25_1630,P28,
stim_fb/ques.jpg,stim_fb/negf.jpg,stim_fb/posf.jpg,stim_03/b.jpg,stim_03/a.jpg,1,1,f,5,33,333,4,f,1,1.0663439074,03,02,60.0158783071,PLT_learning_3,B,2014_Mrz_25_1630,P28,
stim_fb/ques.jpg,stim_fb/posf.jpg,stim_fb/negf.jpg,stim_03/b.jpg,stim_03/a.jpg,1,1,f,5,34,334,9,f,1,1.44961695319,03,02,60.0158783071,PLT_learning_3,B,2014_Mrz_25_1630,P28,
stim_fb/ques.jpg,stim_fb/negf.jpg,stim_fb/posf.jpg,stim_03/c.jpg,stim_03/d.jpg,2,2,j,5,35,335,34,j,1,0.766437990549,03,02,60.0158783071,PLT_learning_3,B,2014_Mrz_25_1630,P28,
stim_fb/ques.jpg,stim_fb/negf.jpg,stim_fb/posf.jpg,stim_03/d.jpg,stim_03/c.jpg,1,2,f,5,36,336,26,f,1,1.14970238381,03,02,60.0158783071,PLT_learning_3,B,2014_Mrz_25_1630,P28,
stim_fb/ques.jpg,stim_fb/negf.jpg,stim_fb/posf.jpg,stim_03/c.jpg,stim_03/d.jpg,2,2,j,5,37,337,33,None,0,,03,02,60.0158783071,PLT_learning_3,B,2014_Mrz_25_1630,P28,
stim_fb/ques.jpg,stim_fb/negf.jpg,stim_fb/posf.jpg,stim_03/c.jpg,stim_03/d.jpg,2,2,j,5,38,338,35,j,1,0.583191744454,03,02,60.0158783071,PLT_learning_3,B,2014_Mrz_25_1630,P28,
stim_fb/ques.jpg,stim_fb/posf.jpg,stim_fb/negf.jpg,stim_03/e.jpg,stim_03/f.jpg,2,3,j,5,39,339,56,j,1,0.949730443641,03,02,60.0158783071,PLT_learning_3,B,2014_Mrz_25_1630,P28,
stim_fb/ques.jpg,stim_fb/posf.jpg,stim_fb/negf.jpg,stim_03/a.jpg,stim_03/b.jpg,2,1,j,5,40,340,19,j,1,0.616368284569,03,02,60.0158783071,PLT_learning_3,B,2014_Mrz_25_1630,P28,
stim_fb/ques.jpg,stim_fb/posf.jpg,stim_fb/negf.jpg,stim_03/f.jpg,stim_03/e.jpg,1,3,f,5,41,341,47,f,1,0.549896219216,03,02,60.0158783071,PLT_learning_3,B,2014_Mrz_25_1630,P28,
stim_fb/ques.jpg,stim_fb/posf.jpg,stim_fb/negf.jpg,stim_03/f.jpg,stim_03/e.jpg,1,3,f,5,42,342,49,f,1,0.616492229034,03,02,60.0158783071,PLT_learning_3,B,2014_Mrz_25_1630,P28,
stim_fb/ques.jpg,stim_fb/negf.jpg,stim_fb/posf.jpg,stim_03/e.jpg,stim_03/f.jpg,2,3,j,5,43,343,50,f,0,0.833068393966,03,02,60.0158783071,PLT_learning_3,B,2014_Mrz_25_1630,P28,
stim_fb/ques.jpg,stim_fb/posf.jpg,stim_fb/negf.jpg,stim_03/c.jpg,stim_03/d.jpg,2,2,j,5,44,344,38,j,1,0.799655200881,03,02,60.0158783071,PLT_learning_3,B,2014_Mrz_25_1630,P28,
stim_fb/ques.jpg,stim_fb/posf.jpg,stim_fb/negf.jpg,stim_03/e.jpg,stim_03/f.jpg,2,3,j,5,45,345,58,j,1,1.34970105149,03,02,60.0158783071,PLT_learning_3,B,2014_Mrz_25_1630,P28,
stim_fb/ques.jpg,stim_fb/negf.jpg,stim_fb/posf.jpg,stim_03/c.jpg,stim_03/d.jpg,2,2,j,5,46,346,30,f,0,0.915425023026,03,02,60.0158783071,PLT_learning_3,B,2014_Mrz_25_1630,P28,
stim_fb/ques.jpg,stim_fb/negf.jpg,stim_fb/posf.jpg,stim_03/d.jpg,stim_03/c.jpg,1,2,f,5,47,347,23,f,1,0.79976631241,03,02,60.0158783071,PLT_learning_3,B,2014_Mrz_25_1630,P28,
stim_fb/ques.jpg,stim_fb/negf.jpg,stim_fb/posf.jpg,stim_03/a.jpg,stim_03/b.jpg,2,1,j,5,48,348,12,f,0,0.899732393997,03,02,60.0158783071,PLT_learning_3,B,2014_Mrz_25_1630,P28,
stim_fb/ques.jpg,stim_fb/posf.jpg,stim_fb/negf.jpg,stim_03/f.jpg,stim_03/e.jpg,1,3,f,5,49,349,46,f,1,0.866420712548,03,02,60.0158783071,PLT_learning_3,B,2014_Mrz_25_1630,P28,
stim_fb/ques.jpg,stim_fb/negf.jpg,stim_fb/posf.jpg,stim_03/f.jpg,stim_03/e.jpg,1,3,f,5,50,350,44,f,1,0.633167132703,03,02,60.0158783071,PLT_learning_3,B,2014_Mrz_25_1630,P28,
stim_fb/ques.jpg,stim_fb/posf.jpg,stim_fb/negf.jpg,stim_03/d.jpg,stim_03/c.jpg,1,2,f,5,51,351,29,f,1,0.549858914372,03,02,60.0158783071,PLT_learning_3,B,2014_Mrz_25_1630,P28,
stim_fb/ques.jpg,stim_fb/negf.jpg,stim_fb/posf.jpg,stim_03/a.jpg,stim_03/b.jpg,2,1,j,5,52,352,14,j,1,1.24967370443,03,02,60.0158783071,PLT_learning_3,B,2014_Mrz_25_1630,P28,
stim_fb/ques.jpg,stim_fb/negf.jpg,stim_fb/posf.jpg,stim_03/a.jpg,stim_03/b.jpg,2,1,j,5,53,353,15,j,1,0.716478993094,03,02,60.0158783071,PLT_learning_3,B,2014_Mrz_25_1630,P28,
stim_fb/ques.jpg,stim_fb/posf.jpg,stim_fb/negf.jpg,stim_03/c.jpg,stim_03/d.jpg,2,2,j,5,54,354,39,j,1,1.01638377913,03,02,60.0158783071,PLT_learning_3,B,2014_Mrz_25_1630,P28,
stim_fb/ques.jpg,stim_fb/negf.jpg,stim_fb/posf.jpg,stim_03/b.jpg,stim_03/a.jpg,1,1,f,5,55,355,5,f,1,1.08301100965,03,02,60.0158783071,PLT_learning_3,B,2014_Mrz_25_1630,P28,
stim_fb/ques.jpg,stim_fb/negf.jpg,stim_fb/posf.jpg,stim_03/b.jpg,stim_03/a.jpg,1,1,f,5,56,356,2,f,1,0.699805214226,03,02,60.0158783071,PLT_learning_3,B,2014_Mrz_25_1630,P28,
stim_fb/ques.jpg,stim_fb/negf.jpg,stim_fb/posf.jpg,stim_03/d.jpg,stim_03/c.jpg,1,2,f,5,57,357,22,f,1,0.733156242599,03,02,60.0158783071,PLT_learning_3,B,2014_Mrz_25_1630,P28,
stim_fb/ques.jpg,stim_fb/negf.jpg,stim_fb/posf.jpg,stim_03/e.jpg,stim_03/f.jpg,2,3,j,5,58,358,53,f,0,0.683144376566,03,02,60.0158783071,PLT_learning_3,B,2014_Mrz_25_1630,P28,
stim_fb/ques.jpg,stim_fb/negf.jpg,stim_fb/posf.jpg,stim_03/d.jpg,stim_03/c.jpg,1,2,f,5,59,359,25,f,1,0.816452524221,03,02,60.0158783071,PLT_learning_3,B,2014_Mrz_25_1630,P28,
