Fb3,Fb2,Fb1,Symbol2,Symbol1,PosCond,Pair,Correct,trials.thisRepN,trials.thisTrialN,trials.thisN,trials.thisIndex,Response.keys,Response.corr,Response.rt,Version,Session Number,frameRate,expName,StimCondition,date,Participant,
stim_fb/ques.jpg,stim_fb/negf.jpg,stim_fb/posf.jpg,stim_03/a.jpg,stim_03/b.jpg,2,1,j,0,0,0,10,j,1,0.783119609929,03,03,60.0137129326,PLT_learning_3,B,2014_Mrz_28_1445,P29,
stim_fb/ques.jpg,stim_fb/posf.jpg,stim_fb/negf.jpg,stim_03/f.jpg,stim_03/e.jpg,1,3,f,0,1,1,46,f,1,0.83309479367,03,03,60.0137129326,PLT_learning_3,B,2014_Mrz_28_1445,P29,
stim_fb/ques.jpg,stim_fb/negf.jpg,stim_fb/posf.jpg,stim_03/f.jpg,stim_03/e.jpg,1,3,f,0,2,2,42,j,0,0.283291583928,03,03,60.0137129326,PLT_learning_3,B,2014_Mrz_28_1445,P29,
stim_fb/ques.jpg,stim_fb/negf.jpg,stim_fb/posf.jpg,stim_03/b.jpg,stim_03/a.jpg,1,1,f,0,3,3,6,j,0,0.866390754993,03,03,60.0137129326,PLT_learning_3,B,2014_Mrz_28_1445,P29,
stim_fb/ques.jpg,stim_fb/negf.jpg,stim_fb/posf.jpg,stim_03/d.jpg,stim_03/c.jpg,1,2,f,0,4,4,24,j,0,0.816438425129,03,03,60.0137129326,PLT_learning_3,B,2014_Mrz_28_1445,P29,
stim_fb/ques.jpg,stim_fb/negf.jpg,stim_fb/posf.jpg,stim_03/b.jpg,stim_03/a.jpg,1,1,f,0,5,5,4,f,1,1.06636924847,03,03,60.0137129326,PLT_learning_3,B,2014_Mrz_28_1445,P29,
stim_fb/ques.jpg,stim_fb/posf.jpg,stim_fb/negf.jpg,stim_03/c.jpg,stim_03/d.jpg,2,2,j,0,6,6,37,f,0,1.01639396849,03,03,60.0137129326,PLT_learning_3,B,2014_Mrz_28_1445,P29,
stim_fb/ques.jpg,stim_fb/negf.jpg,stim_fb/posf.jpg,stim_03/c.jpg,stim_03/d.jpg,2,2,j,0,7,7,32,f,0,0.783105964972,03,03,60.0137129326,PLT_learning_3,B,2014_Mrz_28_1445,P29,
stim_fb/ques.jpg,stim_fb/posf.jpg,stim_fb/negf.jpg,stim_03/f.jpg,stim_03/e.jpg,1,3,f,0,8,8,49,j,0,0.433233131957,03,03,60.0137129326,PLT_learning_3,B,2014_Mrz_28_1445,P29,
stim_fb/ques.jpg,stim_fb/posf.jpg,stim_fb/negf.jpg,stim_03/b.jpg,stim_03/a.jpg,1,1,f,0,9,9,8,f,1,0.683188649753,03,03,60.0137129326,PLT_learning_3,B,2014_Mrz_28_1445,P29,
stim_fb/ques.jpg,stim_fb/negf.jpg,stim_fb/posf.jpg,stim_03/e.jpg,stim_03/f.jpg,2,3,j,0,10,10,52,j,1,0.566525941438,03,03,60.0137129326,PLT_learning_3,B,2014_Mrz_28_1445,P29,
stim_fb/ques.jpg,stim_fb/negf.jpg,stim_fb/posf.jpg,stim_03/e.jpg,stim_03/f.jpg,2,3,j,0,11,11,51,f,0,0.849736332297,03,03,60.0137129326,PLT_learning_3,B,2014_Mrz_28_1445,P29,
stim_fb/ques.jpg,stim_fb/negf.jpg,stim_fb/posf.jpg,stim_03/c.jpg,stim_03/d.jpg,2,2,j,0,12,12,31,f,0,1.06637982579,03,03,60.0137129326,PLT_learning_3,B,2014_Mrz_28_1445,P29,
stim_fb/ques.jpg,stim_fb/negf.jpg,stim_fb/posf.jpg,stim_03/f.jpg,stim_03/e.jpg,1,3,f,0,13,13,45,j,0,0.649839215348,03,03,60.0137129326,PLT_learning_3,B,2014_Mrz_28_1445,P29,
stim_fb/ques.jpg,stim_fb/negf.jpg,stim_fb/posf.jpg,stim_03/a.jpg,stim_03/b.jpg,2,1,j,0,14,14,16,j,1,0.88309174859,03,03,60.0137129326,PLT_learning_3,B,2014_Mrz_28_1445,P29,
stim_fb/ques.jpg,stim_fb/negf.jpg,stim_fb/posf.jpg,stim_03/a.jpg,stim_03/b.jpg,2,1,j,0,15,15,15,f,0,0.649858219644,03,03,60.0137129326,PLT_learning_3,B,2014_Mrz_28_1445,P29,
stim_fb/ques.jpg,stim_fb/negf.jpg,stim_fb/posf.jpg,stim_03/b.jpg,stim_03/a.jpg,1,1,f,0,16,16,1,j,0,0.483238086788,03,03,60.0137129326,PLT_learning_3,B,2014_Mrz_28_1445,P29,
stim_fb/ques.jpg,stim_fb/negf.jpg,stim_fb/posf.jpg,stim_03/b.jpg,stim_03/a.jpg,1,1,f,0,17,17,3,f,1,0.56654676827,03,03,60.0137129326,PLT_learning_3,B,2014_Mrz_28_1445,P29,
stim_fb/ques.jpg,stim_fb/negf.jpg,stim_fb/posf.jpg,stim_03/d.jpg,stim_03/c.jpg,1,2,f,0,18,18,20,j,0,0.549875341258,03,03,60.0137129326,PLT_learning_3,B,2014_Mrz_28_1445,P29,
stim_fb/ques.jpg,stim_fb/negf.jpg,stim_fb/posf.jpg,stim_03/b.jpg,stim_03/a.jpg,1,1,f,0,19,19,2,f,1,0.299975458925,03,03,60.0137129326,PLT_learning_3,B,2014_Mrz_28_1445,P29,
stim_fb/ques.jpg,stim_fb/negf.jpg,stim_fb/posf.jpg,stim_03/d.jpg,stim_03/c.jpg,1,2,f,0,20,20,26,j,0,0.816430840256,03,03,60.0137129326,PLT_learning_3,B,2014_Mrz_28_1445,P29,
stim_fb/ques.jpg,stim_fb/negf.jpg,stim_fb/posf.jpg,stim_03/b.jpg,stim_03/a.jpg,1,1,f,0,21,21,7,f,1,0.849757998218,03,03,60.0137129326,PLT_learning_3,B,2014_Mrz_28_1445,P29,
stim_fb/ques.jpg,stim_fb/posf.jpg,stim_fb/negf.jpg,stim_03/a.jpg,stim_03/b.jpg,2,1,j,0,22,22,18,j,1,0.466539093166,03,03,60.0137129326,PLT_learning_3,B,2014_Mrz_28_1445,P29,
stim_fb/ques.jpg,stim_fb/negf.jpg,stim_fb/posf.jpg,stim_03/c.jpg,stim_03/d.jpg,2,2,j,0,23,23,33,f,0,0.349903488306,03,03,60.0137129326,PLT_learning_3,B,2014_Mrz_28_1445,P29,
stim_fb/ques.jpg,stim_fb/negf.jpg,stim_fb/posf.jpg,stim_03/d.jpg,stim_03/c.jpg,1,2,f,0,24,24,25,j,0,1.28295482081,03,03,60.0137129326,PLT_learning_3,B,2014_Mrz_28_1445,P29,
stim_fb/ques.jpg,stim_fb/negf.jpg,stim_fb/posf.jpg,stim_03/e.jpg,stim_03/f.jpg,2,3,j,0,25,25,54,f,0,1.26626003767,03,03,60.0137129326,PLT_learning_3,B,2014_Mrz_28_1445,P29,
stim_fb/ques.jpg,stim_fb/posf.jpg,stim_fb/negf.jpg,stim_03/e.jpg,stim_03/f.jpg,2,3,j,0,26,26,56,f,0,0.666466345116,03,03,60.0137129326,PLT_learning_3,B,2014_Mrz_28_1445,P29,
stim_fb/ques.jpg,stim_fb/posf.jpg,stim_fb/negf.jpg,stim_03/b.jpg,stim_03/a.jpg,1,1,f,0,27,27,9,j,0,0.299955570423,03,03,60.0137129326,PLT_learning_3,B,2014_Mrz_28_1445,P29,
stim_fb/ques.jpg,stim_fb/posf.jpg,stim_fb/negf.jpg,stim_03/c.jpg,stim_03/d.jpg,2,2,j,0,28,28,38,f,0,0.299899165046,03,03,60.0137129326,PLT_learning_3,B,2014_Mrz_28_1445,P29,
stim_fb/ques.jpg,stim_fb/negf.jpg,stim_fb/posf.jpg,stim_03/e.jpg,stim_03/f.jpg,2,3,j,0,29,29,55,j,1,0.816411811895,03,03,60.0137129326,PLT_learning_3,B,2014_Mrz_28_1445,P29,
stim_fb/ques.jpg,stim_fb/posf.jpg,stim_fb/negf.jpg,stim_03/d.jpg,stim_03/c.jpg,1,2,f,0,30,30,29,f,1,0.466543463044,03,03,60.0137129326,PLT_learning_3,B,2014_Mrz_28_1445,P29,
stim_fb/ques.jpg,stim_fb/posf.jpg,stim_fb/negf.jpg,stim_03/c.jpg,stim_03/d.jpg,2,2,j,0,31,31,39,j,1,0.399893297443,03,03,60.0137129326,PLT_learning_3,B,2014_Mrz_28_1445,P29,
stim_fb/ques.jpg,stim_fb/negf.jpg,stim_fb/posf.jpg,stim_03/a.jpg,stim_03/b.jpg,2,1,j,0,32,32,12,f,0,0.266604024764,03,03,60.0137129326,PLT_learning_3,B,2014_Mrz_28_1445,P29,
stim_fb/ques.jpg,stim_fb/posf.jpg,stim_fb/negf.jpg,stim_03/e.jpg,stim_03/f.jpg,2,3,j,0,33,33,57,j,1,0.283278528437,03,03,60.0137129326,PLT_learning_3,B,2014_Mrz_28_1445,P29,
stim_fb/ques.jpg,stim_fb/posf.jpg,stim_fb/negf.jpg,stim_03/e.jpg,stim_03/f.jpg,2,3,j,0,34,34,59,f,0,0.14998847682,03,03,60.0137129326,PLT_learning_3,B,2014_Mrz_28_1445,P29,
stim_fb/ques.jpg,stim_fb/posf.jpg,stim_fb/negf.jpg,stim_03/f.jpg,stim_03/e.jpg,1,3,f,0,35,35,48,j,0,0.516549416359,03,03,60.0137129326,PLT_learning_3,B,2014_Mrz_28_1445,P29,
stim_fb/ques.jpg,stim_fb/negf.jpg,stim_fb/posf.jpg,stim_03/d.jpg,stim_03/c.jpg,1,2,f,0,36,36,22,f,1,1.19954900659,03,03,60.0137129326,PLT_learning_3,B,2014_Mrz_28_1445,P29,
stim_fb/ques.jpg,stim_fb/negf.jpg,stim_fb/posf.jpg,stim_03/b.jpg,stim_03/a.jpg,1,1,f,0,37,37,5,j,0,0.616495089154,03,03,60.0137129326,PLT_learning_3,B,2014_Mrz_28_1445,P29,
stim_fb/ques.jpg,stim_fb/negf.jpg,stim_fb/posf.jpg,stim_03/a.jpg,stim_03/b.jpg,2,1,j,0,38,38,11,f,0,0.416578591972,03,03,60.0137129326,PLT_learning_3,B,2014_Mrz_28_1445,P29,
stim_fb/ques.jpg,stim_fb/posf.jpg,stim_fb/negf.jpg,stim_03/d.jpg,stim_03/c.jpg,1,2,f,0,39,39,27,f,1,0.98303499434,03,03,60.0137129326,PLT_learning_3,B,2014_Mrz_28_1445,P29,
stim_fb/ques.jpg,stim_fb/negf.jpg,stim_fb/posf.jpg,stim_03/b.jpg,stim_03/a.jpg,1,1,f,0,40,40,0,j,0,0.266642779217,03,03,60.0137129326,PLT_learning_3,B,2014_Mrz_28_1445,P29,
stim_fb/ques.jpg,stim_fb/negf.jpg,stim_fb/posf.jpg,stim_03/a.jpg,stim_03/b.jpg,2,1,j,0,41,41,17,f,0,0.483236555978,03,03,60.0137129326,PLT_learning_3,B,2014_Mrz_28_1445,P29,
stim_fb/ques.jpg,stim_fb/posf.jpg,stim_fb/negf.jpg,stim_03/d.jpg,stim_03/c.jpg,1,2,f,0,42,42,28,j,0,1.14969726206,03,03,60.0137129326,PLT_learning_3,B,2014_Mrz_28_1445,P29,
stim_fb/ques.jpg,stim_fb/negf.jpg,stim_fb/posf.jpg,stim_03/f.jpg,stim_03/e.jpg,1,3,f,0,43,43,40,f,1,1.1496628414,03,03,60.0137129326,PLT_learning_3,B,2014_Mrz_28_1445,P29,
stim_fb/ques.jpg,stim_fb/negf.jpg,stim_fb/posf.jpg,stim_03/d.jpg,stim_03/c.jpg,1,2,f,0,44,44,21,f,1,1.28295468247,03,03,60.0137129326,PLT_learning_3,B,2014_Mrz_28_1445,P29,
stim_fb/ques.jpg,stim_fb/negf.jpg,stim_fb/posf.jpg,stim_03/c.jpg,stim_03/d.jpg,2,2,j,0,45,45,34,j,1,1.4995414969,03,03,60.0137129326,PLT_learning_3,B,2014_Mrz_28_1445,P29,
stim_fb/ques.jpg,stim_fb/negf.jpg,stim_fb/posf.jpg,stim_03/d.jpg,stim_03/c.jpg,1,2,f,0,46,46,23,f,1,1.39957071762,03,03,60.0137129326,PLT_learning_3,B,2014_Mrz_28_1445,P29,
stim_fb/ques.jpg,stim_fb/posf.jpg,stim_fb/negf.jpg,stim_03/e.jpg,stim_03/f.jpg,2,3,j,0,47,47,58,j,1,1.1163474036,03,03,60.0137129326,PLT_learning_3,B,2014_Mrz_28_1445,P29,
stim_fb/ques.jpg,stim_fb/negf.jpg,stim_fb/posf.jpg,stim_03/c.jpg,stim_03/d.jpg,2,2,j,0,48,48,36,j,1,1.16634697203,03,03,60.0137129326,PLT_learning_3,B,2014_Mrz_28_1445,P29,
stim_fb/ques.jpg,stim_fb/posf.jpg,stim_fb/negf.jpg,stim_03/a.jpg,stim_03/b.jpg,2,1,j,0,49,49,19,f,0,0.966402177422,03,03,60.0137129326,PLT_learning_3,B,2014_Mrz_28_1445,P29,
stim_fb/ques.jpg,stim_fb/posf.jpg,stim_fb/negf.jpg,stim_03/f.jpg,stim_03/e.jpg,1,3,f,0,50,50,47,j,0,1.08297584614,03,03,60.0137129326,PLT_learning_3,B,2014_Mrz_28_1445,P29,
stim_fb/ques.jpg,stim_fb/negf.jpg,stim_fb/posf.jpg,stim_03/e.jpg,stim_03/f.jpg,2,3,j,0,51,51,50,j,1,1.09967311346,03,03,60.0137129326,PLT_learning_3,B,2014_Mrz_28_1445,P29,
stim_fb/ques.jpg,stim_fb/negf.jpg,stim_fb/posf.jpg,stim_03/f.jpg,stim_03/e.jpg,1,3,f,0,52,52,44,f,1,0.683168719152,03,03,60.0137129326,PLT_learning_3,B,2014_Mrz_28_1445,P29,
stim_fb/ques.jpg,stim_fb/negf.jpg,stim_fb/posf.jpg,stim_03/c.jpg,stim_03/d.jpg,2,2,j,0,53,53,35,j,1,0.83311453179,03,03,60.0137129326,PLT_learning_3,B,2014_Mrz_28_1445,P29,
stim_fb/ques.jpg,stim_fb/negf.jpg,stim_fb/posf.jpg,stim_03/f.jpg,stim_03/e.jpg,1,3,f,0,54,54,43,j,0,0.933075843506,03,03,60.0137129326,PLT_learning_3,B,2014_Mrz_28_1445,P29,
stim_fb/ques.jpg,stim_fb/negf.jpg,stim_fb/posf.jpg,stim_03/e.jpg,stim_03/f.jpg,2,3,j,0,55,55,53,j,1,0.683139850305,03,03,60.0137129326,PLT_learning_3,B,2014_Mrz_28_1445,P29,
stim_fb/ques.jpg,stim_fb/negf.jpg,stim_fb/posf.jpg,stim_03/f.jpg,stim_03/e.jpg,1,3,f,0,56,56,41,f,1,0.683181362616,03,03,60.0137129326,PLT_learning_3,B,2014_Mrz_28_1445,P29,
stim_fb/ques.jpg,stim_fb/negf.jpg,stim_fb/posf.jpg,stim_03/a.jpg,stim_03/b.jpg,2,1,j,0,57,57,14,j,1,0.999734409012,03,03,60.0137129326,PLT_learning_3,B,2014_Mrz_28_1445,P29,
stim_fb/ques.jpg,stim_fb/negf.jpg,stim_fb/posf.jpg,stim_03/c.jpg,stim_03/d.jpg,2,2,j,0,58,58,30,j,1,1.44955398849,03,03,60.0137129326,PLT_learning_3,B,2014_Mrz_28_1445,P29,
stim_fb/ques.jpg,stim_fb/negf.jpg,stim_fb/posf.jpg,stim_03/a.jpg,stim_03/b.jpg,2,1,j,0,59,59,13,j,1,0.666494816978,03,03,60.0137129326,PLT_learning_3,B,2014_Mrz_28_1445,P29,
stim_fb/ques.jpg,stim_fb/negf.jpg,stim_fb/posf.jpg,stim_03/a.jpg,stim_03/b.jpg,2,1,j,1,0,60,11,j,1,1.01641877723,03,03,60.0137129326,PLT_learning_3,B,2014_Mrz_28_1445,P29,
stim_fb/ques.jpg,stim_fb/negf.jpg,stim_fb/posf.jpg,stim_03/c.jpg,stim_03/d.jpg,2,2,j,1,1,61,35,j,1,0.583192836173,03,03,60.0137129326,PLT_learning_3,B,2014_Mrz_28_1445,P29,
stim_fb/ques.jpg,stim_fb/negf.jpg,stim_fb/posf.jpg,stim_03/d.jpg,stim_03/c.jpg,1,2,f,1,2,62,22,j,0,0.483208544265,03,03,60.0137129326,PLT_learning_3,B,2014_Mrz_28_1445,P29,
stim_fb/ques.jpg,stim_fb/posf.jpg,stim_fb/negf.jpg,stim_03/a.jpg,stim_03/b.jpg,2,1,j,1,3,63,18,j,1,0.716481663741,03,03,60.0137129326,PLT_learning_3,B,2014_Mrz_28_1445,P29,
stim_fb/ques.jpg,stim_fb/negf.jpg,stim_fb/posf.jpg,stim_03/d.jpg,stim_03/c.jpg,1,2,f,1,4,64,26,f,1,1.03305970233,03,03,60.0137129326,PLT_learning_3,B,2014_Mrz_28_1445,P29,
stim_fb/ques.jpg,stim_fb/negf.jpg,stim_fb/posf.jpg,stim_03/e.jpg,stim_03/f.jpg,2,3,j,1,5,65,50,j,1,0.749772960458,03,03,60.0137129326,PLT_learning_3,B,2014_Mrz_28_1445,P29,
stim_fb/ques.jpg,stim_fb/negf.jpg,stim_fb/posf.jpg,stim_03/a.jpg,stim_03/b.jpg,2,1,j,1,6,66,13,j,1,0.733143108911,03,03,60.0137129326,PLT_learning_3,B,2014_Mrz_28_1445,P29,
stim_fb/ques.jpg,stim_fb/negf.jpg,stim_fb/posf.jpg,stim_03/a.jpg,stim_03/b.jpg,2,1,j,1,7,67,14,j,1,0.949758677911,03,03,60.0137129326,PLT_learning_3,B,2014_Mrz_28_1445,P29,
stim_fb/ques.jpg,stim_fb/posf.jpg,stim_fb/negf.jpg,stim_03/e.jpg,stim_03/f.jpg,2,3,j,1,8,68,56,j,1,0.566529851167,03,03,60.0137129326,PLT_learning_3,B,2014_Mrz_28_1445,P29,
stim_fb/ques.jpg,stim_fb/negf.jpg,stim_fb/posf.jpg,stim_03/d.jpg,stim_03/c.jpg,1,2,f,1,9,69,24,f,1,0.916662230124,03,03,60.0137129326,PLT_learning_3,B,2014_Mrz_28_1445,P29,
stim_fb/ques.jpg,stim_fb/negf.jpg,stim_fb/posf.jpg,stim_03/e.jpg,stim_03/f.jpg,2,3,j,1,10,70,53,j,1,0.866440814578,03,03,60.0137129326,PLT_learning_3,B,2014_Mrz_28_1445,P29,
stim_fb/ques.jpg,stim_fb/posf.jpg,stim_fb/negf.jpg,stim_03/c.jpg,stim_03/d.jpg,2,2,j,1,11,71,38,j,1,0.949672239789,03,03,60.0137129326,PLT_learning_3,B,2014_Mrz_28_1445,P29,
stim_fb/ques.jpg,stim_fb/negf.jpg,stim_fb/posf.jpg,stim_03/f.jpg,stim_03/e.jpg,1,3,f,1,12,72,45,j,0,0.883073502177,03,03,60.0137129326,PLT_learning_3,B,2014_Mrz_28_1445,P29,
stim_fb/ques.jpg,stim_fb/negf.jpg,stim_fb/posf.jpg,stim_03/c.jpg,stim_03/d.jpg,2,2,j,1,13,73,31,j,1,0.549863178985,03,03,60.0137129326,PLT_learning_3,B,2014_Mrz_28_1445,P29,
stim_fb/ques.jpg,stim_fb/negf.jpg,stim_fb/posf.jpg,stim_03/c.jpg,stim_03/d.jpg,2,2,j,1,14,74,32,j,1,0.56653080153,03,03,60.0137129326,PLT_learning_3,B,2014_Mrz_28_1445,P29,
stim_fb/ques.jpg,stim_fb/posf.jpg,stim_fb/negf.jpg,stim_03/f.jpg,stim_03/e.jpg,1,3,f,1,15,75,46,j,0,0.766453280601,03,03,60.0137129326,PLT_learning_3,B,2014_Mrz_28_1445,P29,
stim_fb/ques.jpg,stim_fb/posf.jpg,stim_fb/negf.jpg,stim_03/b.jpg,stim_03/a.jpg,1,1,f,1,16,76,8,f,1,0.699836690565,03,03,60.0137129326,PLT_learning_3,B,2014_Mrz_28_1445,P29,
stim_fb/ques.jpg,stim_fb/negf.jpg,stim_fb/posf.jpg,stim_03/b.jpg,stim_03/a.jpg,1,1,f,1,17,77,2,j,0,0.249946344964,03,03,60.0137129326,PLT_learning_3,B,2014_Mrz_28_1445,P29,
stim_fb/ques.jpg,stim_fb/posf.jpg,stim_fb/negf.jpg,stim_03/e.jpg,stim_03/f.jpg,2,3,j,1,18,78,57,j,1,0.849835546214,03,03,60.0137129326,PLT_learning_3,B,2014_Mrz_28_1445,P29,
stim_fb/ques.jpg,stim_fb/negf.jpg,stim_fb/posf.jpg,stim_03/b.jpg,stim_03/a.jpg,1,1,f,1,19,79,6,j,0,0.633163135753,03,03,60.0137129326,PLT_learning_3,B,2014_Mrz_28_1445,P29,
stim_fb/ques.jpg,stim_fb/posf.jpg,stim_fb/negf.jpg,stim_03/f.jpg,stim_03/e.jpg,1,3,f,1,20,80,47,f,1,0.983037571754,03,03,60.0137129326,PLT_learning_3,B,2014_Mrz_28_1445,P29,
stim_fb/ques.jpg,stim_fb/negf.jpg,stim_fb/posf.jpg,stim_03/b.jpg,stim_03/a.jpg,1,1,f,1,21,81,3,f,1,0.949725574526,03,03,60.0137129326,PLT_learning_3,B,2014_Mrz_28_1445,P29,
stim_fb/ques.jpg,stim_fb/negf.jpg,stim_fb/posf.jpg,stim_03/b.jpg,stim_03/a.jpg,1,1,f,1,22,82,0,f,1,0.716471913474,03,03,60.0137129326,PLT_learning_3,B,2014_Mrz_28_1445,P29,
stim_fb/ques.jpg,stim_fb/negf.jpg,stim_fb/posf.jpg,stim_03/c.jpg,stim_03/d.jpg,2,2,j,1,23,83,34,j,1,0.833107016086,03,03,60.0137129326,PLT_learning_3,B,2014_Mrz_28_1445,P29,
stim_fb/ques.jpg,stim_fb/posf.jpg,stim_fb/negf.jpg,stim_03/c.jpg,stim_03/d.jpg,2,2,j,1,24,84,39,j,1,0.883080801344,03,03,60.0137129326,PLT_learning_3,B,2014_Mrz_28_1445,P29,
stim_fb/ques.jpg,stim_fb/negf.jpg,stim_fb/posf.jpg,stim_03/a.jpg,stim_03/b.jpg,2,1,j,1,25,85,15,j,1,0.883108094269,03,03,60.0137129326,PLT_learning_3,B,2014_Mrz_28_1445,P29,
stim_fb/ques.jpg,stim_fb/posf.jpg,stim_fb/negf.jpg,stim_03/d.jpg,stim_03/c.jpg,1,2,f,1,26,86,29,f,1,0.683149976503,03,03,60.0137129326,PLT_learning_3,B,2014_Mrz_28_1445,P29,
stim_fb/ques.jpg,stim_fb/posf.jpg,stim_fb/negf.jpg,stim_03/d.jpg,stim_03/c.jpg,1,2,f,1,27,87,28,f,1,0.666459145199,03,03,60.0137129326,PLT_learning_3,B,2014_Mrz_28_1445,P29,
stim_fb/ques.jpg,stim_fb/posf.jpg,stim_fb/negf.jpg,stim_03/e.jpg,stim_03/f.jpg,2,3,j,1,28,88,58,j,1,0.849756268915,03,03,60.0137129326,PLT_learning_3,B,2014_Mrz_28_1445,P29,
stim_fb/ques.jpg,stim_fb/negf.jpg,stim_fb/posf.jpg,stim_03/b.jpg,stim_03/a.jpg,1,1,f,1,29,89,1,j,0,0.716481753967,03,03,60.0137129326,PLT_learning_3,B,2014_Mrz_28_1445,P29,
stim_fb/ques.jpg,stim_fb/negf.jpg,stim_fb/posf.jpg,stim_03/e.jpg,stim_03/f.jpg,2,3,j,1,30,90,52,f,0,1.06635800649,03,03,60.0137129326,PLT_learning_3,B,2014_Mrz_28_1445,P29,
stim_fb/ques.jpg,stim_fb/negf.jpg,stim_fb/posf.jpg,stim_03/b.jpg,stim_03/a.jpg,1,1,f,1,31,91,7,f,1,0.716518318965,03,03,60.0137129326,PLT_learning_3,B,2014_Mrz_28_1445,P29,
stim_fb/ques.jpg,stim_fb/negf.jpg,stim_fb/posf.jpg,stim_03/a.jpg,stim_03/b.jpg,2,1,j,1,32,92,12,j,1,0.599844678443,03,03,60.0137129326,PLT_learning_3,B,2014_Mrz_28_1445,P29,
stim_fb/ques.jpg,stim_fb/posf.jpg,stim_fb/negf.jpg,stim_03/a.jpg,stim_03/b.jpg,2,1,j,1,33,93,19,j,1,0.666471481902,03,03,60.0137129326,PLT_learning_3,B,2014_Mrz_28_1445,P29,
stim_fb/ques.jpg,stim_fb/posf.jpg,stim_fb/negf.jpg,stim_03/f.jpg,stim_03/e.jpg,1,3,f,1,34,94,48,j,0,1.06635662305,03,03,60.0137129326,PLT_learning_3,B,2014_Mrz_28_1445,P29,
stim_fb/ques.jpg,stim_fb/negf.jpg,stim_fb/posf.jpg,stim_03/f.jpg,stim_03/e.jpg,1,3,f,1,35,95,42,j,0,0.666483259211,03,03,60.0137129326,PLT_learning_3,B,2014_Mrz_28_1445,P29,
stim_fb/ques.jpg,stim_fb/posf.jpg,stim_fb/negf.jpg,stim_03/b.jpg,stim_03/a.jpg,1,1,f,1,36,96,9,f,1,0.699713991195,03,03,60.0137129326,PLT_learning_3,B,2014_Mrz_28_1445,P29,
stim_fb/ques.jpg,stim_fb/negf.jpg,stim_fb/posf.jpg,stim_03/f.jpg,stim_03/e.jpg,1,3,f,1,37,97,43,j,0,0.849766061285,03,03,60.0137129326,PLT_learning_3,B,2014_Mrz_28_1445,P29,
stim_fb/ques.jpg,stim_fb/negf.jpg,stim_fb/posf.jpg,stim_03/c.jpg,stim_03/d.jpg,2,2,j,1,38,98,33,j,1,0.699823457628,03,03,60.0137129326,PLT_learning_3,B,2014_Mrz_28_1445,P29,
stim_fb/ques.jpg,stim_fb/negf.jpg,stim_fb/posf.jpg,stim_03/f.jpg,stim_03/e.jpg,1,3,f,1,39,99,44,j,0,0.633156549364,03,03,60.0137129326,PLT_learning_3,B,2014_Mrz_28_1445,P29,
stim_fb/ques.jpg,stim_fb/negf.jpg,stim_fb/posf.jpg,stim_03/e.jpg,stim_03/f.jpg,2,3,j,1,40,100,54,f,0,0.916432506401,03,03,60.0137129326,PLT_learning_3,B,2014_Mrz_28_1445,P29,
stim_fb/ques.jpg,stim_fb/negf.jpg,stim_fb/posf.jpg,stim_03/a.jpg,stim_03/b.jpg,2,1,j,1,41,101,16,j,1,0.666483959954,03,03,60.0137129326,PLT_learning_3,B,2014_Mrz_28_1445,P29,
stim_fb/ques.jpg,stim_fb/negf.jpg,stim_fb/posf.jpg,stim_03/c.jpg,stim_03/d.jpg,2,2,j,1,42,102,30,f,0,0.616584606942,03,03,60.0137129326,PLT_learning_3,B,2014_Mrz_28_1445,P29,
stim_fb/ques.jpg,stim_fb/negf.jpg,stim_fb/posf.jpg,stim_03/a.jpg,stim_03/b.jpg,2,1,j,1,43,103,10,j,1,0.633186949017,03,03,60.0137129326,PLT_learning_3,B,2014_Mrz_28_1445,P29,
stim_fb/ques.jpg,stim_fb/negf.jpg,stim_fb/posf.jpg,stim_03/b.jpg,stim_03/a.jpg,1,1,f,1,44,104,5,f,1,0.649835185319,03,03,60.0137129326,PLT_learning_3,B,2014_Mrz_28_1445,P29,
stim_fb/ques.jpg,stim_fb/negf.jpg,stim_fb/posf.jpg,stim_03/f.jpg,stim_03/e.jpg,1,3,f,1,45,105,40,j,0,0.583213440448,03,03,60.0137129326,PLT_learning_3,B,2014_Mrz_28_1445,P29,
stim_fb/ques.jpg,stim_fb/negf.jpg,stim_fb/posf.jpg,stim_03/e.jpg,stim_03/f.jpg,2,3,j,1,46,106,51,f,0,0.699856994095,03,03,60.0137129326,PLT_learning_3,B,2014_Mrz_28_1445,P29,
stim_fb/ques.jpg,stim_fb/negf.jpg,stim_fb/posf.jpg,stim_03/f.jpg,stim_03/e.jpg,1,3,f,1,47,107,41,j,0,0.54984999718,03,03,60.0137129326,PLT_learning_3,B,2014_Mrz_28_1445,P29,
stim_fb/ques.jpg,stim_fb/posf.jpg,stim_fb/negf.jpg,stim_03/e.jpg,stim_03/f.jpg,2,3,j,1,48,108,59,j,1,0.749805453324,03,03,60.0137129326,PLT_learning_3,B,2014_Mrz_28_1445,P29,
stim_fb/ques.jpg,stim_fb/negf.jpg,stim_fb/posf.jpg,stim_03/e.jpg,stim_03/f.jpg,2,3,j,1,49,109,55,f,0,1.182992264,03,03,60.0137129326,PLT_learning_3,B,2014_Mrz_28_1445,P29,
stim_fb/ques.jpg,stim_fb/negf.jpg,stim_fb/posf.jpg,stim_03/d.jpg,stim_03/c.jpg,1,2,f,1,50,110,23,f,1,0.866420880968,03,03,60.0137129326,PLT_learning_3,B,2014_Mrz_28_1445,P29,
stim_fb/ques.jpg,stim_fb/negf.jpg,stim_fb/posf.jpg,stim_03/b.jpg,stim_03/a.jpg,1,1,f,1,51,111,4,j,0,0.78313424435,03,03,60.0137129326,PLT_learning_3,B,2014_Mrz_28_1445,P29,
stim_fb/ques.jpg,stim_fb/posf.jpg,stim_fb/negf.jpg,stim_03/f.jpg,stim_03/e.jpg,1,3,f,1,52,112,49,j,0,0.933048968622,03,03,60.0137129326,PLT_learning_3,B,2014_Mrz_28_1445,P29,
stim_fb/ques.jpg,stim_fb/negf.jpg,stim_fb/posf.jpg,stim_03/d.jpg,stim_03/c.jpg,1,2,f,1,53,113,20,f,1,0.766461169234,03,03,60.0137129326,PLT_learning_3,B,2014_Mrz_28_1445,P29,
stim_fb/ques.jpg,stim_fb/negf.jpg,stim_fb/posf.jpg,stim_03/d.jpg,stim_03/c.jpg,1,2,f,1,54,114,25,f,1,1.0829871212,03,03,60.0137129326,PLT_learning_3,B,2014_Mrz_28_1445,P29,
stim_fb/ques.jpg,stim_fb/negf.jpg,stim_fb/posf.jpg,stim_03/d.jpg,stim_03/c.jpg,1,2,f,1,55,115,21,j,0,0.799753437368,03,03,60.0137129326,PLT_learning_3,B,2014_Mrz_28_1445,P29,
stim_fb/ques.jpg,stim_fb/negf.jpg,stim_fb/posf.jpg,stim_03/c.jpg,stim_03/d.jpg,2,2,j,1,56,116,36,f,0,0.949718973094,03,03,60.0137129326,PLT_learning_3,B,2014_Mrz_28_1445,P29,
stim_fb/ques.jpg,stim_fb/posf.jpg,stim_fb/negf.jpg,stim_03/c.jpg,stim_03/d.jpg,2,2,j,1,57,117,37,j,1,0.633161207956,03,03,60.0137129326,PLT_learning_3,B,2014_Mrz_28_1445,P29,
stim_fb/ques.jpg,stim_fb/posf.jpg,stim_fb/negf.jpg,stim_03/d.jpg,stim_03/c.jpg,1,2,f,1,58,118,27,f,1,1.03309602974,03,03,60.0137129326,PLT_learning_3,B,2014_Mrz_28_1445,P29,
stim_fb/ques.jpg,stim_fb/negf.jpg,stim_fb/posf.jpg,stim_03/a.jpg,stim_03/b.jpg,2,1,j,1,59,119,17,j,1,0.949724494836,03,03,60.0137129326,PLT_learning_3,B,2014_Mrz_28_1445,P29,
stim_fb/ques.jpg,stim_fb/negf.jpg,stim_fb/posf.jpg,stim_03/d.jpg,stim_03/c.jpg,1,2,f,2,0,120,23,f,1,0.866430456797,03,03,60.0137129326,PLT_learning_3,B,2014_Mrz_28_1445,P29,
stim_fb/ques.jpg,stim_fb/negf.jpg,stim_fb/posf.jpg,stim_03/c.jpg,stim_03/d.jpg,2,2,j,2,1,121,30,j,1,0.583168063516,03,03,60.0137129326,PLT_learning_3,B,2014_Mrz_28_1445,P29,
stim_fb/ques.jpg,stim_fb/negf.jpg,stim_fb/posf.jpg,stim_03/e.jpg,stim_03/f.jpg,2,3,j,2,2,122,53,j,1,0.716489904247,03,03,60.0137129326,PLT_learning_3,B,2014_Mrz_28_1445,P29,
stim_fb/ques.jpg,stim_fb/posf.jpg,stim_fb/negf.jpg,stim_03/d.jpg,stim_03/c.jpg,1,2,f,2,3,123,27,f,1,0.749800872924,03,03,60.0137129326,PLT_learning_3,B,2014_Mrz_28_1445,P29,
stim_fb/ques.jpg,stim_fb/posf.jpg,stim_fb/negf.jpg,stim_03/c.jpg,stim_03/d.jpg,2,2,j,2,4,124,38,j,1,0.933076408914,03,03,60.0137129326,PLT_learning_3,B,2014_Mrz_28_1445,P29,
stim_fb/ques.jpg,stim_fb/negf.jpg,stim_fb/posf.jpg,stim_03/e.jpg,stim_03/f.jpg,2,3,j,2,5,125,50,j,1,0.799763689884,03,03,60.0137129326,PLT_learning_3,B,2014_Mrz_28_1445,P29,
stim_fb/ques.jpg,stim_fb/negf.jpg,stim_fb/posf.jpg,stim_03/c.jpg,stim_03/d.jpg,2,2,j,2,6,126,35,j,1,0.599863496274,03,03,60.0137129326,PLT_learning_3,B,2014_Mrz_28_1445,P29,
stim_fb/ques.jpg,stim_fb/posf.jpg,stim_fb/negf.jpg,stim_03/f.jpg,stim_03/e.jpg,1,3,f,2,7,127,49,f,1,0.84978360996,03,03,60.0137129326,PLT_learning_3,B,2014_Mrz_28_1445,P29,
stim_fb/ques.jpg,stim_fb/negf.jpg,stim_fb/posf.jpg,stim_03/e.jpg,stim_03/f.jpg,2,3,j,2,8,128,52,f,0,0.516541966819,03,03,60.0137129326,PLT_learning_3,B,2014_Mrz_28_1445,P29,
stim_fb/ques.jpg,stim_fb/posf.jpg,stim_fb/negf.jpg,stim_03/f.jpg,stim_03/e.jpg,1,3,f,2,9,129,46,f,1,1.06633991647,03,03,60.0137129326,PLT_learning_3,B,2014_Mrz_28_1445,P29,
stim_fb/ques.jpg,stim_fb/negf.jpg,stim_fb/posf.jpg,stim_03/d.jpg,stim_03/c.jpg,1,2,f,2,10,130,24,f,1,0.799931312053,03,03,60.0137129326,PLT_learning_3,B,2014_Mrz_28_1445,P29,
stim_fb/ques.jpg,stim_fb/negf.jpg,stim_fb/posf.jpg,stim_03/d.jpg,stim_03/c.jpg,1,2,f,2,11,131,25,f,1,1.06635039154,03,03,60.0137129326,PLT_learning_3,B,2014_Mrz_28_1445,P29,
stim_fb/ques.jpg,stim_fb/negf.jpg,stim_fb/posf.jpg,stim_03/b.jpg,stim_03/a.jpg,1,1,f,2,12,132,7,f,1,0.883105631139,03,03,60.0137129326,PLT_learning_3,B,2014_Mrz_28_1445,P29,
stim_fb/ques.jpg,stim_fb/posf.jpg,stim_fb/negf.jpg,stim_03/e.jpg,stim_03/f.jpg,2,3,j,2,13,133,58,j,1,1.2662981425,03,03,60.0137129326,PLT_learning_3,B,2014_Mrz_28_1445,P29,
stim_fb/ques.jpg,stim_fb/negf.jpg,stim_fb/posf.jpg,stim_03/e.jpg,stim_03/f.jpg,2,3,j,2,14,134,55,j,1,1.06635678545,03,03,60.0137129326,PLT_learning_3,B,2014_Mrz_28_1445,P29,
stim_fb/ques.jpg,stim_fb/negf.jpg,stim_fb/posf.jpg,stim_03/b.jpg,stim_03/a.jpg,1,1,f,2,15,135,3,f,1,1.08298426409,03,03,60.0137129326,PLT_learning_3,B,2014_Mrz_28_1445,P29,
stim_fb/ques.jpg,stim_fb/negf.jpg,stim_fb/posf.jpg,stim_03/a.jpg,stim_03/b.jpg,2,1,j,2,16,136,14,j,1,1.21632101894,03,03,60.0137129326,PLT_learning_3,B,2014_Mrz_28_1445,P29,
stim_fb/ques.jpg,stim_fb/posf.jpg,stim_fb/negf.jpg,stim_03/a.jpg,stim_03/b.jpg,2,1,j,2,17,137,19,j,1,0.833107846152,03,03,60.0137129326,PLT_learning_3,B,2014_Mrz_28_1445,P29,
stim_fb/ques.jpg,stim_fb/negf.jpg,stim_fb/posf.jpg,stim_03/d.jpg,stim_03/c.jpg,1,2,f,2,18,138,26,f,1,1.16634946523,03,03,60.0137129326,PLT_learning_3,B,2014_Mrz_28_1445,P29,
stim_fb/ques.jpg,stim_fb/negf.jpg,stim_fb/posf.jpg,stim_03/b.jpg,stim_03/a.jpg,1,1,f,2,19,139,6,f,1,1.19964389274,03,03,60.0137129326,PLT_learning_3,B,2014_Mrz_28_1445,P29,
stim_fb/ques.jpg,stim_fb/negf.jpg,stim_fb/posf.jpg,stim_03/d.jpg,stim_03/c.jpg,1,2,f,2,20,140,21,f,1,1.31625525426,03,03,60.0137129326,PLT_learning_3,B,2014_Mrz_28_1445,P29,
stim_fb/ques.jpg,stim_fb/negf.jpg,stim_fb/posf.jpg,stim_03/e.jpg,stim_03/f.jpg,2,3,j,2,21,141,54,f,0,1.28297799649,03,03,60.0137129326,PLT_learning_3,B,2014_Mrz_28_1445,P29,
stim_fb/ques.jpg,stim_fb/negf.jpg,stim_fb/posf.jpg,stim_03/f.jpg,stim_03/e.jpg,1,3,f,2,22,142,43,j,0,1.133008942,03,03,60.0137129326,PLT_learning_3,B,2014_Mrz_28_1445,P29,
stim_fb/ques.jpg,stim_fb/posf.jpg,stim_fb/negf.jpg,stim_03/d.jpg,stim_03/c.jpg,1,2,f,2,23,143,29,f,1,0.899790294094,03,03,60.0137129326,PLT_learning_3,B,2014_Mrz_28_1445,P29,
stim_fb/ques.jpg,stim_fb/posf.jpg,stim_fb/negf.jpg,stim_03/c.jpg,stim_03/d.jpg,2,2,j,2,24,144,39,j,1,0.633166690601,03,03,60.0137129326,PLT_learning_3,B,2014_Mrz_28_1445,P29,
stim_fb/ques.jpg,stim_fb/negf.jpg,stim_fb/posf.jpg,stim_03/f.jpg,stim_03/e.jpg,1,3,f,2,25,145,42,f,1,0.349926462481,03,03,60.0137129326,PLT_learning_3,B,2014_Mrz_28_1445,P29,
stim_fb/ques.jpg,stim_fb/negf.jpg,stim_fb/posf.jpg,stim_03/c.jpg,stim_03/d.jpg,2,2,j,2,26,146,31,f,0,0.4498963726,03,03,60.0137129326,PLT_learning_3,B,2014_Mrz_28_1445,P29,
stim_fb/ques.jpg,stim_fb/posf.jpg,stim_fb/negf.jpg,stim_03/d.jpg,stim_03/c.jpg,1,2,f,2,27,147,28,f,1,0.666491220025,03,03,60.0137129326,PLT_learning_3,B,2014_Mrz_28_1445,P29,
stim_fb/ques.jpg,stim_fb/negf.jpg,stim_fb/posf.jpg,stim_03/a.jpg,stim_03/b.jpg,2,1,j,2,28,148,17,j,1,0.666452402416,03,03,60.0137129326,PLT_learning_3,B,2014_Mrz_28_1445,P29,
stim_fb/ques.jpg,stim_fb/posf.jpg,stim_fb/negf.jpg,stim_03/e.jpg,stim_03/f.jpg,2,3,j,2,29,149,56,j,1,0.999736511239,03,03,60.0137129326,PLT_learning_3,B,2014_Mrz_28_1445,P29,
stim_fb/ques.jpg,stim_fb/negf.jpg,stim_fb/posf.jpg,stim_03/a.jpg,stim_03/b.jpg,2,1,j,2,30,150,12,j,1,0.899745401366,03,03,60.0137129326,PLT_learning_3,B,2014_Mrz_28_1445,P29,
stim_fb/ques.jpg,stim_fb/negf.jpg,stim_fb/posf.jpg,stim_03/e.jpg,stim_03/f.jpg,2,3,j,2,31,151,51,f,0,0.59989542975,03,03,60.0137129326,PLT_learning_3,B,2014_Mrz_28_1445,P29,
stim_fb/ques.jpg,stim_fb/negf.jpg,stim_fb/posf.jpg,stim_03/f.jpg,stim_03/e.jpg,1,3,f,2,32,152,44,j,0,0.799829253054,03,03,60.0137129326,PLT_learning_3,B,2014_Mrz_28_1445,P29,
stim_fb/ques.jpg,stim_fb/posf.jpg,stim_fb/negf.jpg,stim_03/f.jpg,stim_03/e.jpg,1,3,f,2,33,153,48,f,1,0.949749685533,03,03,60.0137129326,PLT_learning_3,B,2014_Mrz_28_1445,P29,
stim_fb/ques.jpg,stim_fb/posf.jpg,stim_fb/negf.jpg,stim_03/b.jpg,stim_03/a.jpg,1,1,f,2,34,154,9,f,1,0.633223309513,03,03,60.0137129326,PLT_learning_3,B,2014_Mrz_28_1445,P29,
stim_fb/ques.jpg,stim_fb/negf.jpg,stim_fb/posf.jpg,stim_03/c.jpg,stim_03/d.jpg,2,2,j,2,35,155,33,j,1,0.933077097627,03,03,60.0137129326,PLT_learning_3,B,2014_Mrz_28_1445,P29,
stim_fb/ques.jpg,stim_fb/negf.jpg,stim_fb/posf.jpg,stim_03/a.jpg,stim_03/b.jpg,2,1,j,2,36,156,10,j,1,0.749792551211,03,03,60.0137129326,PLT_learning_3,B,2014_Mrz_28_1445,P29,
stim_fb/ques.jpg,stim_fb/posf.jpg,stim_fb/negf.jpg,stim_03/e.jpg,stim_03/f.jpg,2,3,j,2,37,157,57,f,0,0.716532514296,03,03,60.0137129326,PLT_learning_3,B,2014_Mrz_28_1445,P29,
stim_fb/ques.jpg,stim_fb/negf.jpg,stim_fb/posf.jpg,stim_03/b.jpg,stim_03/a.jpg,1,1,f,2,38,158,1,f,1,0.799775912303,03,03,60.0137129326,PLT_learning_3,B,2014_Mrz_28_1445,P29,
stim_fb/ques.jpg,stim_fb/posf.jpg,stim_fb/negf.jpg,stim_03/a.jpg,stim_03/b.jpg,2,1,j,2,39,159,18,j,1,1.13301060514,03,03,60.0137129326,PLT_learning_3,B,2014_Mrz_28_1445,P29,
stim_fb/ques.jpg,stim_fb/negf.jpg,stim_fb/posf.jpg,stim_03/c.jpg,stim_03/d.jpg,2,2,j,2,40,160,32,j,1,1.08301701861,03,03,60.0137129326,PLT_learning_3,B,2014_Mrz_28_1445,P29,
stim_fb/ques.jpg,stim_fb/posf.jpg,stim_fb/negf.jpg,stim_03/e.jpg,stim_03/f.jpg,2,3,j,2,41,161,59,f,0,0.866412658503,03,03,60.0137129326,PLT_learning_3,B,2014_Mrz_28_1445,P29,
stim_fb/ques.jpg,stim_fb/negf.jpg,stim_fb/posf.jpg,stim_03/a.jpg,stim_03/b.jpg,2,1,j,2,42,162,11,j,1,0.616460473004,03,03,60.0137129326,PLT_learning_3,B,2014_Mrz_28_1445,P29,
stim_fb/ques.jpg,stim_fb/negf.jpg,stim_fb/posf.jpg,stim_03/c.jpg,stim_03/d.jpg,2,2,j,2,43,163,34,j,1,0.633152203547,03,03,60.0137129326,PLT_learning_3,B,2014_Mrz_28_1445,P29,
stim_fb/ques.jpg,stim_fb/negf.jpg,stim_fb/posf.jpg,stim_03/c.jpg,stim_03/d.jpg,2,2,j,2,44,164,36,j,1,1.16617498299,03,03,60.0137129326,PLT_learning_3,B,2014_Mrz_28_1445,P29,
stim_fb/ques.jpg,stim_fb/posf.jpg,stim_fb/negf.jpg,stim_03/b.jpg,stim_03/a.jpg,1,1,f,2,45,165,8,f,1,0.683273764582,03,03,60.0137129326,PLT_learning_3,B,2014_Mrz_28_1445,P29,
stim_fb/ques.jpg,stim_fb/negf.jpg,stim_fb/posf.jpg,stim_03/f.jpg,stim_03/e.jpg,1,3,f,2,46,166,40,j,0,0.733153758414,03,03,60.0137129326,PLT_learning_3,B,2014_Mrz_28_1445,P29,
stim_fb/ques.jpg,stim_fb/negf.jpg,stim_fb/posf.jpg,stim_03/a.jpg,stim_03/b.jpg,2,1,j,2,47,167,16,j,1,0.749792355728,03,03,60.0137129326,PLT_learning_3,B,2014_Mrz_28_1445,P29,
stim_fb/ques.jpg,stim_fb/posf.jpg,stim_fb/negf.jpg,stim_03/f.jpg,stim_03/e.jpg,1,3,f,2,48,168,47,j,0,0.699804342057,03,03,60.0137129326,PLT_learning_3,B,2014_Mrz_28_1445,P29,
stim_fb/ques.jpg,stim_fb/negf.jpg,stim_fb/posf.jpg,stim_03/d.jpg,stim_03/c.jpg,1,2,f,2,49,169,22,f,1,0.716477597623,03,03,60.0137129326,PLT_learning_3,B,2014_Mrz_28_1445,P29,
stim_fb/ques.jpg,stim_fb/negf.jpg,stim_fb/posf.jpg,stim_03/f.jpg,stim_03/e.jpg,1,3,f,2,50,170,41,j,0,0.599855153512,03,03,60.0137129326,PLT_learning_3,B,2014_Mrz_28_1445,P29,
stim_fb/ques.jpg,stim_fb/negf.jpg,stim_fb/posf.jpg,stim_03/b.jpg,stim_03/a.jpg,1,1,f,2,51,171,2,f,1,0.599785361821,03,03,60.0137129326,PLT_learning_3,B,2014_Mrz_28_1445,P29,
stim_fb/ques.jpg,stim_fb/negf.jpg,stim_fb/posf.jpg,stim_03/a.jpg,stim_03/b.jpg,2,1,j,2,52,172,15,j,1,0.649841970204,03,03,60.0137129326,PLT_learning_3,B,2014_Mrz_28_1445,P29,
stim_fb/ques.jpg,stim_fb/negf.jpg,stim_fb/posf.jpg,stim_03/b.jpg,stim_03/a.jpg,1,1,f,2,53,173,5,f,1,0.699770901829,03,03,60.0137129326,PLT_learning_3,B,2014_Mrz_28_1445,P29,
stim_fb/ques.jpg,stim_fb/negf.jpg,stim_fb/posf.jpg,stim_03/f.jpg,stim_03/e.jpg,1,3,f,2,54,174,45,j,0,0.699816600565,03,03,60.0137129326,PLT_learning_3,B,2014_Mrz_28_1445,P29,
stim_fb/ques.jpg,stim_fb/posf.jpg,stim_fb/negf.jpg,stim_03/c.jpg,stim_03/d.jpg,2,2,j,2,55,175,37,j,1,0.84976728533,03,03,60.0137129326,PLT_learning_3,B,2014_Mrz_28_1445,P29,
stim_fb/ques.jpg,stim_fb/negf.jpg,stim_fb/posf.jpg,stim_03/b.jpg,stim_03/a.jpg,1,1,f,2,56,176,0,f,1,0.666498795879,03,03,60.0137129326,PLT_learning_3,B,2014_Mrz_28_1445,P29,
stim_fb/ques.jpg,stim_fb/negf.jpg,stim_fb/posf.jpg,stim_03/b.jpg,stim_03/a.jpg,1,1,f,2,57,177,4,f,1,0.849770019133,03,03,60.0137129326,PLT_learning_3,B,2014_Mrz_28_1445,P29,
stim_fb/ques.jpg,stim_fb/negf.jpg,stim_fb/posf.jpg,stim_03/d.jpg,stim_03/c.jpg,1,2,f,2,58,178,20,j,0,0.749797435368,03,03,60.0137129326,PLT_learning_3,B,2014_Mrz_28_1445,P29,
stim_fb/ques.jpg,stim_fb/negf.jpg,stim_fb/posf.jpg,stim_03/a.jpg,stim_03/b.jpg,2,1,j,2,59,179,13,j,1,0.633159965866,03,03,60.0137129326,PLT_learning_3,B,2014_Mrz_28_1445,P29,
stim_fb/ques.jpg,stim_fb/negf.jpg,stim_fb/posf.jpg,stim_03/a.jpg,stim_03/b.jpg,2,1,j,3,0,180,16,j,1,0.699821641108,03,03,60.0137129326,PLT_learning_3,B,2014_Mrz_28_1445,P29,
stim_fb/ques.jpg,stim_fb/posf.jpg,stim_fb/negf.jpg,stim_03/f.jpg,stim_03/e.jpg,1,3,f,3,1,181,49,j,0,0.749806996162,03,03,60.0137129326,PLT_learning_3,B,2014_Mrz_28_1445,P29,
stim_fb/ques.jpg,stim_fb/posf.jpg,stim_fb/negf.jpg,stim_03/e.jpg,stim_03/f.jpg,2,3,j,3,2,182,59,f,0,0.683092124527,03,03,60.0137129326,PLT_learning_3,B,2014_Mrz_28_1445,P29,
stim_fb/ques.jpg,stim_fb/negf.jpg,stim_fb/posf.jpg,stim_03/a.jpg,stim_03/b.jpg,2,1,j,3,3,183,13,j,1,0.583195443662,03,03,60.0137129326,PLT_learning_3,B,2014_Mrz_28_1445,P29,
stim_fb/ques.jpg,stim_fb/negf.jpg,stim_fb/posf.jpg,stim_03/f.jpg,stim_03/e.jpg,1,3,f,3,4,184,45,j,0,0.549842719065,03,03,60.0137129326,PLT_learning_3,B,2014_Mrz_28_1445,P29,
stim_fb/ques.jpg,stim_fb/negf.jpg,stim_fb/posf.jpg,stim_03/d.jpg,stim_03/c.jpg,1,2,f,3,5,185,24,f,1,0.833114543821,03,03,60.0137129326,PLT_learning_3,B,2014_Mrz_28_1445,P29,
stim_fb/ques.jpg,stim_fb/negf.jpg,stim_fb/posf.jpg,stim_03/a.jpg,stim_03/b.jpg,2,1,j,3,6,186,10,j,1,0.866429795155,03,03,60.0137129326,PLT_learning_3,B,2014_Mrz_28_1445,P29,
stim_fb/ques.jpg,stim_fb/negf.jpg,stim_fb/posf.jpg,stim_03/f.jpg,stim_03/e.jpg,1,3,f,3,7,187,44,f,1,1.31625584674,03,03,60.0137129326,PLT_learning_3,B,2014_Mrz_28_1445,P29,
stim_fb/ques.jpg,stim_fb/posf.jpg,stim_fb/negf.jpg,stim_03/e.jpg,stim_03/f.jpg,2,3,j,3,8,188,57,f,0,1.33294379086,03,03,60.0137129326,PLT_learning_3,B,2014_Mrz_28_1445,P29,
stim_fb/ques.jpg,stim_fb/negf.jpg,stim_fb/posf.jpg,stim_03/d.jpg,stim_03/c.jpg,1,2,f,3,9,189,20,f,1,0.999710240863,03,03,60.0137129326,PLT_learning_3,B,2014_Mrz_28_1445,P29,
stim_fb/ques.jpg,stim_fb/negf.jpg,stim_fb/posf.jpg,stim_03/c.jpg,stim_03/d.jpg,2,2,j,3,10,190,31,j,1,0.883071571374,03,03,60.0137129326,PLT_learning_3,B,2014_Mrz_28_1445,P29,
stim_fb/ques.jpg,stim_fb/negf.jpg,stim_fb/posf.jpg,stim_03/d.jpg,stim_03/c.jpg,1,2,f,3,11,191,21,f,1,0.899740213456,03,03,60.0137129326,PLT_learning_3,B,2014_Mrz_28_1445,P29,
stim_fb/ques.jpg,stim_fb/negf.jpg,stim_fb/posf.jpg,stim_03/d.jpg,stim_03/c.jpg,1,2,f,3,12,192,26,f,1,1.03304867389,03,03,60.0137129326,PLT_learning_3,B,2014_Mrz_28_1445,P29,
stim_fb/ques.jpg,stim_fb/posf.jpg,stim_fb/negf.jpg,stim_03/c.jpg,stim_03/d.jpg,2,2,j,3,13,193,38,j,1,0.599863024101,03,03,60.0137129326,PLT_learning_3,B,2014_Mrz_28_1445,P29,
stim_fb/ques.jpg,stim_fb/posf.jpg,stim_fb/negf.jpg,stim_03/d.jpg,stim_03/c.jpg,1,2,f,3,14,194,28,f,1,0.816468743586,03,03,60.0137129326,PLT_learning_3,B,2014_Mrz_28_1445,P29,
stim_fb/ques.jpg,stim_fb/negf.jpg,stim_fb/posf.jpg,stim_03/d.jpg,stim_03/c.jpg,1,2,f,3,15,195,25,None,0,,03,03,60.0137129326,PLT_learning_3,B,2014_Mrz_28_1445,P29,
stim_fb/ques.jpg,stim_fb/negf.jpg,stim_fb/posf.jpg,stim_03/e.jpg,stim_03/f.jpg,2,3,j,3,16,196,51,f,0,0.949747923147,03,03,60.0137129326,PLT_learning_3,B,2014_Mrz_28_1445,P29,
stim_fb/ques.jpg,stim_fb/negf.jpg,stim_fb/posf.jpg,stim_03/e.jpg,stim_03/f.jpg,2,3,j,3,17,197,50,j,1,0.933109280722,03,03,60.0137129326,PLT_learning_3,B,2014_Mrz_28_1445,P29,
stim_fb/ques.jpg,stim_fb/negf.jpg,stim_fb/posf.jpg,stim_03/b.jpg,stim_03/a.jpg,1,1,f,3,18,198,4,f,1,0.933101061266,03,03,60.0137129326,PLT_learning_3,B,2014_Mrz_28_1445,P29,
stim_fb/ques.jpg,stim_fb/negf.jpg,stim_fb/posf.jpg,stim_03/d.jpg,stim_03/c.jpg,1,2,f,3,19,199,22,j,0,0.833103383044,03,03,60.0137129326,PLT_learning_3,B,2014_Mrz_28_1445,P29,
stim_fb/ques.jpg,stim_fb/negf.jpg,stim_fb/posf.jpg,stim_03/f.jpg,stim_03/e.jpg,1,3,f,3,20,200,40,j,0,0.849732052648,03,03,60.0137129326,PLT_learning_3,B,2014_Mrz_28_1445,P29,
stim_fb/ques.jpg,stim_fb/negf.jpg,stim_fb/posf.jpg,stim_03/c.jpg,stim_03/d.jpg,2,2,j,3,21,201,33,j,1,0.949729054184,03,03,60.0137129326,PLT_learning_3,B,2014_Mrz_28_1445,P29,
stim_fb/ques.jpg,stim_fb/negf.jpg,stim_fb/posf.jpg,stim_03/e.jpg,stim_03/f.jpg,2,3,j,3,22,202,52,f,0,1.09966047902,03,03,60.0137129326,PLT_learning_3,B,2014_Mrz_28_1445,P29,
stim_fb/ques.jpg,stim_fb/negf.jpg,stim_fb/posf.jpg,stim_03/c.jpg,stim_03/d.jpg,2,2,j,3,23,203,36,j,1,0.616544469049,03,03,60.0137129326,PLT_learning_3,B,2014_Mrz_28_1445,P29,
stim_fb/ques.jpg,stim_fb/negf.jpg,stim_fb/posf.jpg,stim_03/e.jpg,stim_03/f.jpg,2,3,j,3,24,204,55,f,0,0.583188427201,03,03,60.0137129326,PLT_learning_3,B,2014_Mrz_28_1445,P29,
stim_fb/ques.jpg,stim_fb/posf.jpg,stim_fb/negf.jpg,stim_03/f.jpg,stim_03/e.jpg,1,3,f,3,25,205,48,j,0,0.649830610932,03,03,60.0137129326,PLT_learning_3,B,2014_Mrz_28_1445,P29,
stim_fb/ques.jpg,stim_fb/negf.jpg,stim_fb/posf.jpg,stim_03/e.jpg,stim_03/f.jpg,2,3,j,3,26,206,54,j,1,0.483224306492,03,03,60.0137129326,PLT_learning_3,B,2014_Mrz_28_1445,P29,
stim_fb/ques.jpg,stim_fb/negf.jpg,stim_fb/posf.jpg,stim_03/c.jpg,stim_03/d.jpg,2,2,j,3,27,207,30,j,1,0.583174111573,03,03,60.0137129326,PLT_learning_3,B,2014_Mrz_28_1445,P29,
stim_fb/ques.jpg,stim_fb/negf.jpg,stim_fb/posf.jpg,stim_03/f.jpg,stim_03/e.jpg,1,3,f,3,28,208,42,f,1,0.866447572396,03,03,60.0137129326,PLT_learning_3,B,2014_Mrz_28_1445,P29,
stim_fb/ques.jpg,stim_fb/negf.jpg,stim_fb/posf.jpg,stim_03/b.jpg,stim_03/a.jpg,1,1,f,3,29,209,7,f,1,0.799746841953,03,03,60.0137129326,PLT_learning_3,B,2014_Mrz_28_1445,P29,
stim_fb/ques.jpg,stim_fb/negf.jpg,stim_fb/posf.jpg,stim_03/c.jpg,stim_03/d.jpg,2,2,j,3,30,210,34,j,1,0.749874739759,03,03,60.0137129326,PLT_learning_3,B,2014_Mrz_28_1445,P29,
stim_fb/ques.jpg,stim_fb/negf.jpg,stim_fb/posf.jpg,stim_03/c.jpg,stim_03/d.jpg,2,2,j,3,31,211,35,j,1,0.566479496847,03,03,60.0137129326,PLT_learning_3,B,2014_Mrz_28_1445,P29,
stim_fb/ques.jpg,stim_fb/posf.jpg,stim_fb/negf.jpg,stim_03/a.jpg,stim_03/b.jpg,2,1,j,3,32,212,19,j,1,0.716454530211,03,03,60.0137129326,PLT_learning_3,B,2014_Mrz_28_1445,P29,
stim_fb/ques.jpg,stim_fb/negf.jpg,stim_fb/posf.jpg,stim_03/a.jpg,stim_03/b.jpg,2,1,j,3,33,213,11,j,1,0.666488335846,03,03,60.0137129326,PLT_learning_3,B,2014_Mrz_28_1445,P29,
stim_fb/ques.jpg,stim_fb/posf.jpg,stim_fb/negf.jpg,stim_03/f.jpg,stim_03/e.jpg,1,3,f,3,34,214,46,f,1,0.866437620629,03,03,60.0137129326,PLT_learning_3,B,2014_Mrz_28_1445,P29,
stim_fb/ques.jpg,stim_fb/posf.jpg,stim_fb/negf.jpg,stim_03/d.jpg,stim_03/c.jpg,1,2,f,3,35,215,27,f,1,0.749800262402,03,03,60.0137129326,PLT_learning_3,B,2014_Mrz_28_1445,P29,
stim_fb/ques.jpg,stim_fb/posf.jpg,stim_fb/negf.jpg,stim_03/f.jpg,stim_03/e.jpg,1,3,f,3,36,216,47,f,1,0.683105700311,03,03,60.0137129326,PLT_learning_3,B,2014_Mrz_28_1445,P29,
stim_fb/ques.jpg,stim_fb/negf.jpg,stim_fb/posf.jpg,stim_03/a.jpg,stim_03/b.jpg,2,1,j,3,37,217,15,j,1,0.66653025417,03,03,60.0137129326,PLT_learning_3,B,2014_Mrz_28_1445,P29,
stim_fb/ques.jpg,stim_fb/posf.jpg,stim_fb/negf.jpg,stim_03/c.jpg,stim_03/d.jpg,2,2,j,3,38,218,37,j,1,0.683159804965,03,03,60.0137129326,PLT_learning_3,B,2014_Mrz_28_1445,P29,
stim_fb/ques.jpg,stim_fb/negf.jpg,stim_fb/posf.jpg,stim_03/b.jpg,stim_03/a.jpg,1,1,f,3,39,219,3,f,1,0.566526527895,03,03,60.0137129326,PLT_learning_3,B,2014_Mrz_28_1445,P29,
stim_fb/ques.jpg,stim_fb/posf.jpg,stim_fb/negf.jpg,stim_03/c.jpg,stim_03/d.jpg,2,2,j,3,40,220,39,j,1,0.583180481422,03,03,60.0137129326,PLT_learning_3,B,2014_Mrz_28_1445,P29,
stim_fb/ques.jpg,stim_fb/negf.jpg,stim_fb/posf.jpg,stim_03/b.jpg,stim_03/a.jpg,1,1,f,3,41,221,1,f,1,0.616525148962,03,03,60.0137129326,PLT_learning_3,B,2014_Mrz_28_1445,P29,
stim_fb/ques.jpg,stim_fb/negf.jpg,stim_fb/posf.jpg,stim_03/c.jpg,stim_03/d.jpg,2,2,j,3,42,222,32,j,1,0.533178016787,03,03,60.0137129326,PLT_learning_3,B,2014_Mrz_28_1445,P29,
stim_fb/ques.jpg,stim_fb/posf.jpg,stim_fb/negf.jpg,stim_03/e.jpg,stim_03/f.jpg,2,3,j,3,43,223,58,j,1,1.26628292463,03,03,60.0137129326,PLT_learning_3,B,2014_Mrz_28_1445,P29,
stim_fb/ques.jpg,stim_fb/negf.jpg,stim_fb/posf.jpg,stim_03/a.jpg,stim_03/b.jpg,2,1,j,3,44,224,12,j,1,0.883090274921,03,03,60.0137129326,PLT_learning_3,B,2014_Mrz_28_1445,P29,
stim_fb/ques.jpg,stim_fb/negf.jpg,stim_fb/posf.jpg,stim_03/a.jpg,stim_03/b.jpg,2,1,j,3,45,225,14,j,1,0.733121761787,03,03,60.0137129326,PLT_learning_3,B,2014_Mrz_28_1445,P29,
stim_fb/ques.jpg,stim_fb/negf.jpg,stim_fb/posf.jpg,stim_03/d.jpg,stim_03/c.jpg,1,2,f,3,46,226,23,f,1,0.883088001265,03,03,60.0137129326,PLT_learning_3,B,2014_Mrz_28_1445,P29,
stim_fb/ques.jpg,stim_fb/negf.jpg,stim_fb/posf.jpg,stim_03/b.jpg,stim_03/a.jpg,1,1,f,3,47,227,0,f,1,0.816429089897,03,03,60.0137129326,PLT_learning_3,B,2014_Mrz_28_1445,P29,
stim_fb/ques.jpg,stim_fb/posf.jpg,stim_fb/negf.jpg,stim_03/e.jpg,stim_03/f.jpg,2,3,j,3,48,228,56,j,1,0.832971330397,03,03,60.0137129326,PLT_learning_3,B,2014_Mrz_28_1445,P29,
stim_fb/ques.jpg,stim_fb/negf.jpg,stim_fb/posf.jpg,stim_03/b.jpg,stim_03/a.jpg,1,1,f,3,49,229,6,f,1,0.499877288599,03,03,60.0137129326,PLT_learning_3,B,2014_Mrz_28_1445,P29,
stim_fb/ques.jpg,stim_fb/posf.jpg,stim_fb/negf.jpg,stim_03/b.jpg,stim_03/a.jpg,1,1,f,3,50,230,8,f,1,0.649848340057,03,03,60.0137129326,PLT_learning_3,B,2014_Mrz_28_1445,P29,
stim_fb/ques.jpg,stim_fb/posf.jpg,stim_fb/negf.jpg,stim_03/b.jpg,stim_03/a.jpg,1,1,f,3,51,231,9,f,1,0.649798635353,03,03,60.0137129326,PLT_learning_3,B,2014_Mrz_28_1445,P29,
stim_fb/ques.jpg,stim_fb/posf.jpg,stim_fb/negf.jpg,stim_03/a.jpg,stim_03/b.jpg,2,1,j,3,52,232,18,j,1,0.866421112543,03,03,60.0137129326,PLT_learning_3,B,2014_Mrz_28_1445,P29,
stim_fb/ques.jpg,stim_fb/posf.jpg,stim_fb/negf.jpg,stim_03/d.jpg,stim_03/c.jpg,1,2,f,3,53,233,29,f,1,0.733089097492,03,03,60.0137129326,PLT_learning_3,B,2014_Mrz_28_1445,P29,
stim_fb/ques.jpg,stim_fb/negf.jpg,stim_fb/posf.jpg,stim_03/f.jpg,stim_03/e.jpg,1,3,f,3,54,234,41,j,0,0.799787455027,03,03,60.0137129326,PLT_learning_3,B,2014_Mrz_28_1445,P29,
stim_fb/ques.jpg,stim_fb/negf.jpg,stim_fb/posf.jpg,stim_03/a.jpg,stim_03/b.jpg,2,1,j,3,55,235,17,j,1,0.766467493977,03,03,60.0137129326,PLT_learning_3,B,2014_Mrz_28_1445,P29,
stim_fb/ques.jpg,stim_fb/negf.jpg,stim_fb/posf.jpg,stim_03/f.jpg,stim_03/e.jpg,1,3,f,3,56,236,43,j,0,0.93305628583,03,03,60.0137129326,PLT_learning_3,B,2014_Mrz_28_1445,P29,
stim_fb/ques.jpg,stim_fb/negf.jpg,stim_fb/posf.jpg,stim_03/b.jpg,stim_03/a.jpg,1,1,f,3,57,237,2,f,1,0.766475373588,03,03,60.0137129326,PLT_learning_3,B,2014_Mrz_28_1445,P29,
stim_fb/ques.jpg,stim_fb/negf.jpg,stim_fb/posf.jpg,stim_03/e.jpg,stim_03/f.jpg,2,3,j,3,58,238,53,j,1,1.14967311797,03,03,60.0137129326,PLT_learning_3,B,2014_Mrz_28_1445,P29,
stim_fb/ques.jpg,stim_fb/negf.jpg,stim_fb/posf.jpg,stim_03/b.jpg,stim_03/a.jpg,1,1,f,3,59,239,5,f,1,0.68316548911,03,03,60.0137129326,PLT_learning_3,B,2014_Mrz_28_1445,P29,
stim_fb/ques.jpg,stim_fb/negf.jpg,stim_fb/posf.jpg,stim_03/f.jpg,stim_03/e.jpg,1,3,f,4,0,240,44,j,0,1.46622673579,03,03,60.0137129326,PLT_learning_3,B,2014_Mrz_28_1445,P29,
stim_fb/ques.jpg,stim_fb/negf.jpg,stim_fb/posf.jpg,stim_03/f.jpg,stim_03/e.jpg,1,3,f,4,1,241,42,f,1,1.14967476006,03,03,60.0137129326,PLT_learning_3,B,2014_Mrz_28_1445,P29,
stim_fb/ques.jpg,stim_fb/posf.jpg,stim_fb/negf.jpg,stim_03/b.jpg,stim_03/a.jpg,1,1,f,4,2,242,8,f,1,0.716460891043,03,03,60.0137129326,PLT_learning_3,B,2014_Mrz_28_1445,P29,
stim_fb/ques.jpg,stim_fb/negf.jpg,stim_fb/posf.jpg,stim_03/c.jpg,stim_03/d.jpg,2,2,j,4,3,243,31,j,1,0.633184804683,03,03,60.0137129326,PLT_learning_3,B,2014_Mrz_28_1445,P29,
stim_fb/ques.jpg,stim_fb/negf.jpg,stim_fb/posf.jpg,stim_03/e.jpg,stim_03/f.jpg,2,3,j,4,4,244,50,j,1,0.766473220225,03,03,60.0137129326,PLT_learning_3,B,2014_Mrz_28_1445,P29,
stim_fb/ques.jpg,stim_fb/negf.jpg,stim_fb/posf.jpg,stim_03/c.jpg,stim_03/d.jpg,2,2,j,4,5,245,33,f,0,0.499937826266,03,03,60.0137129326,PLT_learning_3,B,2014_Mrz_28_1445,P29,
stim_fb/ques.jpg,stim_fb/negf.jpg,stim_fb/posf.jpg,stim_03/a.jpg,stim_03/b.jpg,2,1,j,4,6,246,17,j,1,0.716468957115,03,03,60.0137129326,PLT_learning_3,B,2014_Mrz_28_1445,P29,
stim_fb/ques.jpg,stim_fb/negf.jpg,stim_fb/posf.jpg,stim_03/e.jpg,stim_03/f.jpg,2,3,j,4,7,247,55,j,1,0.816450972357,03,03,60.0137129326,PLT_learning_3,B,2014_Mrz_28_1445,P29,
stim_fb/ques.jpg,stim_fb/negf.jpg,stim_fb/posf.jpg,stim_03/a.jpg,stim_03/b.jpg,2,1,j,4,8,248,16,j,1,0.566530621083,03,03,60.0137129326,PLT_learning_3,B,2014_Mrz_28_1445,P29,
stim_fb/ques.jpg,stim_fb/negf.jpg,stim_fb/posf.jpg,stim_03/d.jpg,stim_03/c.jpg,1,2,f,4,9,249,26,f,1,0.666500143234,03,03,60.0137129326,PLT_learning_3,B,2014_Mrz_28_1445,P29,
stim_fb/ques.jpg,stim_fb/negf.jpg,stim_fb/posf.jpg,stim_03/b.jpg,stim_03/a.jpg,1,1,f,4,10,250,4,f,1,0.749775492757,03,03,60.0137129326,PLT_learning_3,B,2014_Mrz_28_1445,P29,
stim_fb/ques.jpg,stim_fb/negf.jpg,stim_fb/posf.jpg,stim_03/a.jpg,stim_03/b.jpg,2,1,j,4,11,251,12,j,1,0.533204936786,03,03,60.0137129326,PLT_learning_3,B,2014_Mrz_28_1445,P29,
stim_fb/ques.jpg,stim_fb/posf.jpg,stim_fb/negf.jpg,stim_03/c.jpg,stim_03/d.jpg,2,2,j,4,12,252,37,j,1,0.833097915438,03,03,60.0137129326,PLT_learning_3,B,2014_Mrz_28_1445,P29,
stim_fb/ques.jpg,stim_fb/posf.jpg,stim_fb/negf.jpg,stim_03/a.jpg,stim_03/b.jpg,2,1,j,4,13,253,19,j,1,0.683161212466,03,03,60.0137129326,PLT_learning_3,B,2014_Mrz_28_1445,P29,
stim_fb/ques.jpg,stim_fb/negf.jpg,stim_fb/posf.jpg,stim_03/c.jpg,stim_03/d.jpg,2,2,j,4,14,254,34,j,1,0.699790712133,03,03,60.0137129326,PLT_learning_3,B,2014_Mrz_28_1445,P29,
stim_fb/ques.jpg,stim_fb/posf.jpg,stim_fb/negf.jpg,stim_03/c.jpg,stim_03/d.jpg,2,2,j,4,15,255,39,j,1,0.599847977654,03,03,60.0137129326,PLT_learning_3,B,2014_Mrz_28_1445,P29,
stim_fb/ques.jpg,stim_fb/posf.jpg,stim_fb/negf.jpg,stim_03/d.jpg,stim_03/c.jpg,1,2,f,4,16,256,29,f,1,0.633179902481,03,03,60.0137129326,PLT_learning_3,B,2014_Mrz_28_1445,P29,
stim_fb/ques.jpg,stim_fb/posf.jpg,stim_fb/negf.jpg,stim_03/d.jpg,stim_03/c.jpg,1,2,f,4,17,257,28,j,0,0.44986570828,03,03,60.0137129326,PLT_learning_3,B,2014_Mrz_28_1445,P29,
stim_fb/ques.jpg,stim_fb/negf.jpg,stim_fb/posf.jpg,stim_03/b.jpg,stim_03/a.jpg,1,1,f,4,18,258,3,f,1,0.583190839199,03,03,60.0137129326,PLT_learning_3,B,2014_Mrz_28_1445,P29,
stim_fb/ques.jpg,stim_fb/posf.jpg,stim_fb/negf.jpg,stim_03/f.jpg,stim_03/e.jpg,1,3,f,4,19,259,49,j,0,0.933096986122,03,03,60.0137129326,PLT_learning_3,B,2014_Mrz_28_1445,P29,
stim_fb/ques.jpg,stim_fb/negf.jpg,stim_fb/posf.jpg,stim_03/b.jpg,stim_03/a.jpg,1,1,f,4,20,260,7,f,1,0.683157783933,03,03,60.0137129326,PLT_learning_3,B,2014_Mrz_28_1445,P29,
stim_fb/ques.jpg,stim_fb/negf.jpg,stim_fb/posf.jpg,stim_03/f.jpg,stim_03/e.jpg,1,3,f,4,21,261,40,f,1,1.21635006522,03,03,60.0137129326,PLT_learning_3,B,2014_Mrz_28_1445,P29,
stim_fb/ques.jpg,stim_fb/posf.jpg,stim_fb/negf.jpg,stim_03/e.jpg,stim_03/f.jpg,2,3,j,4,22,262,59,f,0,1.13300585933,03,03,60.0137129326,PLT_learning_3,B,2014_Mrz_28_1445,P29,
stim_fb/ques.jpg,stim_fb/negf.jpg,stim_fb/posf.jpg,stim_03/c.jpg,stim_03/d.jpg,2,2,j,4,23,263,30,j,1,0.716463342142,03,03,60.0137129326,PLT_learning_3,B,2014_Mrz_28_1445,P29,
stim_fb/ques.jpg,stim_fb/negf.jpg,stim_fb/posf.jpg,stim_03/a.jpg,stim_03/b.jpg,2,1,j,4,24,264,10,j,1,0.583138379643,03,03,60.0137129326,PLT_learning_3,B,2014_Mrz_28_1445,P29,
stim_fb/ques.jpg,stim_fb/posf.jpg,stim_fb/negf.jpg,stim_03/f.jpg,stim_03/e.jpg,1,3,f,4,25,265,48,j,0,1.29959811581,03,03,60.0137129326,PLT_learning_3,B,2014_Mrz_28_1445,P29,
stim_fb/ques.jpg,stim_fb/negf.jpg,stim_fb/posf.jpg,stim_03/c.jpg,stim_03/d.jpg,2,2,j,4,26,266,32,j,1,0.949657006873,03,03,60.0137129326,PLT_learning_3,B,2014_Mrz_28_1445,P29,
stim_fb/ques.jpg,stim_fb/posf.jpg,stim_fb/negf.jpg,stim_03/f.jpg,stim_03/e.jpg,1,3,f,4,27,267,47,f,1,0.833112862638,03,03,60.0137129326,PLT_learning_3,B,2014_Mrz_28_1445,P29,
stim_fb/ques.jpg,stim_fb/posf.jpg,stim_fb/negf.jpg,stim_03/e.jpg,stim_03/f.jpg,2,3,j,4,28,268,57,j,1,0.999679612636,03,03,60.0137129326,PLT_learning_3,B,2014_Mrz_28_1445,P29,
stim_fb/ques.jpg,stim_fb/negf.jpg,stim_fb/posf.jpg,stim_03/f.jpg,stim_03/e.jpg,1,3,f,4,29,269,45,j,0,1.06637385593,03,03,60.0137129326,PLT_learning_3,B,2014_Mrz_28_1445,P29,
stim_fb/ques.jpg,stim_fb/posf.jpg,stim_fb/negf.jpg,stim_03/d.jpg,stim_03/c.jpg,1,2,f,4,30,270,27,f,1,1.01638796555,03,03,60.0137129326,PLT_learning_3,B,2014_Mrz_28_1445,P29,
stim_fb/ques.jpg,stim_fb/negf.jpg,stim_fb/posf.jpg,stim_03/b.jpg,stim_03/a.jpg,1,1,f,4,31,271,0,f,1,0.899741548779,03,03,60.0137129326,PLT_learning_3,B,2014_Mrz_28_1445,P29,
stim_fb/ques.jpg,stim_fb/posf.jpg,stim_fb/negf.jpg,stim_03/c.jpg,stim_03/d.jpg,2,2,j,4,32,272,38,j,1,0.649844577692,03,03,60.0137129326,PLT_learning_3,B,2014_Mrz_28_1445,P29,
stim_fb/ques.jpg,stim_fb/negf.jpg,stim_fb/posf.jpg,stim_03/e.jpg,stim_03/f.jpg,2,3,j,4,33,273,51,j,1,1.0830482363,03,03,60.0137129326,PLT_learning_3,B,2014_Mrz_28_1445,P29,
stim_fb/ques.jpg,stim_fb/negf.jpg,stim_fb/posf.jpg,stim_03/a.jpg,stim_03/b.jpg,2,1,j,4,34,274,14,j,1,0.633183291917,03,03,60.0137129326,PLT_learning_3,B,2014_Mrz_28_1445,P29,
stim_fb/ques.jpg,stim_fb/negf.jpg,stim_fb/posf.jpg,stim_03/e.jpg,stim_03/f.jpg,2,3,j,4,35,275,52,j,1,0.849767267286,03,03,60.0137129326,PLT_learning_3,B,2014_Mrz_28_1445,P29,
stim_fb/ques.jpg,stim_fb/negf.jpg,stim_fb/posf.jpg,stim_03/b.jpg,stim_03/a.jpg,1,1,f,4,36,276,2,f,1,0.799727645179,03,03,60.0137129326,PLT_learning_3,B,2014_Mrz_28_1445,P29,
stim_fb/ques.jpg,stim_fb/posf.jpg,stim_fb/negf.jpg,stim_03/e.jpg,stim_03/f.jpg,2,3,j,4,37,277,58,f,0,1.03300062631,03,03,60.0137129326,PLT_learning_3,B,2014_Mrz_28_1445,P29,
stim_fb/ques.jpg,stim_fb/negf.jpg,stim_fb/posf.jpg,stim_03/b.jpg,stim_03/a.jpg,1,1,f,4,38,278,5,f,1,0.83312461288,03,03,60.0137129326,PLT_learning_3,B,2014_Mrz_28_1445,P29,
stim_fb/ques.jpg,stim_fb/negf.jpg,stim_fb/posf.jpg,stim_03/e.jpg,stim_03/f.jpg,2,3,j,4,39,279,54,j,1,1.03302362154,03,03,60.0137129326,PLT_learning_3,B,2014_Mrz_28_1445,P29,
stim_fb/ques.jpg,stim_fb/negf.jpg,stim_fb/posf.jpg,stim_03/b.jpg,stim_03/a.jpg,1,1,f,4,40,280,1,f,1,0.966377768673,03,03,60.0137129326,PLT_learning_3,B,2014_Mrz_28_1445,P29,
stim_fb/ques.jpg,stim_fb/negf.jpg,stim_fb/posf.jpg,stim_03/a.jpg,stim_03/b.jpg,2,1,j,4,41,281,11,j,1,0.783122226439,03,03,60.0137129326,PLT_learning_3,B,2014_Mrz_28_1445,P29,
stim_fb/ques.jpg,stim_fb/negf.jpg,stim_fb/posf.jpg,stim_03/c.jpg,stim_03/d.jpg,2,2,j,4,42,282,35,f,0,0.583178830315,03,03,60.0137129326,PLT_learning_3,B,2014_Mrz_28_1445,P29,
stim_fb/ques.jpg,stim_fb/negf.jpg,stim_fb/posf.jpg,stim_03/f.jpg,stim_03/e.jpg,1,3,f,4,43,283,41,f,1,0.816450064096,03,03,60.0137129326,PLT_learning_3,B,2014_Mrz_28_1445,P29,
stim_fb/ques.jpg,stim_fb/negf.jpg,stim_fb/posf.jpg,stim_03/a.jpg,stim_03/b.jpg,2,1,j,4,44,284,13,j,1,0.749813522405,03,03,60.0137129326,PLT_learning_3,B,2014_Mrz_28_1445,P29,
stim_fb/ques.jpg,stim_fb/negf.jpg,stim_fb/posf.jpg,stim_03/d.jpg,stim_03/c.jpg,1,2,f,4,45,285,21,j,0,1.01635381255,03,03,60.0137129326,PLT_learning_3,B,2014_Mrz_28_1445,P29,
stim_fb/ques.jpg,stim_fb/posf.jpg,stim_fb/negf.jpg,stim_03/e.jpg,stim_03/f.jpg,2,3,j,4,46,286,56,f,0,1.1663378774,03,03,60.0137129326,PLT_learning_3,B,2014_Mrz_28_1445,P29,
stim_fb/ques.jpg,stim_fb/negf.jpg,stim_fb/posf.jpg,stim_03/d.jpg,stim_03/c.jpg,1,2,f,4,47,287,25,f,1,1.06630509581,03,03,60.0137129326,PLT_learning_3,B,2014_Mrz_28_1445,P29,
stim_fb/ques.jpg,stim_fb/posf.jpg,stim_fb/negf.jpg,stim_03/b.jpg,stim_03/a.jpg,1,1,f,4,48,288,9,f,1,0.766478642723,03,03,60.0137129326,PLT_learning_3,B,2014_Mrz_28_1445,P29,
stim_fb/ques.jpg,stim_fb/negf.jpg,stim_fb/posf.jpg,stim_03/d.jpg,stim_03/c.jpg,1,2,f,4,49,289,23,f,1,0.883076350266,03,03,60.0137129326,PLT_learning_3,B,2014_Mrz_28_1445,P29,
stim_fb/ques.jpg,stim_fb/negf.jpg,stim_fb/posf.jpg,stim_03/d.jpg,stim_03/c.jpg,1,2,f,4,50,290,22,f,1,0.766457073041,03,03,60.0137129326,PLT_learning_3,B,2014_Mrz_28_1445,P29,
stim_fb/ques.jpg,stim_fb/negf.jpg,stim_fb/posf.jpg,stim_03/d.jpg,stim_03/c.jpg,1,2,f,4,51,291,24,f,1,0.849782214485,03,03,60.0137129326,PLT_learning_3,B,2014_Mrz_28_1445,P29,
stim_fb/ques.jpg,stim_fb/negf.jpg,stim_fb/posf.jpg,stim_03/b.jpg,stim_03/a.jpg,1,1,f,4,52,292,6,f,1,0.799783385904,03,03,60.0137129326,PLT_learning_3,B,2014_Mrz_28_1445,P29,
stim_fb/ques.jpg,stim_fb/posf.jpg,stim_fb/negf.jpg,stim_03/f.jpg,stim_03/e.jpg,1,3,f,4,53,293,46,j,0,0.749849398693,03,03,60.0137129326,PLT_learning_3,B,2014_Mrz_28_1445,P29,
stim_fb/ques.jpg,stim_fb/negf.jpg,stim_fb/posf.jpg,stim_03/d.jpg,stim_03/c.jpg,1,2,f,4,54,294,20,f,1,0.816440891267,03,03,60.0137129326,PLT_learning_3,B,2014_Mrz_28_1445,P29,
stim_fb/ques.jpg,stim_fb/negf.jpg,stim_fb/posf.jpg,stim_03/a.jpg,stim_03/b.jpg,2,1,j,4,55,295,15,j,1,0.616465916552,03,03,60.0137129326,PLT_learning_3,B,2014_Mrz_28_1445,P29,
stim_fb/ques.jpg,stim_fb/negf.jpg,stim_fb/posf.jpg,stim_03/f.jpg,stim_03/e.jpg,1,3,f,4,56,296,43,j,0,1.19965836175,03,03,60.0137129326,PLT_learning_3,B,2014_Mrz_28_1445,P29,
stim_fb/ques.jpg,stim_fb/posf.jpg,stim_fb/negf.jpg,stim_03/a.jpg,stim_03/b.jpg,2,1,j,4,57,297,18,j,1,0.983003542064,03,03,60.0137129326,PLT_learning_3,B,2014_Mrz_28_1445,P29,
stim_fb/ques.jpg,stim_fb/negf.jpg,stim_fb/posf.jpg,stim_03/c.jpg,stim_03/d.jpg,2,2,j,4,58,298,36,j,1,0.833138733022,03,03,60.0137129326,PLT_learning_3,B,2014_Mrz_28_1445,P29,
stim_fb/ques.jpg,stim_fb/negf.jpg,stim_fb/posf.jpg,stim_03/e.jpg,stim_03/f.jpg,2,3,j,4,59,299,53,f,0,0.966390009136,03,03,60.0137129326,PLT_learning_3,B,2014_Mrz_28_1445,P29,
stim_fb/ques.jpg,stim_fb/negf.jpg,stim_fb/posf.jpg,stim_03/d.jpg,stim_03/c.jpg,1,2,f,5,0,300,25,f,1,0.799784348299,03,03,60.0137129326,PLT_learning_3,B,2014_Mrz_28_1445,P29,
stim_fb/ques.jpg,stim_fb/posf.jpg,stim_fb/negf.jpg,stim_03/c.jpg,stim_03/d.jpg,2,2,j,5,1,301,37,j,1,0.666493881647,03,03,60.0137129326,PLT_learning_3,B,2014_Mrz_28_1445,P29,
stim_fb/ques.jpg,stim_fb/negf.jpg,stim_fb/posf.jpg,stim_03/b.jpg,stim_03/a.jpg,1,1,f,5,2,302,4,f,1,0.699863424099,03,03,60.0137129326,PLT_learning_3,B,2014_Mrz_28_1445,P29,
stim_fb/ques.jpg,stim_fb/posf.jpg,stim_fb/negf.jpg,stim_03/d.jpg,stim_03/c.jpg,1,2,f,5,3,303,28,f,1,0.683157672658,03,03,60.0137129326,PLT_learning_3,B,2014_Mrz_28_1445,P29,
stim_fb/ques.jpg,stim_fb/negf.jpg,stim_fb/posf.jpg,stim_03/a.jpg,stim_03/b.jpg,2,1,j,5,4,304,16,j,1,0.633480130673,03,03,60.0137129326,PLT_learning_3,B,2014_Mrz_28_1445,P29,
stim_fb/ques.jpg,stim_fb/negf.jpg,stim_fb/posf.jpg,stim_03/c.jpg,stim_03/d.jpg,2,2,j,5,5,305,35,j,1,0.599882383282,03,03,60.0137129326,PLT_learning_3,B,2014_Mrz_28_1445,P29,
stim_fb/ques.jpg,stim_fb/negf.jpg,stim_fb/posf.jpg,stim_03/f.jpg,stim_03/e.jpg,1,3,f,5,6,306,45,j,0,0.583176740111,03,03,60.0137129326,PLT_learning_3,B,2014_Mrz_28_1445,P29,
stim_fb/ques.jpg,stim_fb/posf.jpg,stim_fb/negf.jpg,stim_03/f.jpg,stim_03/e.jpg,1,3,f,5,7,307,47,j,0,0.583199154898,03,03,60.0137129326,PLT_learning_3,B,2014_Mrz_28_1445,P29,
stim_fb/ques.jpg,stim_fb/negf.jpg,stim_fb/posf.jpg,stim_03/e.jpg,stim_03/f.jpg,2,3,j,5,8,308,54,f,0,0.466564530474,03,03,60.0137129326,PLT_learning_3,B,2014_Mrz_28_1445,P29,
stim_fb/ques.jpg,stim_fb/negf.jpg,stim_fb/posf.jpg,stim_03/f.jpg,stim_03/e.jpg,1,3,f,5,9,309,40,j,0,0.599858738435,03,03,60.0137129326,PLT_learning_3,B,2014_Mrz_28_1445,P29,
stim_fb/ques.jpg,stim_fb/negf.jpg,stim_fb/posf.jpg,stim_03/c.jpg,stim_03/d.jpg,2,2,j,5,10,310,36,j,1,0.583169651469,03,03,60.0137129326,PLT_learning_3,B,2014_Mrz_28_1445,P29,
stim_fb/ques.jpg,stim_fb/negf.jpg,stim_fb/posf.jpg,stim_03/e.jpg,stim_03/f.jpg,2,3,j,5,11,311,50,f,0,0.483232868803,03,03,60.0137129326,PLT_learning_3,B,2014_Mrz_28_1445,P29,
stim_fb/ques.jpg,stim_fb/posf.jpg,stim_fb/negf.jpg,stim_03/d.jpg,stim_03/c.jpg,1,2,f,5,12,312,27,f,1,0.599787915173,03,03,60.0137129326,PLT_learning_3,B,2014_Mrz_28_1445,P29,
stim_fb/ques.jpg,stim_fb/negf.jpg,stim_fb/posf.jpg,stim_03/d.jpg,stim_03/c.jpg,1,2,f,5,13,313,24,f,1,0.583180523528,03,03,60.0137129326,PLT_learning_3,B,2014_Mrz_28_1445,P29,
stim_fb/ques.jpg,stim_fb/negf.jpg,stim_fb/posf.jpg,stim_03/c.jpg,stim_03/d.jpg,2,2,j,5,14,314,34,j,1,0.583212168283,03,03,60.0137129326,PLT_learning_3,B,2014_Mrz_28_1445,P29,
stim_fb/ques.jpg,stim_fb/posf.jpg,stim_fb/negf.jpg,stim_03/a.jpg,stim_03/b.jpg,2,1,j,5,15,315,19,j,1,0.566581895691,03,03,60.0137129326,PLT_learning_3,B,2014_Mrz_28_1445,P29,
stim_fb/ques.jpg,stim_fb/negf.jpg,stim_fb/posf.jpg,stim_03/c.jpg,stim_03/d.jpg,2,2,j,5,16,316,32,j,1,0.516543801386,03,03,60.0137129326,PLT_learning_3,B,2014_Mrz_28_1445,P29,
stim_fb/ques.jpg,stim_fb/negf.jpg,stim_fb/posf.jpg,stim_03/d.jpg,stim_03/c.jpg,1,2,f,5,17,317,21,f,1,0.566384724985,03,03,60.0137129326,PLT_learning_3,B,2014_Mrz_28_1445,P29,
stim_fb/ques.jpg,stim_fb/negf.jpg,stim_fb/posf.jpg,stim_03/b.jpg,stim_03/a.jpg,1,1,f,5,18,318,6,f,1,0.43322072909,03,03,60.0137129326,PLT_learning_3,B,2014_Mrz_28_1445,P29,
stim_fb/ques.jpg,stim_fb/negf.jpg,stim_fb/posf.jpg,stim_03/a.jpg,stim_03/b.jpg,2,1,j,5,19,319,14,j,1,0.79977786115,03,03,60.0137129326,PLT_learning_3,B,2014_Mrz_28_1445,P29,
stim_fb/ques.jpg,stim_fb/negf.jpg,stim_fb/posf.jpg,stim_03/c.jpg,stim_03/d.jpg,2,2,j,5,20,320,31,j,1,0.783130193267,03,03,60.0137129326,PLT_learning_3,B,2014_Mrz_28_1445,P29,
stim_fb/ques.jpg,stim_fb/negf.jpg,stim_fb/posf.jpg,stim_03/b.jpg,stim_03/a.jpg,1,1,f,5,21,321,2,f,1,0.616511672422,03,03,60.0137129326,PLT_learning_3,B,2014_Mrz_28_1445,P29,
stim_fb/ques.jpg,stim_fb/negf.jpg,stim_fb/posf.jpg,stim_03/d.jpg,stim_03/c.jpg,1,2,f,5,22,322,22,f,1,0.766471719493,03,03,60.0137129326,PLT_learning_3,B,2014_Mrz_28_1445,P29,
stim_fb/ques.jpg,stim_fb/posf.jpg,stim_fb/negf.jpg,stim_03/f.jpg,stim_03/e.jpg,1,3,f,5,23,323,48,f,1,1.09969049071,03,03,60.0137129326,PLT_learning_3,B,2014_Mrz_28_1445,P29,
stim_fb/ques.jpg,stim_fb/negf.jpg,stim_fb/posf.jpg,stim_03/e.jpg,stim_03/f.jpg,2,3,j,5,24,324,55,f,0,0.683205834521,03,03,60.0137129326,PLT_learning_3,B,2014_Mrz_28_1445,P29,
stim_fb/ques.jpg,stim_fb/posf.jpg,stim_fb/negf.jpg,stim_03/b.jpg,stim_03/a.jpg,1,1,f,5,25,325,9,f,1,0.63314849231,03,03,60.0137129326,PLT_learning_3,B,2014_Mrz_28_1445,P29,
stim_fb/ques.jpg,stim_fb/negf.jpg,stim_fb/posf.jpg,stim_03/c.jpg,stim_03/d.jpg,2,2,j,5,26,326,33,j,1,0.916450518227,03,03,60.0137129326,PLT_learning_3,B,2014_Mrz_28_1445,P29,
stim_fb/ques.jpg,stim_fb/negf.jpg,stim_fb/posf.jpg,stim_03/a.jpg,stim_03/b.jpg,2,1,j,5,27,327,12,j,1,0.633153989991,03,03,60.0137129326,PLT_learning_3,B,2014_Mrz_28_1445,P29,
stim_fb/ques.jpg,stim_fb/posf.jpg,stim_fb/negf.jpg,stim_03/a.jpg,stim_03/b.jpg,2,1,j,5,28,328,18,j,1,0.76645281745,03,03,60.0137129326,PLT_learning_3,B,2014_Mrz_28_1445,P29,
stim_fb/ques.jpg,stim_fb/negf.jpg,stim_fb/posf.jpg,stim_03/b.jpg,stim_03/a.jpg,1,1,f,5,29,329,7,f,1,0.883103486805,03,03,60.0137129326,PLT_learning_3,B,2014_Mrz_28_1445,P29,
stim_fb/ques.jpg,stim_fb/posf.jpg,stim_fb/negf.jpg,stim_03/d.jpg,stim_03/c.jpg,1,2,f,5,30,330,29,j,0,0.883108506296,03,03,60.0137129326,PLT_learning_3,B,2014_Mrz_28_1445,P29,
stim_fb/ques.jpg,stim_fb/posf.jpg,stim_fb/negf.jpg,stim_03/b.jpg,stim_03/a.jpg,1,1,f,5,31,331,8,f,1,0.966420099023,03,03,60.0137129326,PLT_learning_3,B,2014_Mrz_28_1445,P29,
stim_fb/ques.jpg,stim_fb/posf.jpg,stim_fb/negf.jpg,stim_03/f.jpg,stim_03/e.jpg,1,3,f,5,32,332,46,j,0,0.799786919699,03,03,60.0137129326,PLT_learning_3,B,2014_Mrz_28_1445,P29,
stim_fb/ques.jpg,stim_fb/posf.jpg,stim_fb/negf.jpg,stim_03/f.jpg,stim_03/e.jpg,1,3,f,5,33,333,49,j,0,0.8497655049,03,03,60.0137129326,PLT_learning_3,B,2014_Mrz_28_1445,P29,
stim_fb/ques.jpg,stim_fb/negf.jpg,stim_fb/posf.jpg,stim_03/e.jpg,stim_03/f.jpg,2,3,j,5,34,334,52,f,0,0.833104525889,03,03,60.0137129326,PLT_learning_3,B,2014_Mrz_28_1445,P29,
stim_fb/ques.jpg,stim_fb/negf.jpg,stim_fb/posf.jpg,stim_03/b.jpg,stim_03/a.jpg,1,1,f,5,35,335,0,f,1,0.699801355626,03,03,60.0137129326,PLT_learning_3,B,2014_Mrz_28_1445,P29,
stim_fb/ques.jpg,stim_fb/posf.jpg,stim_fb/negf.jpg,stim_03/c.jpg,stim_03/d.jpg,2,2,j,5,36,336,38,j,1,0.783143182598,03,03,60.0137129326,PLT_learning_3,B,2014_Mrz_28_1445,P29,
stim_fb/ques.jpg,stim_fb/negf.jpg,stim_fb/posf.jpg,stim_03/b.jpg,stim_03/a.jpg,1,1,f,5,37,337,5,f,1,0.583169585305,03,03,60.0137129326,PLT_learning_3,B,2014_Mrz_28_1445,P29,
stim_fb/ques.jpg,stim_fb/posf.jpg,stim_fb/negf.jpg,stim_03/e.jpg,stim_03/f.jpg,2,3,j,5,38,338,59,j,1,0.79977342812,03,03,60.0137129326,PLT_learning_3,B,2014_Mrz_28_1445,P29,
stim_fb/ques.jpg,stim_fb/negf.jpg,stim_fb/posf.jpg,stim_03/b.jpg,stim_03/a.jpg,1,1,f,5,39,339,1,f,1,0.599762715457,03,03,60.0137129326,PLT_learning_3,B,2014_Mrz_28_1445,P29,
stim_fb/ques.jpg,stim_fb/negf.jpg,stim_fb/posf.jpg,stim_03/e.jpg,stim_03/f.jpg,2,3,j,5,40,340,51,f,0,0.599870386424,03,03,60.0137129326,PLT_learning_3,B,2014_Mrz_28_1445,P29,
stim_fb/ques.jpg,stim_fb/posf.jpg,stim_fb/negf.jpg,stim_03/e.jpg,stim_03/f.jpg,2,3,j,5,41,341,56,f,0,0.549807778109,03,03,60.0137129326,PLT_learning_3,B,2014_Mrz_28_1445,P29,
stim_fb/ques.jpg,stim_fb/negf.jpg,stim_fb/posf.jpg,stim_03/e.jpg,stim_03/f.jpg,2,3,j,5,42,342,53,f,0,0.616497660554,03,03,60.0137129326,PLT_learning_3,B,2014_Mrz_28_1445,P29,
stim_fb/ques.jpg,stim_fb/negf.jpg,stim_fb/posf.jpg,stim_03/f.jpg,stim_03/e.jpg,1,3,f,5,43,343,43,j,0,0.99976342823,03,03,60.0137129326,PLT_learning_3,B,2014_Mrz_28_1445,P29,
stim_fb/ques.jpg,stim_fb/negf.jpg,stim_fb/posf.jpg,stim_03/a.jpg,stim_03/b.jpg,2,1,j,5,44,344,17,j,1,0.733158404983,03,03,60.0137129326,PLT_learning_3,B,2014_Mrz_28_1445,P29,
stim_fb/ques.jpg,stim_fb/negf.jpg,stim_fb/posf.jpg,stim_03/a.jpg,stim_03/b.jpg,2,1,j,5,45,345,15,f,0,0.716404449573,03,03,60.0137129326,PLT_learning_3,B,2014_Mrz_28_1445,P29,
stim_fb/ques.jpg,stim_fb/posf.jpg,stim_fb/negf.jpg,stim_03/e.jpg,stim_03/f.jpg,2,3,j,5,46,346,58,f,0,0.783116340794,03,03,60.0137129326,PLT_learning_3,B,2014_Mrz_28_1445,P29,
stim_fb/ques.jpg,stim_fb/negf.jpg,stim_fb/posf.jpg,stim_03/a.jpg,stim_03/b.jpg,2,1,j,5,47,347,11,j,1,0.616511476936,03,03,60.0137129326,PLT_learning_3,B,2014_Mrz_28_1445,P29,
stim_fb/ques.jpg,stim_fb/posf.jpg,stim_fb/negf.jpg,stim_03/c.jpg,stim_03/d.jpg,2,2,j,5,48,348,39,j,1,0.599824795961,03,03,60.0137129326,PLT_learning_3,B,2014_Mrz_28_1445,P29,
stim_fb/ques.jpg,stim_fb/negf.jpg,stim_fb/posf.jpg,stim_03/a.jpg,stim_03/b.jpg,2,1,j,5,49,349,13,j,1,0.666467545103,03,03,60.0137129326,PLT_learning_3,B,2014_Mrz_28_1445,P29,
stim_fb/ques.jpg,stim_fb/negf.jpg,stim_fb/posf.jpg,stim_03/c.jpg,stim_03/d.jpg,2,2,j,5,50,350,30,j,1,0.816504189803,03,03,60.0137129326,PLT_learning_3,B,2014_Mrz_28_1445,P29,
stim_fb/ques.jpg,stim_fb/negf.jpg,stim_fb/posf.jpg,stim_03/d.jpg,stim_03/c.jpg,1,2,f,5,51,351,20,f,1,0.583185639262,03,03,60.0137129326,PLT_learning_3,B,2014_Mrz_28_1445,P29,
stim_fb/ques.jpg,stim_fb/negf.jpg,stim_fb/posf.jpg,stim_03/a.jpg,stim_03/b.jpg,2,1,j,5,52,352,10,j,1,0.566524997088,03,03,60.0137129326,PLT_learning_3,B,2014_Mrz_28_1445,P29,
stim_fb/ques.jpg,stim_fb/negf.jpg,stim_fb/posf.jpg,stim_03/b.jpg,stim_03/a.jpg,1,1,f,5,53,353,3,f,1,0.683139606695,03,03,60.0137129326,PLT_learning_3,B,2014_Mrz_28_1445,P29,
stim_fb/ques.jpg,stim_fb/negf.jpg,stim_fb/posf.jpg,stim_03/f.jpg,stim_03/e.jpg,1,3,f,5,54,354,42,j,0,0.916418578738,03,03,60.0137129326,PLT_learning_3,B,2014_Mrz_28_1445,P29,
stim_fb/ques.jpg,stim_fb/posf.jpg,stim_fb/negf.jpg,stim_03/e.jpg,stim_03/f.jpg,2,3,j,5,55,355,57,f,0,0.649792349708,03,03,60.0137129326,PLT_learning_3,B,2014_Mrz_28_1445,P29,
stim_fb/ques.jpg,stim_fb/negf.jpg,stim_fb/posf.jpg,stim_03/d.jpg,stim_03/c.jpg,1,2,f,5,56,356,26,f,1,0.716503335676,03,03,60.0137129326,PLT_learning_3,B,2014_Mrz_28_1445,P29,
stim_fb/ques.jpg,stim_fb/negf.jpg,stim_fb/posf.jpg,stim_03/f.jpg,stim_03/e.jpg,1,3,f,5,57,357,41,j,0,0.549859127903,03,03,60.0137129326,PLT_learning_3,B,2014_Mrz_28_1445,P29,
stim_fb/ques.jpg,stim_fb/negf.jpg,stim_fb/posf.jpg,stim_03/f.jpg,stim_03/e.jpg,1,3,f,5,58,358,44,f,1,0.483298994372,03,03,60.0137129326,PLT_learning_3,B,2014_Mrz_28_1445,P29,
stim_fb/ques.jpg,stim_fb/negf.jpg,stim_fb/posf.jpg,stim_03/d.jpg,stim_03/c.jpg,1,2,f,5,59,359,23,f,1,0.716456331695,03,03,60.0137129326,PLT_learning_3,B,2014_Mrz_28_1445,P29,
