Fb3,Fb2,Fb1,Symbol2,Symbol1,PosCond,Pair,Correct,trials.thisRepN,trials.thisTrialN,trials.thisN,trials.thisIndex,Response.keys,Response.corr,Response.rt,Version,Session Number,frameRate,expName,StimCondition,date,Participant,
stim_fb/ques.jpg,stim_fb/negf.jpg,stim_fb/posf.jpg,stim_01/a.jpg,stim_01/b.jpg,2,1,j,0,0,0,12,f,0,1.43296088,01,02,60.0134905712,PLT_learning_01,B,2014_Mrz_26_1747,P30,
stim_fb/ques.jpg,stim_fb/negf.jpg,stim_fb/posf.jpg,stim_01/d.jpg,stim_01/c.jpg,1,2,f,0,1,1,22,j,0,0.983023682529,01,02,60.0134905712,PLT_learning_01,B,2014_Mrz_26_1747,P30,
stim_fb/ques.jpg,stim_fb/negf.jpg,stim_fb/posf.jpg,stim_01/b.jpg,stim_01/a.jpg,1,1,f,0,2,2,1,f,1,0.983040834275,01,02,60.0134905712,PLT_learning_01,B,2014_Mrz_26_1747,P30,
stim_fb/ques.jpg,stim_fb/posf.jpg,stim_fb/negf.jpg,stim_01/d.jpg,stim_01/c.jpg,1,2,f,0,3,3,29,f,1,0.749786341454,01,02,60.0134905712,PLT_learning_01,B,2014_Mrz_26_1747,P30,
stim_fb/ques.jpg,stim_fb/negf.jpg,stim_fb/posf.jpg,stim_01/b.jpg,stim_01/a.jpg,1,1,f,0,4,4,6,f,1,0.866415882585,01,02,60.0134905712,PLT_learning_01,B,2014_Mrz_26_1747,P30,
stim_fb/ques.jpg,stim_fb/negf.jpg,stim_fb/posf.jpg,stim_01/d.jpg,stim_01/c.jpg,1,2,f,0,5,5,20,f,1,0.883140656086,01,02,60.0134905712,PLT_learning_01,B,2014_Mrz_26_1747,P30,
stim_fb/ques.jpg,stim_fb/negf.jpg,stim_fb/posf.jpg,stim_01/d.jpg,stim_01/c.jpg,1,2,f,0,6,6,26,f,1,0.749715337479,01,02,60.0134905712,PLT_learning_01,B,2014_Mrz_26_1747,P30,
stim_fb/ques.jpg,stim_fb/negf.jpg,stim_fb/posf.jpg,stim_01/a.jpg,stim_01/b.jpg,2,1,j,0,7,7,15,f,0,1.13299746919,01,02,60.0134905712,PLT_learning_01,B,2014_Mrz_26_1747,P30,
stim_fb/ques.jpg,stim_fb/posf.jpg,stim_fb/negf.jpg,stim_01/f.jpg,stim_01/e.jpg,1,3,f,0,8,8,47,j,0,0.86642535319,01,02,60.0134905712,PLT_learning_01,B,2014_Mrz_26_1747,P30,
stim_fb/ques.jpg,stim_fb/negf.jpg,stim_fb/posf.jpg,stim_01/b.jpg,stim_01/a.jpg,1,1,f,0,9,9,5,f,1,0.799781926456,01,02,60.0134905712,PLT_learning_01,B,2014_Mrz_26_1747,P30,
stim_fb/ques.jpg,stim_fb/posf.jpg,stim_fb/negf.jpg,stim_01/d.jpg,stim_01/c.jpg,1,2,f,0,10,10,27,f,1,0.799792991027,01,02,60.0134905712,PLT_learning_01,B,2014_Mrz_26_1747,P30,
stim_fb/ques.jpg,stim_fb/negf.jpg,stim_fb/posf.jpg,stim_01/a.jpg,stim_01/b.jpg,2,1,j,0,11,11,11,j,1,1.04972951782,01,02,60.0134905712,PLT_learning_01,B,2014_Mrz_26_1747,P30,
stim_fb/ques.jpg,stim_fb/posf.jpg,stim_fb/negf.jpg,stim_01/c.jpg,stim_01/d.jpg,2,2,j,0,12,12,37,j,1,0.883067558891,01,02,60.0134905712,PLT_learning_01,B,2014_Mrz_26_1747,P30,
stim_fb/ques.jpg,stim_fb/negf.jpg,stim_fb/posf.jpg,stim_01/e.jpg,stim_01/f.jpg,2,3,j,0,13,13,53,f,0,0.883061339387,01,02,60.0134905712,PLT_learning_01,B,2014_Mrz_26_1747,P30,
stim_fb/ques.jpg,stim_fb/posf.jpg,stim_fb/negf.jpg,stim_01/e.jpg,stim_01/f.jpg,2,3,j,0,14,14,59,j,1,1.01637709791,01,02,60.0134905712,PLT_learning_01,B,2014_Mrz_26_1747,P30,
stim_fb/ques.jpg,stim_fb/negf.jpg,stim_fb/posf.jpg,stim_01/a.jpg,stim_01/b.jpg,2,1,j,0,15,15,16,j,1,0.916448655276,01,02,60.0134905712,PLT_learning_01,B,2014_Mrz_26_1747,P30,
stim_fb/ques.jpg,stim_fb/negf.jpg,stim_fb/posf.jpg,stim_01/d.jpg,stim_01/c.jpg,1,2,f,0,16,16,25,j,0,0.966400117293,01,02,60.0134905712,PLT_learning_01,B,2014_Mrz_26_1747,P30,
stim_fb/ques.jpg,stim_fb/negf.jpg,stim_fb/posf.jpg,stim_01/b.jpg,stim_01/a.jpg,1,1,f,0,17,17,2,f,1,1.08303267494,01,02,60.0134905712,PLT_learning_01,B,2014_Mrz_26_1747,P30,
stim_fb/ques.jpg,stim_fb/posf.jpg,stim_fb/negf.jpg,stim_01/e.jpg,stim_01/f.jpg,2,3,j,0,18,18,58,f,0,0.916297230848,01,02,60.0134905712,PLT_learning_01,B,2014_Mrz_26_1747,P30,
stim_fb/ques.jpg,stim_fb/negf.jpg,stim_fb/posf.jpg,stim_01/a.jpg,stim_01/b.jpg,2,1,j,0,19,19,17,j,1,0.916412432991,01,02,60.0134905712,PLT_learning_01,B,2014_Mrz_26_1747,P30,
stim_fb/ques.jpg,stim_fb/negf.jpg,stim_fb/posf.jpg,stim_01/f.jpg,stim_01/e.jpg,1,3,f,0,20,20,42,f,1,0.983045865818,01,02,60.0134905712,PLT_learning_01,B,2014_Mrz_26_1747,P30,
stim_fb/ques.jpg,stim_fb/negf.jpg,stim_fb/posf.jpg,stim_01/b.jpg,stim_01/a.jpg,1,1,f,0,21,21,4,f,1,0.883078743769,01,02,60.0134905712,PLT_learning_01,B,2014_Mrz_26_1747,P30,
stim_fb/ques.jpg,stim_fb/negf.jpg,stim_fb/posf.jpg,stim_01/c.jpg,stim_01/d.jpg,2,2,j,0,22,22,31,j,1,0.899746269577,01,02,60.0134905712,PLT_learning_01,B,2014_Mrz_26_1747,P30,
stim_fb/ques.jpg,stim_fb/negf.jpg,stim_fb/posf.jpg,stim_01/d.jpg,stim_01/c.jpg,1,2,f,0,23,23,23,j,0,1.03304800415,01,02,60.0134905712,PLT_learning_01,B,2014_Mrz_26_1747,P30,
stim_fb/ques.jpg,stim_fb/negf.jpg,stim_fb/posf.jpg,stim_01/a.jpg,stim_01/b.jpg,2,1,j,0,24,24,14,j,1,0.949734435082,01,02,60.0134905712,PLT_learning_01,B,2014_Mrz_26_1747,P30,
stim_fb/ques.jpg,stim_fb/posf.jpg,stim_fb/negf.jpg,stim_01/d.jpg,stim_01/c.jpg,1,2,f,0,25,25,28,f,1,0.533219362267,01,02,60.0134905712,PLT_learning_01,B,2014_Mrz_26_1747,P30,
stim_fb/ques.jpg,stim_fb/negf.jpg,stim_fb/posf.jpg,stim_01/b.jpg,stim_01/a.jpg,1,1,f,0,26,26,7,f,1,0.833038560617,01,02,60.0134905712,PLT_learning_01,B,2014_Mrz_26_1747,P30,
stim_fb/ques.jpg,stim_fb/negf.jpg,stim_fb/posf.jpg,stim_01/e.jpg,stim_01/f.jpg,2,3,j,0,27,27,51,f,0,0.849789842177,01,02,60.0134905712,PLT_learning_01,B,2014_Mrz_26_1747,P30,
stim_fb/ques.jpg,stim_fb/posf.jpg,stim_fb/negf.jpg,stim_01/e.jpg,stim_01/f.jpg,2,3,j,0,28,28,57,f,0,0.899757280022,01,02,60.0134905712,PLT_learning_01,B,2014_Mrz_26_1747,P30,
stim_fb/ques.jpg,stim_fb/negf.jpg,stim_fb/posf.jpg,stim_01/d.jpg,stim_01/c.jpg,1,2,f,0,29,29,24,f,1,0.649841050821,01,02,60.0134905712,PLT_learning_01,B,2014_Mrz_26_1747,P30,
stim_fb/ques.jpg,stim_fb/posf.jpg,stim_fb/negf.jpg,stim_01/c.jpg,stim_01/d.jpg,2,2,j,0,30,30,38,j,1,0.699863255162,01,02,60.0134905712,PLT_learning_01,B,2014_Mrz_26_1747,P30,
stim_fb/ques.jpg,stim_fb/negf.jpg,stim_fb/posf.jpg,stim_01/e.jpg,stim_01/f.jpg,2,3,j,0,31,31,54,f,0,0.916415587853,01,02,60.0134905712,PLT_learning_01,B,2014_Mrz_26_1747,P30,
stim_fb/ques.jpg,stim_fb/negf.jpg,stim_fb/posf.jpg,stim_01/c.jpg,stim_01/d.jpg,2,2,j,0,32,32,35,j,1,1.04969310306,01,02,60.0134905712,PLT_learning_01,B,2014_Mrz_26_1747,P30,
stim_fb/ques.jpg,stim_fb/posf.jpg,stim_fb/negf.jpg,stim_01/c.jpg,stim_01/d.jpg,2,2,j,0,33,33,39,j,1,0.64984450944,01,02,60.0134905712,PLT_learning_01,B,2014_Mrz_26_1747,P30,
stim_fb/ques.jpg,stim_fb/posf.jpg,stim_fb/negf.jpg,stim_01/a.jpg,stim_01/b.jpg,2,1,j,0,34,34,19,j,1,0.833119913383,01,02,60.0134905712,PLT_learning_01,B,2014_Mrz_26_1747,P30,
stim_fb/ques.jpg,stim_fb/negf.jpg,stim_fb/posf.jpg,stim_01/e.jpg,stim_01/f.jpg,2,3,j,0,35,35,50,f,0,0.666493710567,01,02,60.0134905712,PLT_learning_01,B,2014_Mrz_26_1747,P30,
stim_fb/ques.jpg,stim_fb/negf.jpg,stim_fb/posf.jpg,stim_01/f.jpg,stim_01/e.jpg,1,3,f,0,36,36,44,j,0,0.716525878757,01,02,60.0134905712,PLT_learning_01,B,2014_Mrz_26_1747,P30,
stim_fb/ques.jpg,stim_fb/negf.jpg,stim_fb/posf.jpg,stim_01/c.jpg,stim_01/d.jpg,2,2,j,0,37,37,32,j,1,0.683149110155,01,02,60.0134905712,PLT_learning_01,B,2014_Mrz_26_1747,P30,
stim_fb/ques.jpg,stim_fb/negf.jpg,stim_fb/posf.jpg,stim_01/c.jpg,stim_01/d.jpg,2,2,j,0,38,38,33,j,1,0.916403025534,01,02,60.0134905712,PLT_learning_01,B,2014_Mrz_26_1747,P30,
stim_fb/ques.jpg,stim_fb/posf.jpg,stim_fb/negf.jpg,stim_01/f.jpg,stim_01/e.jpg,1,3,f,0,39,39,46,f,1,0.599846386118,01,02,60.0134905712,PLT_learning_01,B,2014_Mrz_26_1747,P30,
stim_fb/ques.jpg,stim_fb/negf.jpg,stim_fb/posf.jpg,stim_01/f.jpg,stim_01/e.jpg,1,3,f,0,40,40,43,f,1,0.916420078043,01,02,60.0134905712,PLT_learning_01,B,2014_Mrz_26_1747,P30,
stim_fb/ques.jpg,stim_fb/negf.jpg,stim_fb/posf.jpg,stim_01/f.jpg,stim_01/e.jpg,1,3,f,0,41,41,40,f,1,1.06638578657,01,02,60.0134905712,PLT_learning_01,B,2014_Mrz_26_1747,P30,
stim_fb/ques.jpg,stim_fb/negf.jpg,stim_fb/posf.jpg,stim_01/f.jpg,stim_01/e.jpg,1,3,f,0,42,42,45,f,1,0.966439783158,01,02,60.0134905712,PLT_learning_01,B,2014_Mrz_26_1747,P30,
stim_fb/ques.jpg,stim_fb/posf.jpg,stim_fb/negf.jpg,stim_01/e.jpg,stim_01/f.jpg,2,3,j,0,43,43,56,j,1,0.733121594574,01,02,60.0134905712,PLT_learning_01,B,2014_Mrz_26_1747,P30,
stim_fb/ques.jpg,stim_fb/posf.jpg,stim_fb/negf.jpg,stim_01/f.jpg,stim_01/e.jpg,1,3,f,0,44,44,48,f,1,1.11626173939,01,02,60.0134905712,PLT_learning_01,B,2014_Mrz_26_1747,P30,
stim_fb/ques.jpg,stim_fb/negf.jpg,stim_fb/posf.jpg,stim_01/a.jpg,stim_01/b.jpg,2,1,j,0,45,45,10,j,1,0.983049742485,01,02,60.0134905712,PLT_learning_01,B,2014_Mrz_26_1747,P30,
stim_fb/ques.jpg,stim_fb/negf.jpg,stim_fb/posf.jpg,stim_01/f.jpg,stim_01/e.jpg,1,3,f,0,46,46,41,j,0,0.949727695282,01,02,60.0134905712,PLT_learning_01,B,2014_Mrz_26_1747,P30,
stim_fb/ques.jpg,stim_fb/negf.jpg,stim_fb/posf.jpg,stim_01/a.jpg,stim_01/b.jpg,2,1,j,0,47,47,13,j,1,0.81647445057,01,02,60.0134905712,PLT_learning_01,B,2014_Mrz_26_1747,P30,
stim_fb/ques.jpg,stim_fb/negf.jpg,stim_fb/posf.jpg,stim_01/c.jpg,stim_01/d.jpg,2,2,j,0,48,48,34,j,1,0.733149630454,01,02,60.0134905712,PLT_learning_01,B,2014_Mrz_26_1747,P30,
stim_fb/ques.jpg,stim_fb/posf.jpg,stim_fb/negf.jpg,stim_01/b.jpg,stim_01/a.jpg,1,1,f,0,49,49,9,f,1,0.649839501959,01,02,60.0134905712,PLT_learning_01,B,2014_Mrz_26_1747,P30,
stim_fb/ques.jpg,stim_fb/negf.jpg,stim_fb/posf.jpg,stim_01/c.jpg,stim_01/d.jpg,2,2,j,0,50,50,36,j,1,0.616563493502,01,02,60.0134905712,PLT_learning_01,B,2014_Mrz_26_1747,P30,
stim_fb/ques.jpg,stim_fb/negf.jpg,stim_fb/posf.jpg,stim_01/b.jpg,stim_01/a.jpg,1,1,f,0,51,51,3,f,1,0.733112529982,01,02,60.0134905712,PLT_learning_01,B,2014_Mrz_26_1747,P30,
stim_fb/ques.jpg,stim_fb/negf.jpg,stim_fb/posf.jpg,stim_01/d.jpg,stim_01/c.jpg,1,2,f,0,52,52,21,f,1,0.699802843585,01,02,60.0134905712,PLT_learning_01,B,2014_Mrz_26_1747,P30,
stim_fb/ques.jpg,stim_fb/negf.jpg,stim_fb/posf.jpg,stim_01/e.jpg,stim_01/f.jpg,2,3,j,0,53,53,52,f,0,0.94974829963,01,02,60.0134905712,PLT_learning_01,B,2014_Mrz_26_1747,P30,
stim_fb/ques.jpg,stim_fb/posf.jpg,stim_fb/negf.jpg,stim_01/b.jpg,stim_01/a.jpg,1,1,f,0,54,54,8,f,1,0.716456838672,01,02,60.0134905712,PLT_learning_01,B,2014_Mrz_26_1747,P30,
stim_fb/ques.jpg,stim_fb/negf.jpg,stim_fb/posf.jpg,stim_01/c.jpg,stim_01/d.jpg,2,2,j,0,55,55,30,j,1,0.916370538565,01,02,60.0134905712,PLT_learning_01,B,2014_Mrz_26_1747,P30,
stim_fb/ques.jpg,stim_fb/posf.jpg,stim_fb/negf.jpg,stim_01/f.jpg,stim_01/e.jpg,1,3,f,0,56,56,49,f,1,0.79979549026,01,02,60.0134905712,PLT_learning_01,B,2014_Mrz_26_1747,P30,
stim_fb/ques.jpg,stim_fb/posf.jpg,stim_fb/negf.jpg,stim_01/a.jpg,stim_01/b.jpg,2,1,j,0,57,57,18,j,1,0.683167058894,01,02,60.0134905712,PLT_learning_01,B,2014_Mrz_26_1747,P30,
stim_fb/ques.jpg,stim_fb/negf.jpg,stim_fb/posf.jpg,stim_01/e.jpg,stim_01/f.jpg,2,3,j,0,58,58,55,f,0,0.783103892456,01,02,60.0134905712,PLT_learning_01,B,2014_Mrz_26_1747,P30,
stim_fb/ques.jpg,stim_fb/negf.jpg,stim_fb/posf.jpg,stim_01/b.jpg,stim_01/a.jpg,1,1,f,0,59,59,0,f,1,0.783102220288,01,02,60.0134905712,PLT_learning_01,B,2014_Mrz_26_1747,P30,
stim_fb/ques.jpg,stim_fb/negf.jpg,stim_fb/posf.jpg,stim_01/f.jpg,stim_01/e.jpg,1,3,f,1,0,60,45,f,1,0.833101444347,01,02,60.0134905712,PLT_learning_01,B,2014_Mrz_26_1747,P30,
stim_fb/ques.jpg,stim_fb/posf.jpg,stim_fb/negf.jpg,stim_01/d.jpg,stim_01/c.jpg,1,2,f,1,1,61,28,j,0,0.733149149251,01,02,60.0134905712,PLT_learning_01,B,2014_Mrz_26_1747,P30,
stim_fb/ques.jpg,stim_fb/posf.jpg,stim_fb/negf.jpg,stim_01/d.jpg,stim_01/c.jpg,1,2,f,1,2,62,27,j,0,0.88307831069,01,02,60.0134905712,PLT_learning_01,B,2014_Mrz_26_1747,P30,
stim_fb/ques.jpg,stim_fb/posf.jpg,stim_fb/negf.jpg,stim_01/c.jpg,stim_01/d.jpg,2,2,j,1,3,63,39,f,0,0.566519797598,01,02,60.0134905712,PLT_learning_01,B,2014_Mrz_26_1747,P30,
stim_fb/ques.jpg,stim_fb/negf.jpg,stim_fb/posf.jpg,stim_01/c.jpg,stim_01/d.jpg,2,2,j,1,4,64,36,f,0,0.699820347218,01,02,60.0134905712,PLT_learning_01,B,2014_Mrz_26_1747,P30,
stim_fb/ques.jpg,stim_fb/negf.jpg,stim_fb/posf.jpg,stim_01/c.jpg,stim_01/d.jpg,2,2,j,1,5,65,33,f,0,0.64982769754,01,02,60.0134905712,PLT_learning_01,B,2014_Mrz_26_1747,P30,
stim_fb/ques.jpg,stim_fb/negf.jpg,stim_fb/posf.jpg,stim_01/d.jpg,stim_01/c.jpg,1,2,f,1,6,66,23,f,1,0.766461082247,01,02,60.0134905712,PLT_learning_01,B,2014_Mrz_26_1747,P30,
stim_fb/ques.jpg,stim_fb/negf.jpg,stim_fb/posf.jpg,stim_01/b.jpg,stim_01/a.jpg,1,1,f,1,7,67,3,j,0,0.849746101158,01,02,60.0134905712,PLT_learning_01,B,2014_Mrz_26_1747,P30,
stim_fb/ques.jpg,stim_fb/negf.jpg,stim_fb/posf.jpg,stim_01/f.jpg,stim_01/e.jpg,1,3,f,1,8,68,44,f,1,0.749779625723,01,02,60.0134905712,PLT_learning_01,B,2014_Mrz_26_1747,P30,
stim_fb/ques.jpg,stim_fb/negf.jpg,stim_fb/posf.jpg,stim_01/c.jpg,stim_01/d.jpg,2,2,j,1,9,69,32,j,1,0.71667284306,01,02,60.0134905712,PLT_learning_01,B,2014_Mrz_26_1747,P30,
stim_fb/ques.jpg,stim_fb/negf.jpg,stim_fb/posf.jpg,stim_01/a.jpg,stim_01/b.jpg,2,1,j,1,10,70,16,j,1,0.89972845919,01,02,60.0134905712,PLT_learning_01,B,2014_Mrz_26_1747,P30,
stim_fb/ques.jpg,stim_fb/negf.jpg,stim_fb/posf.jpg,stim_01/d.jpg,stim_01/c.jpg,1,2,f,1,11,71,26,j,0,0.733141450059,01,02,60.0134905712,PLT_learning_01,B,2014_Mrz_26_1747,P30,
stim_fb/ques.jpg,stim_fb/negf.jpg,stim_fb/posf.jpg,stim_01/e.jpg,stim_01/f.jpg,2,3,j,1,12,72,50,f,0,0.799784443727,01,02,60.0134905712,PLT_learning_01,B,2014_Mrz_26_1747,P30,
stim_fb/ques.jpg,stim_fb/negf.jpg,stim_fb/posf.jpg,stim_01/f.jpg,stim_01/e.jpg,1,3,f,1,13,73,43,f,1,0.699828467456,01,02,60.0134905712,PLT_learning_01,B,2014_Mrz_26_1747,P30,
stim_fb/ques.jpg,stim_fb/negf.jpg,stim_fb/posf.jpg,stim_01/a.jpg,stim_01/b.jpg,2,1,j,1,14,74,12,f,0,0.816439374139,01,02,60.0134905712,PLT_learning_01,B,2014_Mrz_26_1747,P30,
stim_fb/ques.jpg,stim_fb/negf.jpg,stim_fb/posf.jpg,stim_01/b.jpg,stim_01/a.jpg,1,1,f,1,15,75,2,f,1,0.949730717817,01,02,60.0134905712,PLT_learning_01,B,2014_Mrz_26_1747,P30,
stim_fb/ques.jpg,stim_fb/posf.jpg,stim_fb/negf.jpg,stim_01/f.jpg,stim_01/e.jpg,1,3,f,1,16,76,47,j,0,0.899744477108,01,02,60.0134905712,PLT_learning_01,B,2014_Mrz_26_1747,P30,
stim_fb/ques.jpg,stim_fb/posf.jpg,stim_fb/negf.jpg,stim_01/e.jpg,stim_01/f.jpg,2,3,j,1,17,77,56,f,0,0.966415362294,01,02,60.0134905712,PLT_learning_01,B,2014_Mrz_26_1747,P30,
stim_fb/ques.jpg,stim_fb/negf.jpg,stim_fb/posf.jpg,stim_01/c.jpg,stim_01/d.jpg,2,2,j,1,18,78,30,f,0,0.833109107451,01,02,60.0134905712,PLT_learning_01,B,2014_Mrz_26_1747,P30,
stim_fb/ques.jpg,stim_fb/negf.jpg,stim_fb/posf.jpg,stim_01/a.jpg,stim_01/b.jpg,2,1,j,1,19,79,15,j,1,0.766448489856,01,02,60.0134905712,PLT_learning_01,B,2014_Mrz_26_1747,P30,
stim_fb/ques.jpg,stim_fb/posf.jpg,stim_fb/negf.jpg,stim_01/e.jpg,stim_01/f.jpg,2,3,j,1,20,80,58,f,0,0.666464748385,01,02,60.0134905712,PLT_learning_01,B,2014_Mrz_26_1747,P30,
stim_fb/ques.jpg,stim_fb/posf.jpg,stim_fb/negf.jpg,stim_01/a.jpg,stim_01/b.jpg,2,1,j,1,21,81,19,j,1,0.599850130449,01,02,60.0134905712,PLT_learning_01,B,2014_Mrz_26_1747,P30,
stim_fb/ques.jpg,stim_fb/negf.jpg,stim_fb/posf.jpg,stim_01/f.jpg,stim_01/e.jpg,1,3,f,1,22,82,41,j,0,0.649842638777,01,02,60.0134905712,PLT_learning_01,B,2014_Mrz_26_1747,P30,
stim_fb/ques.jpg,stim_fb/negf.jpg,stim_fb/posf.jpg,stim_01/f.jpg,stim_01/e.jpg,1,3,f,1,23,83,42,j,0,0.533206881148,01,02,60.0134905712,PLT_learning_01,B,2014_Mrz_26_1747,P30,
stim_fb/ques.jpg,stim_fb/negf.jpg,stim_fb/posf.jpg,stim_01/b.jpg,stim_01/a.jpg,1,1,f,1,24,84,4,f,1,0.483245461313,01,02,60.0134905712,PLT_learning_01,B,2014_Mrz_26_1747,P30,
stim_fb/ques.jpg,stim_fb/negf.jpg,stim_fb/posf.jpg,stim_01/b.jpg,stim_01/a.jpg,1,1,f,1,25,85,5,f,1,0.883086121154,01,02,60.0134905712,PLT_learning_01,B,2014_Mrz_26_1747,P30,
stim_fb/ques.jpg,stim_fb/negf.jpg,stim_fb/posf.jpg,stim_01/a.jpg,stim_01/b.jpg,2,1,j,1,26,86,17,j,1,0.616562973213,01,02,60.0134905712,PLT_learning_01,B,2014_Mrz_26_1747,P30,
stim_fb/ques.jpg,stim_fb/negf.jpg,stim_fb/posf.jpg,stim_01/b.jpg,stim_01/a.jpg,1,1,f,1,27,87,0,f,1,0.866423675012,01,02,60.0134905712,PLT_learning_01,B,2014_Mrz_26_1747,P30,
stim_fb/ques.jpg,stim_fb/negf.jpg,stim_fb/posf.jpg,stim_01/d.jpg,stim_01/c.jpg,1,2,f,1,28,88,24,j,0,0.716484113655,01,02,60.0134905712,PLT_learning_01,B,2014_Mrz_26_1747,P30,
stim_fb/ques.jpg,stim_fb/negf.jpg,stim_fb/posf.jpg,stim_01/d.jpg,stim_01/c.jpg,1,2,f,1,29,89,25,j,0,0.866431635848,01,02,60.0134905712,PLT_learning_01,B,2014_Mrz_26_1747,P30,
stim_fb/ques.jpg,stim_fb/negf.jpg,stim_fb/posf.jpg,stim_01/b.jpg,stim_01/a.jpg,1,1,f,1,30,90,6,f,1,0.833121606607,01,02,60.0134905712,PLT_learning_01,B,2014_Mrz_26_1747,P30,
stim_fb/ques.jpg,stim_fb/negf.jpg,stim_fb/posf.jpg,stim_01/d.jpg,stim_01/c.jpg,1,2,f,1,31,91,20,f,1,0.716461548407,01,02,60.0134905712,PLT_learning_01,B,2014_Mrz_26_1747,P30,
stim_fb/ques.jpg,stim_fb/negf.jpg,stim_fb/posf.jpg,stim_01/e.jpg,stim_01/f.jpg,2,3,j,1,32,92,52,f,0,0.749765355147,01,02,60.0134905712,PLT_learning_01,B,2014_Mrz_26_1747,P30,
stim_fb/ques.jpg,stim_fb/negf.jpg,stim_fb/posf.jpg,stim_01/c.jpg,stim_01/d.jpg,2,2,j,1,33,93,34,f,0,0.666498116552,01,02,60.0134905712,PLT_learning_01,B,2014_Mrz_26_1747,P30,
stim_fb/ques.jpg,stim_fb/negf.jpg,stim_fb/posf.jpg,stim_01/e.jpg,stim_01/f.jpg,2,3,j,1,34,94,51,f,0,0.649824942666,01,02,60.0134905712,PLT_learning_01,B,2014_Mrz_26_1747,P30,
stim_fb/ques.jpg,stim_fb/negf.jpg,stim_fb/posf.jpg,stim_01/a.jpg,stim_01/b.jpg,2,1,j,1,35,95,13,j,1,0.783123311856,01,02,60.0134905712,PLT_learning_01,B,2014_Mrz_26_1747,P30,
stim_fb/ques.jpg,stim_fb/negf.jpg,stim_fb/posf.jpg,stim_01/d.jpg,stim_01/c.jpg,1,2,f,1,36,96,22,j,0,0.816438477908,01,02,60.0134905712,PLT_learning_01,B,2014_Mrz_26_1747,P30,
stim_fb/ques.jpg,stim_fb/posf.jpg,stim_fb/negf.jpg,stim_01/a.jpg,stim_01/b.jpg,2,1,j,1,37,97,18,j,1,0.91637298667,01,02,60.0134905712,PLT_learning_01,B,2014_Mrz_26_1747,P30,
stim_fb/ques.jpg,stim_fb/negf.jpg,stim_fb/posf.jpg,stim_01/c.jpg,stim_01/d.jpg,2,2,j,1,38,98,35,f,0,0.799794726358,01,02,60.0134905712,PLT_learning_01,B,2014_Mrz_26_1747,P30,
stim_fb/ques.jpg,stim_fb/negf.jpg,stim_fb/posf.jpg,stim_01/c.jpg,stim_01/d.jpg,2,2,j,1,39,99,31,f,0,0.883092912089,01,02,60.0134905712,PLT_learning_01,B,2014_Mrz_26_1747,P30,
stim_fb/ques.jpg,stim_fb/posf.jpg,stim_fb/negf.jpg,stim_01/f.jpg,stim_01/e.jpg,1,3,f,1,40,100,48,j,0,0.849772037807,01,02,60.0134905712,PLT_learning_01,B,2014_Mrz_26_1747,P30,
stim_fb/ques.jpg,stim_fb/negf.jpg,stim_fb/posf.jpg,stim_01/f.jpg,stim_01/e.jpg,1,3,f,1,41,101,40,j,0,0.683156935665,01,02,60.0134905712,PLT_learning_01,B,2014_Mrz_26_1747,P30,
stim_fb/ques.jpg,stim_fb/negf.jpg,stim_fb/posf.jpg,stim_01/b.jpg,stim_01/a.jpg,1,1,f,1,42,102,1,f,1,0.583225819355,01,02,60.0134905712,PLT_learning_01,B,2014_Mrz_26_1747,P30,
stim_fb/ques.jpg,stim_fb/posf.jpg,stim_fb/negf.jpg,stim_01/e.jpg,stim_01/f.jpg,2,3,j,1,43,103,57,f,0,0.949723397571,01,02,60.0134905712,PLT_learning_01,B,2014_Mrz_26_1747,P30,
stim_fb/ques.jpg,stim_fb/posf.jpg,stim_fb/negf.jpg,stim_01/f.jpg,stim_01/e.jpg,1,3,f,1,44,104,46,j,0,0.433277864075,01,02,60.0134905712,PLT_learning_01,B,2014_Mrz_26_1747,P30,
stim_fb/ques.jpg,stim_fb/negf.jpg,stim_fb/posf.jpg,stim_01/b.jpg,stim_01/a.jpg,1,1,f,1,45,105,7,f,1,0.41646678446,01,02,60.0134905712,PLT_learning_01,B,2014_Mrz_26_1747,P30,
stim_fb/ques.jpg,stim_fb/negf.jpg,stim_fb/posf.jpg,stim_01/a.jpg,stim_01/b.jpg,2,1,j,1,46,106,11,j,1,0.783110572098,01,02,60.0134905712,PLT_learning_01,B,2014_Mrz_26_1747,P30,
stim_fb/ques.jpg,stim_fb/negf.jpg,stim_fb/posf.jpg,stim_01/a.jpg,stim_01/b.jpg,2,1,j,1,47,107,10,j,1,0.349934009515,01,02,60.0134905712,PLT_learning_01,B,2014_Mrz_26_1747,P30,
stim_fb/ques.jpg,stim_fb/negf.jpg,stim_fb/posf.jpg,stim_01/d.jpg,stim_01/c.jpg,1,2,f,1,48,108,21,j,0,0.733141639532,01,02,60.0134905712,PLT_learning_01,B,2014_Mrz_26_1747,P30,
stim_fb/ques.jpg,stim_fb/negf.jpg,stim_fb/posf.jpg,stim_01/a.jpg,stim_01/b.jpg,2,1,j,1,49,109,14,j,1,0.816463479219,01,02,60.0134905712,PLT_learning_01,B,2014_Mrz_26_1747,P30,
stim_fb/ques.jpg,stim_fb/posf.jpg,stim_fb/negf.jpg,stim_01/b.jpg,stim_01/a.jpg,1,1,f,1,50,110,9,f,1,0.733181873824,01,02,60.0134905712,PLT_learning_01,B,2014_Mrz_26_1747,P30,
stim_fb/ques.jpg,stim_fb/negf.jpg,stim_fb/posf.jpg,stim_01/e.jpg,stim_01/f.jpg,2,3,j,1,51,111,54,f,0,0.683162628848,01,02,60.0134905712,PLT_learning_01,B,2014_Mrz_26_1747,P30,
stim_fb/ques.jpg,stim_fb/posf.jpg,stim_fb/negf.jpg,stim_01/c.jpg,stim_01/d.jpg,2,2,j,1,52,112,37,f,0,1.08297453102,01,02,60.0134905712,PLT_learning_01,B,2014_Mrz_26_1747,P30,
stim_fb/ques.jpg,stim_fb/posf.jpg,stim_fb/negf.jpg,stim_01/f.jpg,stim_01/e.jpg,1,3,f,1,53,113,49,f,1,0.81643914256,01,02,60.0134905712,PLT_learning_01,B,2014_Mrz_26_1747,P30,
stim_fb/ques.jpg,stim_fb/posf.jpg,stim_fb/negf.jpg,stim_01/c.jpg,stim_01/d.jpg,2,2,j,1,54,114,38,f,0,1.28295913565,01,02,60.0134905712,PLT_learning_01,B,2014_Mrz_26_1747,P30,
stim_fb/ques.jpg,stim_fb/posf.jpg,stim_fb/negf.jpg,stim_01/b.jpg,stim_01/a.jpg,1,1,f,1,55,115,8,f,1,1.1663902918,01,02,60.0134905712,PLT_learning_01,B,2014_Mrz_26_1747,P30,
stim_fb/ques.jpg,stim_fb/posf.jpg,stim_fb/negf.jpg,stim_01/d.jpg,stim_01/c.jpg,1,2,f,1,56,116,29,j,0,0.966361209314,01,02,60.0134905712,PLT_learning_01,B,2014_Mrz_26_1747,P30,
stim_fb/ques.jpg,stim_fb/negf.jpg,stim_fb/posf.jpg,stim_01/e.jpg,stim_01/f.jpg,2,3,j,1,57,117,55,j,1,1.06637479718,01,02,60.0134905712,PLT_learning_01,B,2014_Mrz_26_1747,P30,
stim_fb/ques.jpg,stim_fb/negf.jpg,stim_fb/posf.jpg,stim_01/e.jpg,stim_01/f.jpg,2,3,j,1,58,118,53,f,0,1.09969789099,01,02,60.0134905712,PLT_learning_01,B,2014_Mrz_26_1747,P30,
stim_fb/ques.jpg,stim_fb/posf.jpg,stim_fb/negf.jpg,stim_01/e.jpg,stim_01/f.jpg,2,3,j,1,59,119,59,j,1,0.649831538103,01,02,60.0134905712,PLT_learning_01,B,2014_Mrz_26_1747,P30,
stim_fb/ques.jpg,stim_fb/negf.jpg,stim_fb/posf.jpg,stim_01/c.jpg,stim_01/d.jpg,2,2,j,2,0,120,35,f,0,0.699824226889,01,02,60.0134905712,PLT_learning_01,B,2014_Mrz_26_1747,P30,
stim_fb/ques.jpg,stim_fb/negf.jpg,stim_fb/posf.jpg,stim_01/a.jpg,stim_01/b.jpg,2,1,j,2,1,121,12,j,1,0.666508266855,01,02,60.0134905712,PLT_learning_01,B,2014_Mrz_26_1747,P30,
stim_fb/ques.jpg,stim_fb/negf.jpg,stim_fb/posf.jpg,stim_01/a.jpg,stim_01/b.jpg,2,1,j,2,2,122,17,j,1,0.633179341508,01,02,60.0134905712,PLT_learning_01,B,2014_Mrz_26_1747,P30,
stim_fb/ques.jpg,stim_fb/posf.jpg,stim_fb/negf.jpg,stim_01/b.jpg,stim_01/a.jpg,1,1,f,2,3,123,8,f,1,0.849737223027,01,02,60.0134905712,PLT_learning_01,B,2014_Mrz_26_1747,P30,
stim_fb/ques.jpg,stim_fb/negf.jpg,stim_fb/posf.jpg,stim_01/c.jpg,stim_01/d.jpg,2,2,j,2,4,124,31,f,0,0.932997012053,01,02,60.0134905712,PLT_learning_01,B,2014_Mrz_26_1747,P30,
stim_fb/ques.jpg,stim_fb/negf.jpg,stim_fb/posf.jpg,stim_01/f.jpg,stim_01/e.jpg,1,3,f,2,5,125,44,f,1,1.0163701115,01,02,60.0134905712,PLT_learning_01,B,2014_Mrz_26_1747,P30,
stim_fb/ques.jpg,stim_fb/posf.jpg,stim_fb/negf.jpg,stim_01/e.jpg,stim_01/f.jpg,2,3,j,2,6,126,58,j,1,0.716478224975,01,02,60.0134905712,PLT_learning_01,B,2014_Mrz_26_1747,P30,
stim_fb/ques.jpg,stim_fb/posf.jpg,stim_fb/negf.jpg,stim_01/f.jpg,stim_01/e.jpg,1,3,f,2,7,127,47,j,0,1.13296672356,01,02,60.0134905712,PLT_learning_01,B,2014_Mrz_26_1747,P30,
stim_fb/ques.jpg,stim_fb/negf.jpg,stim_fb/posf.jpg,stim_01/b.jpg,stim_01/a.jpg,1,1,f,2,8,128,3,j,0,0.916418490087,01,02,60.0134905712,PLT_learning_01,B,2014_Mrz_26_1747,P30,
stim_fb/ques.jpg,stim_fb/posf.jpg,stim_fb/negf.jpg,stim_01/f.jpg,stim_01/e.jpg,1,3,f,2,9,129,46,f,1,0.933085285076,01,02,60.0134905712,PLT_learning_01,B,2014_Mrz_26_1747,P30,
stim_fb/ques.jpg,stim_fb/negf.jpg,stim_fb/posf.jpg,stim_01/a.jpg,stim_01/b.jpg,2,1,j,2,10,130,15,j,1,0.74999207224,01,02,60.0134905712,PLT_learning_01,B,2014_Mrz_26_1747,P30,
stim_fb/ques.jpg,stim_fb/negf.jpg,stim_fb/posf.jpg,stim_01/a.jpg,stim_01/b.jpg,2,1,j,2,11,131,13,j,1,0.666493163204,01,02,60.0134905712,PLT_learning_01,B,2014_Mrz_26_1747,P30,
stim_fb/ques.jpg,stim_fb/negf.jpg,stim_fb/posf.jpg,stim_01/f.jpg,stim_01/e.jpg,1,3,f,2,12,132,41,j,0,0.766467797985,01,02,60.0134905712,PLT_learning_01,B,2014_Mrz_26_1747,P30,
stim_fb/ques.jpg,stim_fb/negf.jpg,stim_fb/posf.jpg,stim_01/e.jpg,stim_01/f.jpg,2,3,j,2,13,133,53,j,1,0.88314545605,01,02,60.0134905712,PLT_learning_01,B,2014_Mrz_26_1747,P30,
stim_fb/ques.jpg,stim_fb/negf.jpg,stim_fb/posf.jpg,stim_01/f.jpg,stim_01/e.jpg,1,3,f,2,14,134,43,f,1,0.666510922478,01,02,60.0134905712,PLT_learning_01,B,2014_Mrz_26_1747,P30,
stim_fb/ques.jpg,stim_fb/negf.jpg,stim_fb/posf.jpg,stim_01/c.jpg,stim_01/d.jpg,2,2,j,2,15,135,34,f,0,0.749850692853,01,02,60.0134905712,PLT_learning_01,B,2014_Mrz_26_1747,P30,
stim_fb/ques.jpg,stim_fb/negf.jpg,stim_fb/posf.jpg,stim_01/d.jpg,stim_01/c.jpg,1,2,f,2,16,136,22,j,0,0.716472733286,01,02,60.0134905712,PLT_learning_01,B,2014_Mrz_26_1747,P30,
stim_fb/ques.jpg,stim_fb/negf.jpg,stim_fb/posf.jpg,stim_01/e.jpg,stim_01/f.jpg,2,3,j,2,17,137,52,f,0,0.783125826121,01,02,60.0134905712,PLT_learning_01,B,2014_Mrz_26_1747,P30,
stim_fb/ques.jpg,stim_fb/negf.jpg,stim_fb/posf.jpg,stim_01/b.jpg,stim_01/a.jpg,1,1,f,2,18,138,2,f,1,0.699771105486,01,02,60.0134905712,PLT_learning_01,B,2014_Mrz_26_1747,P30,
stim_fb/ques.jpg,stim_fb/negf.jpg,stim_fb/posf.jpg,stim_01/b.jpg,stim_01/a.jpg,1,1,f,2,19,139,7,j,0,0.799749337224,01,02,60.0134905712,PLT_learning_01,B,2014_Mrz_26_1747,P30,
stim_fb/ques.jpg,stim_fb/posf.jpg,stim_fb/negf.jpg,stim_01/c.jpg,stim_01/d.jpg,2,2,j,2,20,140,39,f,0,0.566550317664,01,02,60.0134905712,PLT_learning_01,B,2014_Mrz_26_1747,P30,
stim_fb/ques.jpg,stim_fb/negf.jpg,stim_fb/posf.jpg,stim_01/d.jpg,stim_01/c.jpg,1,2,f,2,21,141,24,j,0,0.599863676216,01,02,60.0134905712,PLT_learning_01,B,2014_Mrz_26_1747,P30,
stim_fb/ques.jpg,stim_fb/negf.jpg,stim_fb/posf.jpg,stim_01/b.jpg,stim_01/a.jpg,1,1,f,2,22,142,0,f,1,0.733113702903,01,02,60.0134905712,PLT_learning_01,B,2014_Mrz_26_1747,P30,
stim_fb/ques.jpg,stim_fb/posf.jpg,stim_fb/negf.jpg,stim_01/c.jpg,stim_01/d.jpg,2,2,j,2,23,143,38,f,0,0.60011103977,01,02,60.0134905712,PLT_learning_01,B,2014_Mrz_26_1747,P30,
stim_fb/ques.jpg,stim_fb/negf.jpg,stim_fb/posf.jpg,stim_01/b.jpg,stim_01/a.jpg,1,1,f,2,24,144,6,f,1,0.73315486651,01,02,60.0134905712,PLT_learning_01,B,2014_Mrz_26_1747,P30,
stim_fb/ques.jpg,stim_fb/negf.jpg,stim_fb/posf.jpg,stim_01/b.jpg,stim_01/a.jpg,1,1,f,2,25,145,1,f,1,0.566574876881,01,02,60.0134905712,PLT_learning_01,B,2014_Mrz_26_1747,P30,
stim_fb/ques.jpg,stim_fb/posf.jpg,stim_fb/negf.jpg,stim_01/e.jpg,stim_01/f.jpg,2,3,j,2,26,146,59,j,1,0.54982676221,01,02,60.0134905712,PLT_learning_01,B,2014_Mrz_26_1747,P30,
stim_fb/ques.jpg,stim_fb/posf.jpg,stim_fb/negf.jpg,stim_01/a.jpg,stim_01/b.jpg,2,1,j,2,27,147,19,f,0,0.566526368973,01,02,60.0134905712,PLT_learning_01,B,2014_Mrz_26_1747,P30,
stim_fb/ques.jpg,stim_fb/negf.jpg,stim_fb/posf.jpg,stim_01/e.jpg,stim_01/f.jpg,2,3,j,2,28,148,54,j,1,0.566537238068,01,02,60.0134905712,PLT_learning_01,B,2014_Mrz_26_1747,P30,
stim_fb/ques.jpg,stim_fb/posf.jpg,stim_fb/negf.jpg,stim_01/e.jpg,stim_01/f.jpg,2,3,j,2,29,149,57,j,1,1.01637229194,01,02,60.0134905712,PLT_learning_01,B,2014_Mrz_26_1747,P30,
stim_fb/ques.jpg,stim_fb/negf.jpg,stim_fb/posf.jpg,stim_01/d.jpg,stim_01/c.jpg,1,2,f,2,30,150,25,j,0,1.13302551409,01,02,60.0134905712,PLT_learning_01,B,2014_Mrz_26_1747,P30,
stim_fb/ques.jpg,stim_fb/posf.jpg,stim_fb/negf.jpg,stim_01/f.jpg,stim_01/e.jpg,1,3,f,2,31,151,49,f,1,0.549941392921,01,02,60.0134905712,PLT_learning_01,B,2014_Mrz_26_1747,P30,
stim_fb/ques.jpg,stim_fb/negf.jpg,stim_fb/posf.jpg,stim_01/c.jpg,stim_01/d.jpg,2,2,j,2,32,152,36,f,0,0.599856031156,01,02,60.0134905712,PLT_learning_01,B,2014_Mrz_26_1747,P30,
stim_fb/ques.jpg,stim_fb/negf.jpg,stim_fb/posf.jpg,stim_01/b.jpg,stim_01/a.jpg,1,1,f,2,33,153,4,f,1,0.749647707911,01,02,60.0134905712,PLT_learning_01,B,2014_Mrz_26_1747,P30,
stim_fb/ques.jpg,stim_fb/negf.jpg,stim_fb/posf.jpg,stim_01/a.jpg,stim_01/b.jpg,2,1,j,2,34,154,14,j,1,0.783114205151,01,02,60.0134905712,PLT_learning_01,B,2014_Mrz_26_1747,P30,
stim_fb/ques.jpg,stim_fb/negf.jpg,stim_fb/posf.jpg,stim_01/e.jpg,stim_01/f.jpg,2,3,j,2,35,155,55,f,0,0.616496372204,01,02,60.0134905712,PLT_learning_01,B,2014_Mrz_26_1747,P30,
stim_fb/ques.jpg,stim_fb/negf.jpg,stim_fb/posf.jpg,stim_01/a.jpg,stim_01/b.jpg,2,1,j,2,36,156,11,j,1,0.6331001,01,02,60.0134905712,PLT_learning_01,B,2014_Mrz_26_1747,P30,
stim_fb/ques.jpg,stim_fb/negf.jpg,stim_fb/posf.jpg,stim_01/c.jpg,stim_01/d.jpg,2,2,j,2,37,157,32,f,0,0.649822647945,01,02,60.0134905712,PLT_learning_01,B,2014_Mrz_26_1747,P30,
stim_fb/ques.jpg,stim_fb/negf.jpg,stim_fb/posf.jpg,stim_01/a.jpg,stim_01/b.jpg,2,1,j,2,38,158,16,j,1,0.64983476515,01,02,60.0134905712,PLT_learning_01,B,2014_Mrz_26_1747,P30,
stim_fb/ques.jpg,stim_fb/negf.jpg,stim_fb/posf.jpg,stim_01/d.jpg,stim_01/c.jpg,1,2,f,2,39,159,20,j,0,0.499851351495,01,02,60.0134905712,PLT_learning_01,B,2014_Mrz_26_1747,P30,
stim_fb/ques.jpg,stim_fb/negf.jpg,stim_fb/posf.jpg,stim_01/e.jpg,stim_01/f.jpg,2,3,j,2,40,160,50,f,0,0.583190225632,01,02,60.0134905712,PLT_learning_01,B,2014_Mrz_26_1747,P30,
stim_fb/ques.jpg,stim_fb/negf.jpg,stim_fb/posf.jpg,stim_01/c.jpg,stim_01/d.jpg,2,2,j,2,41,161,33,f,0,0.566534865153,01,02,60.0134905712,PLT_learning_01,B,2014_Mrz_26_1747,P30,
stim_fb/ques.jpg,stim_fb/negf.jpg,stim_fb/posf.jpg,stim_01/d.jpg,stim_01/c.jpg,1,2,f,2,42,162,26,j,0,0.516521575024,01,02,60.0134905712,PLT_learning_01,B,2014_Mrz_26_1747,P30,
stim_fb/ques.jpg,stim_fb/negf.jpg,stim_fb/posf.jpg,stim_01/b.jpg,stim_01/a.jpg,1,1,f,2,43,163,5,j,0,0.516554440946,01,02,60.0134905712,PLT_learning_01,B,2014_Mrz_26_1747,P30,
stim_fb/ques.jpg,stim_fb/negf.jpg,stim_fb/posf.jpg,stim_01/e.jpg,stim_01/f.jpg,2,3,j,2,44,164,51,f,0,0.499888954218,01,02,60.0134905712,PLT_learning_01,B,2014_Mrz_26_1747,P30,
stim_fb/ques.jpg,stim_fb/negf.jpg,stim_fb/posf.jpg,stim_01/a.jpg,stim_01/b.jpg,2,1,j,2,45,165,10,j,1,0.866395248158,01,02,60.0134905712,PLT_learning_01,B,2014_Mrz_26_1747,P30,
stim_fb/ques.jpg,stim_fb/posf.jpg,stim_fb/negf.jpg,stim_01/c.jpg,stim_01/d.jpg,2,2,j,2,46,166,37,f,0,0.816444760567,01,02,60.0134905712,PLT_learning_01,B,2014_Mrz_26_1747,P30,
stim_fb/ques.jpg,stim_fb/posf.jpg,stim_fb/negf.jpg,stim_01/d.jpg,stim_01/c.jpg,1,2,f,2,47,167,28,j,0,0.699883333211,01,02,60.0134905712,PLT_learning_01,B,2014_Mrz_26_1747,P30,
stim_fb/ques.jpg,stim_fb/posf.jpg,stim_fb/negf.jpg,stim_01/b.jpg,stim_01/a.jpg,1,1,f,2,48,168,9,f,1,0.766475418983,01,02,60.0134905712,PLT_learning_01,B,2014_Mrz_26_1747,P30,
stim_fb/ques.jpg,stim_fb/posf.jpg,stim_fb/negf.jpg,stim_01/d.jpg,stim_01/c.jpg,1,2,f,2,49,169,29,j,0,0.599848301892,01,02,60.0134905712,PLT_learning_01,B,2014_Mrz_26_1747,P30,
stim_fb/ques.jpg,stim_fb/negf.jpg,stim_fb/posf.jpg,stim_01/d.jpg,stim_01/c.jpg,1,2,f,2,50,170,21,j,0,0.649890809844,01,02,60.0134905712,PLT_learning_01,B,2014_Mrz_26_1747,P30,
stim_fb/ques.jpg,stim_fb/posf.jpg,stim_fb/negf.jpg,stim_01/f.jpg,stim_01/e.jpg,1,3,f,2,51,171,48,j,0,0.616547968806,01,02,60.0134905712,PLT_learning_01,B,2014_Mrz_26_1747,P30,
stim_fb/ques.jpg,stim_fb/posf.jpg,stim_fb/negf.jpg,stim_01/a.jpg,stim_01/b.jpg,2,1,j,2,52,172,18,j,1,0.733134232069,01,02,60.0134905712,PLT_learning_01,B,2014_Mrz_26_1747,P30,
stim_fb/ques.jpg,stim_fb/negf.jpg,stim_fb/posf.jpg,stim_01/f.jpg,stim_01/e.jpg,1,3,f,2,53,173,40,f,1,0.66650280825,01,02,60.0134905712,PLT_learning_01,B,2014_Mrz_26_1747,P30,
stim_fb/ques.jpg,stim_fb/negf.jpg,stim_fb/posf.jpg,stim_01/f.jpg,stim_01/e.jpg,1,3,f,2,54,174,42,f,1,0.716504681914,01,02,60.0134905712,PLT_learning_01,B,2014_Mrz_26_1747,P30,
stim_fb/ques.jpg,stim_fb/negf.jpg,stim_fb/posf.jpg,stim_01/f.jpg,stim_01/e.jpg,1,3,f,2,55,175,45,f,1,0.616519944961,01,02,60.0134905712,PLT_learning_01,B,2014_Mrz_26_1747,P30,
stim_fb/ques.jpg,stim_fb/posf.jpg,stim_fb/negf.jpg,stim_01/e.jpg,stim_01/f.jpg,2,3,j,2,56,176,56,j,1,0.733115681833,01,02,60.0134905712,PLT_learning_01,B,2014_Mrz_26_1747,P30,
stim_fb/ques.jpg,stim_fb/posf.jpg,stim_fb/negf.jpg,stim_01/d.jpg,stim_01/c.jpg,1,2,f,2,57,177,27,j,0,0.78313988015,01,02,60.0134905712,PLT_learning_01,B,2014_Mrz_26_1747,P30,
stim_fb/ques.jpg,stim_fb/negf.jpg,stim_fb/posf.jpg,stim_01/c.jpg,stim_01/d.jpg,2,2,j,2,58,178,30,f,0,0.566512633741,01,02,60.0134905712,PLT_learning_01,B,2014_Mrz_26_1747,P30,
stim_fb/ques.jpg,stim_fb/negf.jpg,stim_fb/posf.jpg,stim_01/d.jpg,stim_01/c.jpg,1,2,f,2,59,179,23,j,0,0.483235626802,01,02,60.0134905712,PLT_learning_01,B,2014_Mrz_26_1747,P30,
stim_fb/ques.jpg,stim_fb/posf.jpg,stim_fb/negf.jpg,stim_01/d.jpg,stim_01/c.jpg,1,2,f,3,0,180,27,None,0,,01,02,60.0134905712,PLT_learning_01,B,2014_Mrz_26_1747,P30,
stim_fb/ques.jpg,stim_fb/negf.jpg,stim_fb/posf.jpg,stim_01/a.jpg,stim_01/b.jpg,2,1,j,3,1,181,12,j,1,0.633171723523,01,02,60.0134905712,PLT_learning_01,B,2014_Mrz_26_1747,P30,
stim_fb/ques.jpg,stim_fb/posf.jpg,stim_fb/negf.jpg,stim_01/e.jpg,stim_01/f.jpg,2,3,j,3,2,182,56,f,0,0.649800365412,01,02,60.0134905712,PLT_learning_01,B,2014_Mrz_26_1747,P30,
stim_fb/ques.jpg,stim_fb/posf.jpg,stim_fb/negf.jpg,stim_01/f.jpg,stim_01/e.jpg,1,3,f,3,3,183,49,j,0,0.64980646161,01,02,60.0134905712,PLT_learning_01,B,2014_Mrz_26_1747,P30,
stim_fb/ques.jpg,stim_fb/negf.jpg,stim_fb/posf.jpg,stim_01/e.jpg,stim_01/f.jpg,2,3,j,3,4,184,52,f,0,0.683166839342,01,02,60.0134905712,PLT_learning_01,B,2014_Mrz_26_1747,P30,
stim_fb/ques.jpg,stim_fb/posf.jpg,stim_fb/negf.jpg,stim_01/c.jpg,stim_01/d.jpg,2,2,j,3,5,185,37,f,0,0.566470381425,01,02,60.0134905712,PLT_learning_01,B,2014_Mrz_26_1747,P30,
stim_fb/ques.jpg,stim_fb/negf.jpg,stim_fb/posf.jpg,stim_01/f.jpg,stim_01/e.jpg,1,3,f,3,6,186,45,j,0,0.633125314846,01,02,60.0134905712,PLT_learning_01,B,2014_Mrz_26_1747,P30,
stim_fb/ques.jpg,stim_fb/negf.jpg,stim_fb/posf.jpg,stim_01/e.jpg,stim_01/f.jpg,2,3,j,3,7,187,55,f,0,0.599856554458,01,02,60.0134905712,PLT_learning_01,B,2014_Mrz_26_1747,P30,
stim_fb/ques.jpg,stim_fb/negf.jpg,stim_fb/posf.jpg,stim_01/d.jpg,stim_01/c.jpg,1,2,f,3,8,188,26,j,0,0.43323602379,01,02,60.0134905712,PLT_learning_01,B,2014_Mrz_26_1747,P30,
stim_fb/ques.jpg,stim_fb/negf.jpg,stim_fb/posf.jpg,stim_01/c.jpg,stim_01/d.jpg,2,2,j,3,9,189,33,f,0,0.566487039949,01,02,60.0134905712,PLT_learning_01,B,2014_Mrz_26_1747,P30,
stim_fb/ques.jpg,stim_fb/negf.jpg,stim_fb/posf.jpg,stim_01/e.jpg,stim_01/f.jpg,2,3,j,3,10,190,53,j,1,0.649875038529,01,02,60.0134905712,PLT_learning_01,B,2014_Mrz_26_1747,P30,
stim_fb/ques.jpg,stim_fb/negf.jpg,stim_fb/posf.jpg,stim_01/b.jpg,stim_01/a.jpg,1,1,f,3,11,191,7,f,1,0.649805658606,01,02,60.0134905712,PLT_learning_01,B,2014_Mrz_26_1747,P30,
stim_fb/ques.jpg,stim_fb/posf.jpg,stim_fb/negf.jpg,stim_01/e.jpg,stim_01/f.jpg,2,3,j,3,12,192,59,j,1,0.61651230893,01,02,60.0134905712,PLT_learning_01,B,2014_Mrz_26_1747,P30,
stim_fb/ques.jpg,stim_fb/negf.jpg,stim_fb/posf.jpg,stim_01/c.jpg,stim_01/d.jpg,2,2,j,3,13,193,34,j,1,0.53325405674,01,02,60.0134905712,PLT_learning_01,B,2014_Mrz_26_1747,P30,
stim_fb/ques.jpg,stim_fb/negf.jpg,stim_fb/posf.jpg,stim_01/d.jpg,stim_01/c.jpg,1,2,f,3,14,194,21,j,0,0.616548711667,01,02,60.0134905712,PLT_learning_01,B,2014_Mrz_26_1747,P30,
stim_fb/ques.jpg,stim_fb/negf.jpg,stim_fb/posf.jpg,stim_01/b.jpg,stim_01/a.jpg,1,1,f,3,15,195,6,f,1,0.733133435082,01,02,60.0134905712,PLT_learning_01,B,2014_Mrz_26_1747,P30,
stim_fb/ques.jpg,stim_fb/negf.jpg,stim_fb/posf.jpg,stim_01/f.jpg,stim_01/e.jpg,1,3,f,3,16,196,44,f,1,1.08302549304,01,02,60.0134905712,PLT_learning_01,B,2014_Mrz_26_1747,P30,
stim_fb/ques.jpg,stim_fb/negf.jpg,stim_fb/posf.jpg,stim_01/e.jpg,stim_01/f.jpg,2,3,j,3,17,197,51,j,1,0.749734119294,01,02,60.0134905712,PLT_learning_01,B,2014_Mrz_26_1747,P30,
stim_fb/ques.jpg,stim_fb/posf.jpg,stim_fb/negf.jpg,stim_01/c.jpg,stim_01/d.jpg,2,2,j,3,18,198,38,f,0,0.716481027965,01,02,60.0134905712,PLT_learning_01,B,2014_Mrz_26_1747,P30,
stim_fb/ques.jpg,stim_fb/negf.jpg,stim_fb/posf.jpg,stim_01/a.jpg,stim_01/b.jpg,2,1,j,3,19,199,11,f,0,0.849784404629,01,02,60.0134905712,PLT_learning_01,B,2014_Mrz_26_1747,P30,
stim_fb/ques.jpg,stim_fb/negf.jpg,stim_fb/posf.jpg,stim_01/b.jpg,stim_01/a.jpg,1,1,f,3,20,200,1,f,1,0.599833053886,01,02,60.0134905712,PLT_learning_01,B,2014_Mrz_26_1747,P30,
stim_fb/ques.jpg,stim_fb/negf.jpg,stim_fb/posf.jpg,stim_01/a.jpg,stim_01/b.jpg,2,1,j,3,21,201,10,j,1,0.649882178332,01,02,60.0134905712,PLT_learning_01,B,2014_Mrz_26_1747,P30,
stim_fb/ques.jpg,stim_fb/negf.jpg,stim_fb/posf.jpg,stim_01/c.jpg,stim_01/d.jpg,2,2,j,3,22,202,32,f,0,0.549901384198,01,02,60.0134905712,PLT_learning_01,B,2014_Mrz_26_1747,P30,
stim_fb/ques.jpg,stim_fb/posf.jpg,stim_fb/negf.jpg,stim_01/e.jpg,stim_01/f.jpg,2,3,j,3,23,203,57,j,1,0.616518868279,01,02,60.0134905712,PLT_learning_01,B,2014_Mrz_26_1747,P30,
stim_fb/ques.jpg,stim_fb/negf.jpg,stim_fb/posf.jpg,stim_01/c.jpg,stim_01/d.jpg,2,2,j,3,24,204,30,f,0,0.666327023107,01,02,60.0134905712,PLT_learning_01,B,2014_Mrz_26_1747,P30,
stim_fb/ques.jpg,stim_fb/negf.jpg,stim_fb/posf.jpg,stim_01/d.jpg,stim_01/c.jpg,1,2,f,3,25,205,23,j,0,0.633217479568,01,02,60.0134905712,PLT_learning_01,B,2014_Mrz_26_1747,P30,
stim_fb/ques.jpg,stim_fb/posf.jpg,stim_fb/negf.jpg,stim_01/b.jpg,stim_01/a.jpg,1,1,f,3,26,206,8,f,1,0.783083772309,01,02,60.0134905712,PLT_learning_01,B,2014_Mrz_26_1747,P30,
stim_fb/ques.jpg,stim_fb/negf.jpg,stim_fb/posf.jpg,stim_01/f.jpg,stim_01/e.jpg,1,3,f,3,27,207,41,f,1,0.78312922459,01,02,60.0134905712,PLT_learning_01,B,2014_Mrz_26_1747,P30,
stim_fb/ques.jpg,stim_fb/negf.jpg,stim_fb/posf.jpg,stim_01/b.jpg,stim_01/a.jpg,1,1,f,3,28,208,5,f,1,0.533202084196,01,02,60.0134905712,PLT_learning_01,B,2014_Mrz_26_1747,P30,
stim_fb/ques.jpg,stim_fb/negf.jpg,stim_fb/posf.jpg,stim_01/e.jpg,stim_01/f.jpg,2,3,j,3,29,209,54,f,0,0.63318223472,01,02,60.0134905712,PLT_learning_01,B,2014_Mrz_26_1747,P30,
stim_fb/ques.jpg,stim_fb/posf.jpg,stim_fb/negf.jpg,stim_01/f.jpg,stim_01/e.jpg,1,3,f,3,30,210,47,j,0,0.599920984052,01,02,60.0134905712,PLT_learning_01,B,2014_Mrz_26_1747,P30,
stim_fb/ques.jpg,stim_fb/negf.jpg,stim_fb/posf.jpg,stim_01/d.jpg,stim_01/c.jpg,1,2,f,3,31,211,20,j,0,0.56653509372,01,02,60.0134905712,PLT_learning_01,B,2014_Mrz_26_1747,P30,
stim_fb/ques.jpg,stim_fb/posf.jpg,stim_fb/negf.jpg,stim_01/d.jpg,stim_01/c.jpg,1,2,f,3,32,212,29,f,1,0.199943257569,01,02,60.0134905712,PLT_learning_01,B,2014_Mrz_26_1747,P30,
stim_fb/ques.jpg,stim_fb/negf.jpg,stim_fb/posf.jpg,stim_01/f.jpg,stim_01/e.jpg,1,3,f,3,33,213,43,f,1,0.516487106113,01,02,60.0134905712,PLT_learning_01,B,2014_Mrz_26_1747,P30,
stim_fb/ques.jpg,stim_fb/negf.jpg,stim_fb/posf.jpg,stim_01/b.jpg,stim_01/a.jpg,1,1,f,3,34,214,3,j,0,0.599883979819,01,02,60.0134905712,PLT_learning_01,B,2014_Mrz_26_1747,P30,
stim_fb/ques.jpg,stim_fb/posf.jpg,stim_fb/negf.jpg,stim_01/b.jpg,stim_01/a.jpg,1,1,f,3,35,215,9,f,1,0.583168875419,01,02,60.0134905712,PLT_learning_01,B,2014_Mrz_26_1747,P30,
stim_fb/ques.jpg,stim_fb/posf.jpg,stim_fb/negf.jpg,stim_01/d.jpg,stim_01/c.jpg,1,2,f,3,36,216,28,j,0,0.549894280499,01,02,60.0134905712,PLT_learning_01,B,2014_Mrz_26_1747,P30,
stim_fb/ques.jpg,stim_fb/posf.jpg,stim_fb/negf.jpg,stim_01/a.jpg,stim_01/b.jpg,2,1,j,3,37,217,19,f,0,0.499882232463,01,02,60.0134905712,PLT_learning_01,B,2014_Mrz_26_1747,P30,
stim_fb/ques.jpg,stim_fb/negf.jpg,stim_fb/posf.jpg,stim_01/f.jpg,stim_01/e.jpg,1,3,f,3,38,218,42,f,1,0.633141272621,01,02,60.0134905712,PLT_learning_01,B,2014_Mrz_26_1747,P30,
stim_fb/ques.jpg,stim_fb/negf.jpg,stim_fb/posf.jpg,stim_01/c.jpg,stim_01/d.jpg,2,2,j,3,39,219,36,f,0,0.666505349582,01,02,60.0134905712,PLT_learning_01,B,2014_Mrz_26_1747,P30,
stim_fb/ques.jpg,stim_fb/negf.jpg,stim_fb/posf.jpg,stim_01/d.jpg,stim_01/c.jpg,1,2,f,3,40,220,25,j,0,0.416587264757,01,02,60.0134905712,PLT_learning_01,B,2014_Mrz_26_1747,P30,
stim_fb/ques.jpg,stim_fb/negf.jpg,stim_fb/posf.jpg,stim_01/a.jpg,stim_01/b.jpg,2,1,j,3,41,221,16,j,1,0.84981416681,01,02,60.0134905712,PLT_learning_01,B,2014_Mrz_26_1747,P30,
stim_fb/ques.jpg,stim_fb/posf.jpg,stim_fb/negf.jpg,stim_01/e.jpg,stim_01/f.jpg,2,3,j,3,42,222,58,f,0,0.633184511396,01,02,60.0134905712,PLT_learning_01,B,2014_Mrz_26_1747,P30,
stim_fb/ques.jpg,stim_fb/negf.jpg,stim_fb/posf.jpg,stim_01/f.jpg,stim_01/e.jpg,1,3,f,3,43,223,40,f,1,0.699793604566,01,02,60.0134905712,PLT_learning_01,B,2014_Mrz_26_1747,P30,
stim_fb/ques.jpg,stim_fb/negf.jpg,stim_fb/posf.jpg,stim_01/b.jpg,stim_01/a.jpg,1,1,f,3,44,224,0,f,1,0.666500149622,01,02,60.0134905712,PLT_learning_01,B,2014_Mrz_26_1747,P30,
stim_fb/ques.jpg,stim_fb/posf.jpg,stim_fb/negf.jpg,stim_01/f.jpg,stim_01/e.jpg,1,3,f,3,45,225,48,f,1,0.583176249798,01,02,60.0134905712,PLT_learning_01,B,2014_Mrz_26_1747,P30,
stim_fb/ques.jpg,stim_fb/negf.jpg,stim_fb/posf.jpg,stim_01/c.jpg,stim_01/d.jpg,2,2,j,3,46,226,35,f,0,0.633167669417,01,02,60.0134905712,PLT_learning_01,B,2014_Mrz_26_1747,P30,
stim_fb/ques.jpg,stim_fb/negf.jpg,stim_fb/posf.jpg,stim_01/b.jpg,stim_01/a.jpg,1,1,f,3,47,227,2,f,1,0.516516781077,01,02,60.0134905712,PLT_learning_01,B,2014_Mrz_26_1747,P30,
stim_fb/ques.jpg,stim_fb/posf.jpg,stim_fb/negf.jpg,stim_01/c.jpg,stim_01/d.jpg,2,2,j,3,48,228,39,f,0,0.516552946217,01,02,60.0134905712,PLT_learning_01,B,2014_Mrz_26_1747,P30,
stim_fb/ques.jpg,stim_fb/negf.jpg,stim_fb/posf.jpg,stim_01/d.jpg,stim_01/c.jpg,1,2,f,3,49,229,24,j,0,0.549896319571,01,02,60.0134905712,PLT_learning_01,B,2014_Mrz_26_1747,P30,
stim_fb/ques.jpg,stim_fb/negf.jpg,stim_fb/posf.jpg,stim_01/d.jpg,stim_01/c.jpg,1,2,f,3,50,230,22,j,0,0.516553553731,01,02,60.0134905712,PLT_learning_01,B,2014_Mrz_26_1747,P30,
stim_fb/ques.jpg,stim_fb/posf.jpg,stim_fb/negf.jpg,stim_01/f.jpg,stim_01/e.jpg,1,3,f,3,51,231,46,f,1,0.533217190852,01,02,60.0134905712,PLT_learning_01,B,2014_Mrz_26_1747,P30,
stim_fb/ques.jpg,stim_fb/negf.jpg,stim_fb/posf.jpg,stim_01/a.jpg,stim_01/b.jpg,2,1,j,3,52,232,14,j,1,0.666501749613,01,02,60.0134905712,PLT_learning_01,B,2014_Mrz_26_1747,P30,
stim_fb/ques.jpg,stim_fb/posf.jpg,stim_fb/negf.jpg,stim_01/a.jpg,stim_01/b.jpg,2,1,j,3,53,233,18,f,0,0.533236721531,01,02,60.0134905712,PLT_learning_01,B,2014_Mrz_26_1747,P30,
stim_fb/ques.jpg,stim_fb/negf.jpg,stim_fb/posf.jpg,stim_01/a.jpg,stim_01/b.jpg,2,1,j,3,54,234,13,f,0,0.684134844094,01,02,60.0134905712,PLT_learning_01,B,2014_Mrz_26_1747,P30,
stim_fb/ques.jpg,stim_fb/negf.jpg,stim_fb/posf.jpg,stim_01/e.jpg,stim_01/f.jpg,2,3,j,3,55,235,50,f,0,0.683145456045,01,02,60.0134905712,PLT_learning_01,B,2014_Mrz_26_1747,P30,
stim_fb/ques.jpg,stim_fb/negf.jpg,stim_fb/posf.jpg,stim_01/c.jpg,stim_01/d.jpg,2,2,j,3,56,236,31,f,0,0.633180346013,01,02,60.0134905712,PLT_learning_01,B,2014_Mrz_26_1747,P30,
stim_fb/ques.jpg,stim_fb/negf.jpg,stim_fb/posf.jpg,stim_01/a.jpg,stim_01/b.jpg,2,1,j,3,57,237,17,j,1,0.633185410632,01,02,60.0134905712,PLT_learning_01,B,2014_Mrz_26_1747,P30,
stim_fb/ques.jpg,stim_fb/negf.jpg,stim_fb/posf.jpg,stim_01/a.jpg,stim_01/b.jpg,2,1,j,3,58,238,15,j,1,0.516533824557,01,02,60.0134905712,PLT_learning_01,B,2014_Mrz_26_1747,P30,
stim_fb/ques.jpg,stim_fb/negf.jpg,stim_fb/posf.jpg,stim_01/b.jpg,stim_01/a.jpg,1,1,f,3,59,239,4,f,1,0.549854196579,01,02,60.0134905712,PLT_learning_01,B,2014_Mrz_26_1747,P30,
stim_fb/ques.jpg,stim_fb/negf.jpg,stim_fb/posf.jpg,stim_01/a.jpg,stim_01/b.jpg,2,1,j,4,0,240,17,f,0,0.816446736491,01,02,60.0134905712,PLT_learning_01,B,2014_Mrz_26_1747,P30,
stim_fb/ques.jpg,stim_fb/negf.jpg,stim_fb/posf.jpg,stim_01/c.jpg,stim_01/d.jpg,2,2,j,4,1,241,32,f,0,0.549800335335,01,02,60.0134905712,PLT_learning_01,B,2014_Mrz_26_1747,P30,
stim_fb/ques.jpg,stim_fb/negf.jpg,stim_fb/posf.jpg,stim_01/d.jpg,stim_01/c.jpg,1,2,f,4,2,242,24,j,0,0.41655215525,01,02,60.0134905712,PLT_learning_01,B,2014_Mrz_26_1747,P30,
stim_fb/ques.jpg,stim_fb/negf.jpg,stim_fb/posf.jpg,stim_01/c.jpg,stim_01/d.jpg,2,2,j,4,3,243,30,f,0,0.533157910089,01,02,60.0134905712,PLT_learning_01,B,2014_Mrz_26_1747,P30,
stim_fb/ques.jpg,stim_fb/negf.jpg,stim_fb/posf.jpg,stim_01/e.jpg,stim_01/f.jpg,2,3,j,4,4,244,53,j,1,0.483208869111,01,02,60.0134905712,PLT_learning_01,B,2014_Mrz_26_1747,P30,
stim_fb/ques.jpg,stim_fb/negf.jpg,stim_fb/posf.jpg,stim_01/b.jpg,stim_01/a.jpg,1,1,f,4,5,245,3,f,1,0.483255127408,01,02,60.0134905712,PLT_learning_01,B,2014_Mrz_26_1747,P30,
stim_fb/ques.jpg,stim_fb/posf.jpg,stim_fb/negf.jpg,stim_01/f.jpg,stim_01/e.jpg,1,3,f,4,6,246,48,f,1,0.499893561704,01,02,60.0134905712,PLT_learning_01,B,2014_Mrz_26_1747,P30,
stim_fb/ques.jpg,stim_fb/posf.jpg,stim_fb/negf.jpg,stim_01/e.jpg,stim_01/f.jpg,2,3,j,4,7,247,59,f,0,0.533221711114,01,02,60.0134905712,PLT_learning_01,B,2014_Mrz_26_1747,P30,
stim_fb/ques.jpg,stim_fb/posf.jpg,stim_fb/negf.jpg,stim_01/e.jpg,stim_01/f.jpg,2,3,j,4,8,248,57,f,0,0.599842753065,01,02,60.0134905712,PLT_learning_01,B,2014_Mrz_26_1747,P30,
stim_fb/ques.jpg,stim_fb/negf.jpg,stim_fb/posf.jpg,stim_01/a.jpg,stim_01/b.jpg,2,1,j,4,9,249,11,j,1,0.649834518539,01,02,60.0134905712,PLT_learning_01,B,2014_Mrz_26_1747,P30,
stim_fb/ques.jpg,stim_fb/negf.jpg,stim_fb/posf.jpg,stim_01/b.jpg,stim_01/a.jpg,1,1,f,4,10,250,6,f,1,0.749806648069,01,02,60.0134905712,PLT_learning_01,B,2014_Mrz_26_1747,P30,
stim_fb/ques.jpg,stim_fb/negf.jpg,stim_fb/posf.jpg,stim_01/c.jpg,stim_01/d.jpg,2,2,j,4,11,251,33,f,0,0.466566209274,01,02,60.0134905712,PLT_learning_01,B,2014_Mrz_26_1747,P30,
stim_fb/ques.jpg,stim_fb/posf.jpg,stim_fb/negf.jpg,stim_01/c.jpg,stim_01/d.jpg,2,2,j,4,12,252,39,f,0,0.7164762701,01,02,60.0134905712,PLT_learning_01,B,2014_Mrz_26_1747,P30,
stim_fb/ques.jpg,stim_fb/negf.jpg,stim_fb/posf.jpg,stim_01/d.jpg,stim_01/c.jpg,1,2,f,4,13,253,23,j,0,0.483266682211,01,02,60.0134905712,PLT_learning_01,B,2014_Mrz_26_1747,P30,
stim_fb/ques.jpg,stim_fb/posf.jpg,stim_fb/negf.jpg,stim_01/d.jpg,stim_01/c.jpg,1,2,f,4,14,254,28,j,0,0.566537367391,01,02,60.0134905712,PLT_learning_01,B,2014_Mrz_26_1747,P30,
stim_fb/ques.jpg,stim_fb/negf.jpg,stim_fb/posf.jpg,stim_01/e.jpg,stim_01/f.jpg,2,3,j,4,15,255,50,f,0,0.51648677529,01,02,60.0134905712,PLT_learning_01,B,2014_Mrz_26_1747,P30,
stim_fb/ques.jpg,stim_fb/posf.jpg,stim_fb/negf.jpg,stim_01/f.jpg,stim_01/e.jpg,1,3,f,4,16,256,46,f,1,0.649845610184,01,02,60.0134905712,PLT_learning_01,B,2014_Mrz_26_1747,P30,
stim_fb/ques.jpg,stim_fb/negf.jpg,stim_fb/posf.jpg,stim_01/f.jpg,stim_01/e.jpg,1,3,f,4,17,257,42,j,0,0.483268017539,01,02,60.0134905712,PLT_learning_01,B,2014_Mrz_26_1747,P30,
stim_fb/ques.jpg,stim_fb/posf.jpg,stim_fb/negf.jpg,stim_01/e.jpg,stim_01/f.jpg,2,3,j,4,18,258,58,j,1,0.716486438447,01,02,60.0134905712,PLT_learning_01,B,2014_Mrz_26_1747,P30,
stim_fb/ques.jpg,stim_fb/posf.jpg,stim_fb/negf.jpg,stim_01/f.jpg,stim_01/e.jpg,1,3,f,4,19,259,49,j,0,0.39988615123,01,02,60.0134905712,PLT_learning_01,B,2014_Mrz_26_1747,P30,
stim_fb/ques.jpg,stim_fb/negf.jpg,stim_fb/posf.jpg,stim_01/f.jpg,stim_01/e.jpg,1,3,f,4,20,260,45,j,0,0.866426062959,01,02,60.0134905712,PLT_learning_01,B,2014_Mrz_26_1747,P30,
stim_fb/ques.jpg,stim_fb/negf.jpg,stim_fb/posf.jpg,stim_01/a.jpg,stim_01/b.jpg,2,1,j,4,21,261,14,j,1,0.832970849842,01,02,60.0134905712,PLT_learning_01,B,2014_Mrz_26_1747,P30,
stim_fb/ques.jpg,stim_fb/negf.jpg,stim_fb/posf.jpg,stim_01/f.jpg,stim_01/e.jpg,1,3,f,4,22,262,41,f,1,0.583201046611,01,02,60.0134905712,PLT_learning_01,B,2014_Mrz_26_1747,P30,
stim_fb/ques.jpg,stim_fb/negf.jpg,stim_fb/posf.jpg,stim_01/a.jpg,stim_01/b.jpg,2,1,j,4,23,263,16,j,1,0.683168337076,01,02,60.0134905712,PLT_learning_01,B,2014_Mrz_26_1747,P30,
stim_fb/ques.jpg,stim_fb/posf.jpg,stim_fb/negf.jpg,stim_01/b.jpg,stim_01/a.jpg,1,1,f,4,24,264,9,f,1,0.649854608608,01,02,60.0134905712,PLT_learning_01,B,2014_Mrz_26_1747,P30,
stim_fb/ques.jpg,stim_fb/negf.jpg,stim_fb/posf.jpg,stim_01/e.jpg,stim_01/f.jpg,2,3,j,4,25,265,54,f,0,0.649848007153,01,02,60.0134905712,PLT_learning_01,B,2014_Mrz_26_1747,P30,
stim_fb/ques.jpg,stim_fb/posf.jpg,stim_fb/negf.jpg,stim_01/e.jpg,stim_01/f.jpg,2,3,j,4,26,266,56,j,1,0.649828879483,01,02,60.0134905712,PLT_learning_01,B,2014_Mrz_26_1747,P30,
stim_fb/ques.jpg,stim_fb/negf.jpg,stim_fb/posf.jpg,stim_01/c.jpg,stim_01/d.jpg,2,2,j,4,27,267,31,f,0,0.599849243241,01,02,60.0134905712,PLT_learning_01,B,2014_Mrz_26_1747,P30,
stim_fb/ques.jpg,stim_fb/negf.jpg,stim_fb/posf.jpg,stim_01/a.jpg,stim_01/b.jpg,2,1,j,4,28,268,13,j,1,0.849812623965,01,02,60.0134905712,PLT_learning_01,B,2014_Mrz_26_1747,P30,
stim_fb/ques.jpg,stim_fb/negf.jpg,stim_fb/posf.jpg,stim_01/d.jpg,stim_01/c.jpg,1,2,f,4,29,269,25,j,0,0.583214306665,01,02,60.0134905712,PLT_learning_01,B,2014_Mrz_26_1747,P30,
stim_fb/ques.jpg,stim_fb/posf.jpg,stim_fb/negf.jpg,stim_01/c.jpg,stim_01/d.jpg,2,2,j,4,30,270,38,f,0,0.483225894539,01,02,60.0134905712,PLT_learning_01,B,2014_Mrz_26_1747,P30,
stim_fb/ques.jpg,stim_fb/negf.jpg,stim_fb/posf.jpg,stim_01/d.jpg,stim_01/c.jpg,1,2,f,4,31,271,22,j,0,0.533183221181,01,02,60.0134905712,PLT_learning_01,B,2014_Mrz_26_1747,P30,
stim_fb/ques.jpg,stim_fb/posf.jpg,stim_fb/negf.jpg,stim_01/c.jpg,stim_01/d.jpg,2,2,j,4,32,272,37,f,0,0.599840945557,01,02,60.0134905712,PLT_learning_01,B,2014_Mrz_26_1747,P30,
stim_fb/ques.jpg,stim_fb/negf.jpg,stim_fb/posf.jpg,stim_01/c.jpg,stim_01/d.jpg,2,2,j,4,33,273,36,f,0,0.483261816073,01,02,60.0134905712,PLT_learning_01,B,2014_Mrz_26_1747,P30,
stim_fb/ques.jpg,stim_fb/negf.jpg,stim_fb/posf.jpg,stim_01/b.jpg,stim_01/a.jpg,1,1,f,4,34,274,7,f,1,0.533205645072,01,02,60.0134905712,PLT_learning_01,B,2014_Mrz_26_1747,P30,
stim_fb/ques.jpg,stim_fb/posf.jpg,stim_fb/negf.jpg,stim_01/f.jpg,stim_01/e.jpg,1,3,f,4,35,275,47,f,1,0.48325473944,01,02,60.0134905712,PLT_learning_01,B,2014_Mrz_26_1747,P30,
stim_fb/ques.jpg,stim_fb/negf.jpg,stim_fb/posf.jpg,stim_01/d.jpg,stim_01/c.jpg,1,2,f,4,36,276,21,j,0,0.583243894405,01,02,60.0134905712,PLT_learning_01,B,2014_Mrz_26_1747,P30,
stim_fb/ques.jpg,stim_fb/posf.jpg,stim_fb/negf.jpg,stim_01/d.jpg,stim_01/c.jpg,1,2,f,4,37,277,29,j,0,0.516553141708,01,02,60.0134905712,PLT_learning_01,B,2014_Mrz_26_1747,P30,
stim_fb/ques.jpg,stim_fb/negf.jpg,stim_fb/posf.jpg,stim_01/e.jpg,stim_01/f.jpg,2,3,j,4,38,278,51,f,0,0.566540810971,01,02,60.0134905712,PLT_learning_01,B,2014_Mrz_26_1747,P30,
stim_fb/ques.jpg,stim_fb/negf.jpg,stim_fb/posf.jpg,stim_01/c.jpg,stim_01/d.jpg,2,2,j,4,39,279,34,f,0,0.566498736101,01,02,60.0134905712,PLT_learning_01,B,2014_Mrz_26_1747,P30,
stim_fb/ques.jpg,stim_fb/posf.jpg,stim_fb/negf.jpg,stim_01/d.jpg,stim_01/c.jpg,1,2,f,4,40,280,27,j,0,0.54986474989,01,02,60.0134905712,PLT_learning_01,B,2014_Mrz_26_1747,P30,
stim_fb/ques.jpg,stim_fb/posf.jpg,stim_fb/negf.jpg,stim_01/a.jpg,stim_01/b.jpg,2,1,j,4,41,281,19,f,0,0.56653347268,01,02,60.0134905712,PLT_learning_01,B,2014_Mrz_26_1747,P30,
stim_fb/ques.jpg,stim_fb/posf.jpg,stim_fb/negf.jpg,stim_01/b.jpg,stim_01/a.jpg,1,1,f,4,42,282,8,j,0,0.666528203554,01,02,60.0134905712,PLT_learning_01,B,2014_Mrz_26_1747,P30,
stim_fb/ques.jpg,stim_fb/negf.jpg,stim_fb/posf.jpg,stim_01/a.jpg,stim_01/b.jpg,2,1,j,4,43,283,10,f,0,0.583189780533,01,02,60.0134905712,PLT_learning_01,B,2014_Mrz_26_1747,P30,
stim_fb/ques.jpg,stim_fb/negf.jpg,stim_fb/posf.jpg,stim_01/b.jpg,stim_01/a.jpg,1,1,f,4,44,284,1,f,1,0.883112087875,01,02,60.0134905712,PLT_learning_01,B,2014_Mrz_26_1747,P30,
stim_fb/ques.jpg,stim_fb/negf.jpg,stim_fb/posf.jpg,stim_01/a.jpg,stim_01/b.jpg,2,1,j,4,45,285,12,j,1,1.46623412456,01,02,60.0134905712,PLT_learning_01,B,2014_Mrz_26_1747,P30,
stim_fb/ques.jpg,stim_fb/negf.jpg,stim_fb/posf.jpg,stim_01/f.jpg,stim_01/e.jpg,1,3,f,4,46,286,43,f,1,0.733120716388,01,02,60.0134905712,PLT_learning_01,B,2014_Mrz_26_1747,P30,
stim_fb/ques.jpg,stim_fb/negf.jpg,stim_fb/posf.jpg,stim_01/f.jpg,stim_01/e.jpg,1,3,f,4,47,287,44,j,0,0.599838112495,01,02,60.0134905712,PLT_learning_01,B,2014_Mrz_26_1747,P30,
stim_fb/ques.jpg,stim_fb/posf.jpg,stim_fb/negf.jpg,stim_01/a.jpg,stim_01/b.jpg,2,1,j,4,48,288,18,j,1,0.633174102455,01,02,60.0134905712,PLT_learning_01,B,2014_Mrz_26_1747,P30,
stim_fb/ques.jpg,stim_fb/negf.jpg,stim_fb/posf.jpg,stim_01/b.jpg,stim_01/a.jpg,1,1,f,4,49,289,4,j,0,0.799791066231,01,02,60.0134905712,PLT_learning_01,B,2014_Mrz_26_1747,P30,
stim_fb/ques.jpg,stim_fb/negf.jpg,stim_fb/posf.jpg,stim_01/b.jpg,stim_01/a.jpg,1,1,f,4,50,290,2,j,0,0.599857856709,01,02,60.0134905712,PLT_learning_01,B,2014_Mrz_26_1747,P30,
stim_fb/ques.jpg,stim_fb/negf.jpg,stim_fb/posf.jpg,stim_01/b.jpg,stim_01/a.jpg,1,1,f,4,51,291,5,j,0,0.549917519413,01,02,60.0134905712,PLT_learning_01,B,2014_Mrz_26_1747,P30,
stim_fb/ques.jpg,stim_fb/negf.jpg,stim_fb/posf.jpg,stim_01/d.jpg,stim_01/c.jpg,1,2,f,4,52,292,26,j,0,0.649823068998,01,02,60.0134905712,PLT_learning_01,B,2014_Mrz_26_1747,P30,
stim_fb/ques.jpg,stim_fb/negf.jpg,stim_fb/posf.jpg,stim_01/a.jpg,stim_01/b.jpg,2,1,j,4,53,293,15,j,1,0.649853375544,01,02,60.0134905712,PLT_learning_01,B,2014_Mrz_26_1747,P30,
stim_fb/ques.jpg,stim_fb/negf.jpg,stim_fb/posf.jpg,stim_01/e.jpg,stim_01/f.jpg,2,3,j,4,54,294,55,f,0,0.64980758942,01,02,60.0134905712,PLT_learning_01,B,2014_Mrz_26_1747,P30,
stim_fb/ques.jpg,stim_fb/negf.jpg,stim_fb/posf.jpg,stim_01/d.jpg,stim_01/c.jpg,1,2,f,4,55,295,20,j,0,0.516504552594,01,02,60.0134905712,PLT_learning_01,B,2014_Mrz_26_1747,P30,
stim_fb/ques.jpg,stim_fb/negf.jpg,stim_fb/posf.jpg,stim_01/b.jpg,stim_01/a.jpg,1,1,f,4,56,296,0,j,0,0.899737812499,01,02,60.0134905712,PLT_learning_01,B,2014_Mrz_26_1747,P30,
stim_fb/ques.jpg,stim_fb/negf.jpg,stim_fb/posf.jpg,stim_01/c.jpg,stim_01/d.jpg,2,2,j,4,57,297,35,f,0,0.516542453064,01,02,60.0134905712,PLT_learning_01,B,2014_Mrz_26_1747,P30,
stim_fb/ques.jpg,stim_fb/negf.jpg,stim_fb/posf.jpg,stim_01/e.jpg,stim_01/f.jpg,2,3,j,4,58,298,52,j,1,0.883071733297,01,02,60.0134905712,PLT_learning_01,B,2014_Mrz_26_1747,P30,
stim_fb/ques.jpg,stim_fb/negf.jpg,stim_fb/posf.jpg,stim_01/f.jpg,stim_01/e.jpg,1,3,f,4,59,299,40,f,1,0.666506324014,01,02,60.0134905712,PLT_learning_01,B,2014_Mrz_26_1747,P30,
stim_fb/ques.jpg,stim_fb/negf.jpg,stim_fb/posf.jpg,stim_01/a.jpg,stim_01/b.jpg,2,1,j,5,0,300,14,f,0,1.3162806024,01,02,60.0134905712,PLT_learning_01,B,2014_Mrz_26_1747,P30,
stim_fb/ques.jpg,stim_fb/posf.jpg,stim_fb/negf.jpg,stim_01/b.jpg,stim_01/a.jpg,1,1,f,5,1,301,8,j,0,0.633223214863,01,02,60.0134905712,PLT_learning_01,B,2014_Mrz_26_1747,P30,
stim_fb/ques.jpg,stim_fb/negf.jpg,stim_fb/posf.jpg,stim_01/a.jpg,stim_01/b.jpg,2,1,j,5,2,302,15,j,1,0.699829141136,01,02,60.0134905712,PLT_learning_01,B,2014_Mrz_26_1747,P30,
stim_fb/ques.jpg,stim_fb/negf.jpg,stim_fb/posf.jpg,stim_01/c.jpg,stim_01/d.jpg,2,2,j,5,3,303,31,f,0,0.583155347704,01,02,60.0134905712,PLT_learning_01,B,2014_Mrz_26_1747,P30,
stim_fb/ques.jpg,stim_fb/negf.jpg,stim_fb/posf.jpg,stim_01/b.jpg,stim_01/a.jpg,1,1,f,5,4,304,2,j,0,0.583460776987,01,02,60.0134905712,PLT_learning_01,B,2014_Mrz_26_1747,P30,
stim_fb/ques.jpg,stim_fb/negf.jpg,stim_fb/posf.jpg,stim_01/f.jpg,stim_01/e.jpg,1,3,f,5,5,305,43,j,0,0.466550982324,01,02,60.0134905712,PLT_learning_01,B,2014_Mrz_26_1747,P30,
stim_fb/ques.jpg,stim_fb/posf.jpg,stim_fb/negf.jpg,stim_01/e.jpg,stim_01/f.jpg,2,3,j,5,6,306,58,j,1,0.516573911475,01,02,60.0134905712,PLT_learning_01,B,2014_Mrz_26_1747,P30,
stim_fb/ques.jpg,stim_fb/negf.jpg,stim_fb/posf.jpg,stim_01/c.jpg,stim_01/d.jpg,2,2,j,5,7,307,34,f,0,0.499882674572,01,02,60.0134905712,PLT_learning_01,B,2014_Mrz_26_1747,P30,
stim_fb/ques.jpg,stim_fb/negf.jpg,stim_fb/posf.jpg,stim_01/c.jpg,stim_01/d.jpg,2,2,j,5,8,308,35,j,1,0.466558452943,01,02,60.0134905712,PLT_learning_01,B,2014_Mrz_26_1747,P30,
stim_fb/ques.jpg,stim_fb/posf.jpg,stim_fb/negf.jpg,stim_01/e.jpg,stim_01/f.jpg,2,3,j,5,9,309,59,j,1,0.499864590493,01,02,60.0134905712,PLT_learning_01,B,2014_Mrz_26_1747,P30,
stim_fb/ques.jpg,stim_fb/negf.jpg,stim_fb/posf.jpg,stim_01/a.jpg,stim_01/b.jpg,2,1,j,5,10,310,10,j,1,0.766457629645,01,02,60.0134905712,PLT_learning_01,B,2014_Mrz_26_1747,P30,
stim_fb/ques.jpg,stim_fb/negf.jpg,stim_fb/posf.jpg,stim_01/d.jpg,stim_01/c.jpg,1,2,f,5,11,311,21,j,0,0.849782678328,01,02,60.0134905712,PLT_learning_01,B,2014_Mrz_26_1747,P30,
stim_fb/ques.jpg,stim_fb/negf.jpg,stim_fb/posf.jpg,stim_01/d.jpg,stim_01/c.jpg,1,2,f,5,12,312,22,j,0,0.566510242781,01,02,60.0134905712,PLT_learning_01,B,2014_Mrz_26_1747,P30,
stim_fb/ques.jpg,stim_fb/posf.jpg,stim_fb/negf.jpg,stim_01/a.jpg,stim_01/b.jpg,2,1,j,5,13,313,18,j,1,0.649832353141,01,02,60.0134905712,PLT_learning_01,B,2014_Mrz_26_1747,P30,
stim_fb/ques.jpg,stim_fb/posf.jpg,stim_fb/negf.jpg,stim_01/b.jpg,stim_01/a.jpg,1,1,f,5,14,314,9,f,1,0.83309428049,01,02,60.0134905712,PLT_learning_01,B,2014_Mrz_26_1747,P30,
stim_fb/ques.jpg,stim_fb/negf.jpg,stim_fb/posf.jpg,stim_01/e.jpg,stim_01/f.jpg,2,3,j,5,15,315,52,j,1,0.533214093128,01,02,60.0134905712,PLT_learning_01,B,2014_Mrz_26_1747,P30,
stim_fb/ques.jpg,stim_fb/negf.jpg,stim_fb/posf.jpg,stim_01/b.jpg,stim_01/a.jpg,1,1,f,5,16,316,6,f,1,0.816443710952,01,02,60.0134905712,PLT_learning_01,B,2014_Mrz_26_1747,P30,
stim_fb/ques.jpg,stim_fb/negf.jpg,stim_fb/posf.jpg,stim_01/d.jpg,stim_01/c.jpg,1,2,f,5,17,317,20,j,0,0.899718308887,01,02,60.0134905712,PLT_learning_01,B,2014_Mrz_26_1747,P30,
stim_fb/ques.jpg,stim_fb/posf.jpg,stim_fb/negf.jpg,stim_01/a.jpg,stim_01/b.jpg,2,1,j,5,18,318,19,f,0,0.61653004714,01,02,60.0134905712,PLT_learning_01,B,2014_Mrz_26_1747,P30,
stim_fb/ques.jpg,stim_fb/posf.jpg,stim_fb/negf.jpg,stim_01/d.jpg,stim_01/c.jpg,1,2,f,5,19,319,28,j,0,0.449882918176,01,02,60.0134905712,PLT_learning_01,B,2014_Mrz_26_1747,P30,
stim_fb/ques.jpg,stim_fb/negf.jpg,stim_fb/posf.jpg,stim_01/a.jpg,stim_01/b.jpg,2,1,j,5,20,320,16,f,0,0.616542615469,01,02,60.0134905712,PLT_learning_01,B,2014_Mrz_26_1747,P30,
stim_fb/ques.jpg,stim_fb/negf.jpg,stim_fb/posf.jpg,stim_01/d.jpg,stim_01/c.jpg,1,2,f,5,21,321,26,j,0,0.483203515767,01,02,60.0134905712,PLT_learning_01,B,2014_Mrz_26_1747,P30,
stim_fb/ques.jpg,stim_fb/negf.jpg,stim_fb/posf.jpg,stim_01/d.jpg,stim_01/c.jpg,1,2,f,5,22,322,25,f,1,0.749797688739,01,02,60.0134905712,PLT_learning_01,B,2014_Mrz_26_1747,P30,
stim_fb/ques.jpg,stim_fb/negf.jpg,stim_fb/posf.jpg,stim_01/c.jpg,stim_01/d.jpg,2,2,j,5,23,323,32,f,0,0.483191900814,01,02,60.0134905712,PLT_learning_01,B,2014_Mrz_26_1747,P30,
stim_fb/ques.jpg,stim_fb/negf.jpg,stim_fb/posf.jpg,stim_01/d.jpg,stim_01/c.jpg,1,2,f,5,24,324,23,j,0,0.433225527624,01,02,60.0134905712,PLT_learning_01,B,2014_Mrz_26_1747,P30,
stim_fb/ques.jpg,stim_fb/negf.jpg,stim_fb/posf.jpg,stim_01/f.jpg,stim_01/e.jpg,1,3,f,5,25,325,44,j,0,0.76644367486,01,02,60.0134905712,PLT_learning_01,B,2014_Mrz_26_1747,P30,
stim_fb/ques.jpg,stim_fb/negf.jpg,stim_fb/posf.jpg,stim_01/b.jpg,stim_01/a.jpg,1,1,f,5,26,326,3,j,0,0.633185973042,01,02,60.0134905712,PLT_learning_01,B,2014_Mrz_26_1747,P30,
stim_fb/ques.jpg,stim_fb/posf.jpg,stim_fb/negf.jpg,stim_01/f.jpg,stim_01/e.jpg,1,3,f,5,27,327,47,f,1,0.649896662435,01,02,60.0134905712,PLT_learning_01,B,2014_Mrz_26_1747,P30,
stim_fb/ques.jpg,stim_fb/negf.jpg,stim_fb/posf.jpg,stim_01/e.jpg,stim_01/f.jpg,2,3,j,5,28,328,50,j,1,0.683170926532,01,02,60.0134905712,PLT_learning_01,B,2014_Mrz_26_1747,P30,
stim_fb/ques.jpg,stim_fb/negf.jpg,stim_fb/posf.jpg,stim_01/f.jpg,stim_01/e.jpg,1,3,f,5,29,329,42,f,1,0.583191882768,01,02,60.0134905712,PLT_learning_01,B,2014_Mrz_26_1747,P30,
stim_fb/ques.jpg,stim_fb/posf.jpg,stim_fb/negf.jpg,stim_01/f.jpg,stim_01/e.jpg,1,3,f,5,30,330,48,f,1,0.516565213795,01,02,60.0134905712,PLT_learning_01,B,2014_Mrz_26_1747,P30,
stim_fb/ques.jpg,stim_fb/negf.jpg,stim_fb/posf.jpg,stim_01/a.jpg,stim_01/b.jpg,2,1,j,5,31,331,13,f,0,0.616475536277,01,02,60.0134905712,PLT_learning_01,B,2014_Mrz_26_1747,P30,
stim_fb/ques.jpg,stim_fb/negf.jpg,stim_fb/posf.jpg,stim_01/a.jpg,stim_01/b.jpg,2,1,j,5,32,332,11,j,1,0.533255142436,01,02,60.0134905712,PLT_learning_01,B,2014_Mrz_26_1747,P30,
stim_fb/ques.jpg,stim_fb/negf.jpg,stim_fb/posf.jpg,stim_01/b.jpg,stim_01/a.jpg,1,1,f,5,33,333,5,f,1,0.449895291007,01,02,60.0134905712,PLT_learning_01,B,2014_Mrz_26_1747,P30,
stim_fb/ques.jpg,stim_fb/negf.jpg,stim_fb/posf.jpg,stim_01/f.jpg,stim_01/e.jpg,1,3,f,5,34,334,45,f,1,0.749796458673,01,02,60.0134905712,PLT_learning_01,B,2014_Mrz_26_1747,P30,
stim_fb/ques.jpg,stim_fb/posf.jpg,stim_fb/negf.jpg,stim_01/c.jpg,stim_01/d.jpg,2,2,j,5,35,335,39,j,1,0.683162252913,01,02,60.0134905712,PLT_learning_01,B,2014_Mrz_26_1747,P30,
stim_fb/ques.jpg,stim_fb/posf.jpg,stim_fb/negf.jpg,stim_01/e.jpg,stim_01/f.jpg,2,3,j,5,36,336,57,j,1,0.516558594296,01,02,60.0134905712,PLT_learning_01,B,2014_Mrz_26_1747,P30,
stim_fb/ques.jpg,stim_fb/negf.jpg,stim_fb/posf.jpg,stim_01/a.jpg,stim_01/b.jpg,2,1,j,5,37,337,17,j,1,0.96641990661,01,02,60.0134905712,PLT_learning_01,B,2014_Mrz_26_1747,P30,
stim_fb/ques.jpg,stim_fb/negf.jpg,stim_fb/posf.jpg,stim_01/c.jpg,stim_01/d.jpg,2,2,j,5,38,338,30,f,0,0.449932800504,01,02,60.0134905712,PLT_learning_01,B,2014_Mrz_26_1747,P30,
stim_fb/ques.jpg,stim_fb/negf.jpg,stim_fb/posf.jpg,stim_01/a.jpg,stim_01/b.jpg,2,1,j,5,39,339,12,j,1,0.416586299347,01,02,60.0134905712,PLT_learning_01,B,2014_Mrz_26_1747,P30,
stim_fb/ques.jpg,stim_fb/posf.jpg,stim_fb/negf.jpg,stim_01/c.jpg,stim_01/d.jpg,2,2,j,5,40,340,38,f,0,0.46656708145,01,02,60.0134905712,PLT_learning_01,B,2014_Mrz_26_1747,P30,
stim_fb/ques.jpg,stim_fb/negf.jpg,stim_fb/posf.jpg,stim_01/e.jpg,stim_01/f.jpg,2,3,j,5,41,341,51,j,1,0.683139979403,01,02,60.0134905712,PLT_learning_01,B,2014_Mrz_26_1747,P30,
stim_fb/ques.jpg,stim_fb/negf.jpg,stim_fb/posf.jpg,stim_01/b.jpg,stim_01/a.jpg,1,1,f,5,42,342,4,f,1,0.74979626319,01,02,60.0134905712,PLT_learning_01,B,2014_Mrz_26_1747,P30,
stim_fb/ques.jpg,stim_fb/negf.jpg,stim_fb/posf.jpg,stim_01/d.jpg,stim_01/c.jpg,1,2,f,5,43,343,24,j,0,0.566537641069,01,02,60.0134905712,PLT_learning_01,B,2014_Mrz_26_1747,P30,
stim_fb/ques.jpg,stim_fb/posf.jpg,stim_fb/negf.jpg,stim_01/d.jpg,stim_01/c.jpg,1,2,f,5,44,344,29,j,0,0.499868770909,01,02,60.0134905712,PLT_learning_01,B,2014_Mrz_26_1747,P30,
stim_fb/ques.jpg,stim_fb/posf.jpg,stim_fb/negf.jpg,stim_01/e.jpg,stim_01/f.jpg,2,3,j,5,45,345,56,j,1,0.749797207543,01,02,60.0134905712,PLT_learning_01,B,2014_Mrz_26_1747,P30,
stim_fb/ques.jpg,stim_fb/negf.jpg,stim_fb/posf.jpg,stim_01/f.jpg,stim_01/e.jpg,1,3,f,5,46,346,40,j,0,0.683162159679,01,02,60.0134905712,PLT_learning_01,B,2014_Mrz_26_1747,P30,
stim_fb/ques.jpg,stim_fb/negf.jpg,stim_fb/posf.jpg,stim_01/e.jpg,stim_01/f.jpg,2,3,j,5,47,347,53,j,1,0.49989198878,01,02,60.0134905712,PLT_learning_01,B,2014_Mrz_26_1747,P30,
stim_fb/ques.jpg,stim_fb/negf.jpg,stim_fb/posf.jpg,stim_01/e.jpg,stim_01/f.jpg,2,3,j,5,48,348,54,j,1,0.599811839005,01,02,60.0134905712,PLT_learning_01,B,2014_Mrz_26_1747,P30,
stim_fb/ques.jpg,stim_fb/posf.jpg,stim_fb/negf.jpg,stim_01/c.jpg,stim_01/d.jpg,2,2,j,5,49,349,37,f,0,0.499898984213,01,02,60.0134905712,PLT_learning_01,B,2014_Mrz_26_1747,P30,
stim_fb/ques.jpg,stim_fb/negf.jpg,stim_fb/posf.jpg,stim_01/f.jpg,stim_01/e.jpg,1,3,f,5,50,350,41,j,0,0.599858548434,01,02,60.0134905712,PLT_learning_01,B,2014_Mrz_26_1747,P30,
stim_fb/ques.jpg,stim_fb/negf.jpg,stim_fb/posf.jpg,stim_01/c.jpg,stim_01/d.jpg,2,2,j,5,51,351,36,f,0,0.633135636577,01,02,60.0134905712,PLT_learning_01,B,2014_Mrz_26_1747,P30,
stim_fb/ques.jpg,stim_fb/posf.jpg,stim_fb/negf.jpg,stim_01/d.jpg,stim_01/c.jpg,1,2,f,5,52,352,27,j,0,0.433273662602,01,02,60.0134905712,PLT_learning_01,B,2014_Mrz_26_1747,P30,
stim_fb/ques.jpg,stim_fb/negf.jpg,stim_fb/posf.jpg,stim_01/b.jpg,stim_01/a.jpg,1,1,f,5,53,353,0,f,1,0.499896139132,01,02,60.0134905712,PLT_learning_01,B,2014_Mrz_26_1747,P30,
stim_fb/ques.jpg,stim_fb/negf.jpg,stim_fb/posf.jpg,stim_01/b.jpg,stim_01/a.jpg,1,1,f,5,54,354,1,f,1,0.699823956209,01,02,60.0134905712,PLT_learning_01,B,2014_Mrz_26_1747,P30,
stim_fb/ques.jpg,stim_fb/negf.jpg,stim_fb/posf.jpg,stim_01/e.jpg,stim_01/f.jpg,2,3,j,5,55,355,55,j,1,0.483215584842,01,02,60.0134905712,PLT_learning_01,B,2014_Mrz_26_1747,P30,
stim_fb/ques.jpg,stim_fb/negf.jpg,stim_fb/posf.jpg,stim_01/b.jpg,stim_01/a.jpg,1,1,f,5,56,356,7,j,0,0.566528083247,01,02,60.0134905712,PLT_learning_01,B,2014_Mrz_26_1747,P30,
stim_fb/ques.jpg,stim_fb/posf.jpg,stim_fb/negf.jpg,stim_01/f.jpg,stim_01/e.jpg,1,3,f,5,57,357,46,j,0,0.483255040192,01,02,60.0134905712,PLT_learning_01,B,2014_Mrz_26_1747,P30,
stim_fb/ques.jpg,stim_fb/posf.jpg,stim_fb/negf.jpg,stim_01/f.jpg,stim_01/e.jpg,1,3,f,5,58,358,49,j,0,0.499887504608,01,02,60.0134905712,PLT_learning_01,B,2014_Mrz_26_1747,P30,
stim_fb/ques.jpg,stim_fb/negf.jpg,stim_fb/posf.jpg,stim_01/c.jpg,stim_01/d.jpg,2,2,j,5,59,359,33,f,0,0.583219205873,01,02,60.0134905712,PLT_learning_01,B,2014_Mrz_26_1747,P30,
