Fb3,Symbol2,Symbol1,PosCond,tID,Correct,trials.thisRepN,trials.thisTrialN,trials.thisN,trials.thisIndex,Response.keys,Response.corr,Response.rt,session,participant,version,frameRate,stimulation,expName,date,
ques.jpg,stim_01/a.jpg,stim_01/d.jpg,2,3,j,0,0,0,17,j,1,1.34960524503,01,P02,01,60.0141779334,N,PLT_transfer_01,2014_Jan_21_1759,
ques.jpg,stim_01/f.jpg,stim_01/b.jpg,1,13,j,0,1,1,12,f,0,1.5828503421,01,P02,01,60.0141779334,N,PLT_transfer_01,2014_Jan_21_1759,
ques.jpg,stim_01/a.jpg,stim_01/f.jpg,2,5,j,0,2,2,19,j,1,1.13302702215,01,P02,01,60.0141779334,N,PLT_transfer_01,2014_Jan_21_1759,
ques.jpg,stim_01/e.jpg,stim_01/b.jpg,1,12,j,0,3,3,11,j,1,1.36625857957,01,P02,01,60.0141779334,N,PLT_transfer_01,2014_Jan_21_1759,
ques.jpg,stim_01/c.jpg,stim_01/f.jpg,2,8,j,0,4,4,22,f,0,1.26624835115,01,P02,01,60.0141779334,N,PLT_transfer_01,2014_Jan_21_1759,
ques.jpg,stim_01/e.jpg,stim_01/c.jpg,1,7,f,0,5,5,6,f,1,0.566515883972,01,P02,01,60.0141779334,N,PLT_transfer_01,2014_Jan_21_1759,
ques.jpg,stim_01/c.jpg,stim_01/e.jpg,2,7,j,0,6,6,21,j,1,0.916392108389,01,P02,01,60.0141779334,N,PLT_transfer_01,2014_Jan_21_1759,
ques.jpg,stim_01/b.jpg,stim_01/d.jpg,2,11,f,0,7,7,25,f,1,1.41619586172,01,P02,01,60.0141779334,N,PLT_transfer_01,2014_Jan_21_1759,
ques.jpg,stim_01/f.jpg,stim_01/e.jpg,1,9,f,0,8,8,8,f,1,1.23297178088,01,P02,01,60.0141779334,N,PLT_transfer_01,2014_Jan_21_1759,
ques.jpg,stim_01/b.jpg,stim_01/a.jpg,1,1,f,0,9,9,0,f,1,0.983049839852,01,P02,01,60.0141779334,N,PLT_transfer_01,2014_Jan_21_1759,
ques.jpg,stim_01/d.jpg,stim_01/b.jpg,1,11,j,0,10,10,10,f,0,1.16637690561,01,P02,01,60.0141779334,N,PLT_transfer_01,2014_Jan_21_1759,
ques.jpg,stim_01/f.jpg,stim_01/c.jpg,1,8,f,0,11,11,7,f,1,0.666504482639,01,P02,01,60.0141779334,N,PLT_transfer_01,2014_Jan_21_1759,
ques.jpg,stim_01/a.jpg,stim_01/c.jpg,2,2,j,0,12,12,16,f,0,0.91640716681,01,P02,01,60.0141779334,N,PLT_transfer_01,2014_Jan_21_1759,
ques.jpg,stim_01/d.jpg,stim_01/f.jpg,2,15,f,0,13,13,29,j,0,1.28291440129,01,P02,01,60.0141779334,N,PLT_transfer_01,2014_Jan_21_1759,
ques.jpg,stim_01/e.jpg,stim_01/a.jpg,1,4,f,0,14,14,3,f,1,1.23299379558,01,P02,01,60.0141779334,N,PLT_transfer_01,2014_Jan_21_1759,
ques.jpg,stim_01/d.jpg,stim_01/c.jpg,1,6,f,0,15,15,5,f,1,1.23301252011,01,P02,01,60.0141779334,N,PLT_transfer_01,2014_Jan_21_1759,
ques.jpg,stim_01/b.jpg,stim_01/c.jpg,2,10,f,0,16,16,24,f,1,0.966405996902,01,P02,01,60.0141779334,N,PLT_transfer_01,2014_Jan_21_1759,
ques.jpg,stim_01/f.jpg,stim_01/d.jpg,1,15,j,0,17,17,14,j,1,0.96643836634,01,P02,01,60.0141779334,N,PLT_transfer_01,2014_Jan_21_1759,
ques.jpg,stim_01/e.jpg,stim_01/d.jpg,1,14,j,0,18,18,13,j,1,0.883082973188,01,P02,01,60.0141779334,N,PLT_transfer_01,2014_Jan_21_1759,
ques.jpg,stim_01/d.jpg,stim_01/e.jpg,2,14,f,0,19,19,28,f,1,1.04971718621,01,P02,01,60.0141779334,N,PLT_transfer_01,2014_Jan_21_1759,
ques.jpg,stim_01/c.jpg,stim_01/b.jpg,1,10,j,0,20,20,9,j,1,0.833098401527,01,P02,01,60.0141779334,N,PLT_transfer_01,2014_Jan_21_1759,
ques.jpg,stim_01/c.jpg,stim_01/d.jpg,2,6,j,0,21,21,20,j,1,0.866414992256,01,P02,01,60.0141779334,N,PLT_transfer_01,2014_Jan_21_1759,
ques.jpg,stim_01/f.jpg,stim_01/a.jpg,1,5,f,0,22,22,4,f,1,0.766441852002,01,P02,01,60.0141779334,N,PLT_transfer_01,2014_Jan_21_1759,
ques.jpg,stim_01/d.jpg,stim_01/a.jpg,1,3,f,0,23,23,2,f,1,0.933078308597,01,P02,01,60.0141779334,N,PLT_transfer_01,2014_Jan_21_1759,
ques.jpg,stim_01/a.jpg,stim_01/b.jpg,2,1,j,0,24,24,15,j,1,0.98305057969,01,P02,01,60.0141779334,N,PLT_transfer_01,2014_Jan_21_1759,
ques.jpg,stim_01/b.jpg,stim_01/f.jpg,2,13,f,0,25,25,27,f,1,1.11635505331,01,P02,01,60.0141779334,N,PLT_transfer_01,2014_Jan_21_1759,
ques.jpg,stim_01/b.jpg,stim_01/e.jpg,2,12,f,0,26,26,26,f,1,0.949740178343,01,P02,01,60.0141779334,N,PLT_transfer_01,2014_Jan_21_1759,
ques.jpg,stim_01/a.jpg,stim_01/e.jpg,2,4,j,0,27,27,18,j,1,0.883086747568,01,P02,01,60.0141779334,N,PLT_transfer_01,2014_Jan_21_1759,
ques.jpg,stim_01/e.jpg,stim_01/f.jpg,2,9,j,0,28,28,23,f,0,1.01637096886,01,P02,01,60.0141779334,N,PLT_transfer_01,2014_Jan_21_1759,
ques.jpg,stim_01/c.jpg,stim_01/a.jpg,1,2,f,0,29,29,1,j,0,0.916383458895,01,P02,01,60.0141779334,N,PLT_transfer_01,2014_Jan_21_1759,
ques.jpg,stim_01/c.jpg,stim_01/e.jpg,2,7,j,1,0,30,21,j,1,0.716473989865,01,P02,01,60.0141779334,N,PLT_transfer_01,2014_Jan_21_1759,
ques.jpg,stim_01/b.jpg,stim_01/f.jpg,2,13,f,1,1,31,27,f,1,0.999721249304,01,P02,01,60.0141779334,N,PLT_transfer_01,2014_Jan_21_1759,
ques.jpg,stim_01/b.jpg,stim_01/a.jpg,1,1,f,1,2,32,0,f,1,0.966399837596,01,P02,01,60.0141779334,N,PLT_transfer_01,2014_Jan_21_1759,
ques.jpg,stim_01/a.jpg,stim_01/d.jpg,2,3,j,1,3,33,17,j,1,0.749762683268,01,P02,01,60.0141779334,N,PLT_transfer_01,2014_Jan_21_1759,
ques.jpg,stim_01/f.jpg,stim_01/b.jpg,1,13,j,1,4,34,12,j,1,0.916379898047,01,P02,01,60.0141779334,N,PLT_transfer_01,2014_Jan_21_1759,
ques.jpg,stim_01/d.jpg,stim_01/b.jpg,1,11,j,1,5,35,10,f,0,0.916361167501,01,P02,01,60.0141779334,N,PLT_transfer_01,2014_Jan_21_1759,
ques.jpg,stim_01/e.jpg,stim_01/d.jpg,1,14,j,1,6,36,13,j,1,0.866422829732,01,P02,01,60.0141779334,N,PLT_transfer_01,2014_Jan_21_1759,
ques.jpg,stim_01/b.jpg,stim_01/c.jpg,2,10,f,1,7,37,24,f,1,0.799736831025,01,P02,01,60.0141779334,N,PLT_transfer_01,2014_Jan_21_1759,
ques.jpg,stim_01/c.jpg,stim_01/f.jpg,2,8,j,1,8,38,22,j,1,0.699803127773,01,P02,01,60.0141779334,N,PLT_transfer_01,2014_Jan_21_1759,
ques.jpg,stim_01/f.jpg,stim_01/a.jpg,1,5,f,1,9,39,4,f,1,0.699820616231,01,P02,01,60.0141779334,N,PLT_transfer_01,2014_Jan_21_1759,
ques.jpg,stim_01/a.jpg,stim_01/e.jpg,2,4,j,1,10,40,18,j,1,0.799778391302,01,P02,01,60.0141779334,N,PLT_transfer_01,2014_Jan_21_1759,
ques.jpg,stim_01/a.jpg,stim_01/b.jpg,2,1,j,1,11,41,15,j,1,0.716515959159,01,P02,01,60.0141779334,N,PLT_transfer_01,2014_Jan_21_1759,
ques.jpg,stim_01/f.jpg,stim_01/d.jpg,1,15,j,1,12,42,14,j,1,0.799747047413,01,P02,01,60.0141779334,N,PLT_transfer_01,2014_Jan_21_1759,
ques.jpg,stim_01/a.jpg,stim_01/f.jpg,2,5,j,1,13,43,19,j,1,0.716456308928,01,P02,01,60.0141779334,N,PLT_transfer_01,2014_Jan_21_1759,
ques.jpg,stim_01/c.jpg,stim_01/d.jpg,2,6,j,1,14,44,20,j,1,0.716347218839,01,P02,01,60.0141779334,N,PLT_transfer_01,2014_Jan_21_1759,
ques.jpg,stim_01/b.jpg,stim_01/e.jpg,2,12,f,1,15,45,26,f,1,0.749832519812,01,P02,01,60.0141779334,N,PLT_transfer_01,2014_Jan_21_1759,
ques.jpg,stim_01/a.jpg,stim_01/c.jpg,2,2,j,1,16,46,16,f,0,0.649842715147,01,P02,01,60.0141779334,N,PLT_transfer_01,2014_Jan_21_1759,
ques.jpg,stim_01/d.jpg,stim_01/c.jpg,1,6,f,1,17,47,5,f,1,0.666445620367,01,P02,01,60.0141779334,N,PLT_transfer_01,2014_Jan_21_1759,
ques.jpg,stim_01/c.jpg,stim_01/b.jpg,1,10,j,1,18,48,9,j,1,0.583113336641,01,P02,01,60.0141779334,N,PLT_transfer_01,2014_Jan_21_1759,
ques.jpg,stim_01/d.jpg,stim_01/e.jpg,2,14,f,1,19,49,28,f,1,1.41626500053,01,P02,01,60.0141779334,N,PLT_transfer_01,2014_Jan_21_1759,
ques.jpg,stim_01/d.jpg,stim_01/f.jpg,2,15,f,1,20,50,29,f,1,0.833217714019,01,P02,01,60.0141779334,N,PLT_transfer_01,2014_Jan_21_1759,
ques.jpg,stim_01/e.jpg,stim_01/a.jpg,1,4,f,1,21,51,3,f,1,0.849749330086,01,P02,01,60.0141779334,N,PLT_transfer_01,2014_Jan_21_1759,
ques.jpg,stim_01/e.jpg,stim_01/f.jpg,2,9,j,1,22,52,23,j,1,0.966388400174,01,P02,01,60.0141779334,N,PLT_transfer_01,2014_Jan_21_1759,
ques.jpg,stim_01/b.jpg,stim_01/d.jpg,2,11,f,1,23,53,25,j,0,1.51616629825,01,P02,01,60.0141779334,N,PLT_transfer_01,2014_Jan_21_1759,
ques.jpg,stim_01/e.jpg,stim_01/b.jpg,1,12,j,1,24,54,11,None,0,,01,P02,01,60.0141779334,N,PLT_transfer_01,2014_Jan_21_1759,
ques.jpg,stim_01/f.jpg,stim_01/e.jpg,1,9,f,1,25,55,8,j,0,0.883091896362,01,P02,01,60.0141779334,N,PLT_transfer_01,2014_Jan_21_1759,
ques.jpg,stim_01/c.jpg,stim_01/a.jpg,1,2,f,1,26,56,1,j,0,0.866400195486,01,P02,01,60.0141779334,N,PLT_transfer_01,2014_Jan_21_1759,
ques.jpg,stim_01/f.jpg,stim_01/c.jpg,1,8,f,1,27,57,7,f,1,0.583200742846,01,P02,01,60.0141779334,N,PLT_transfer_01,2014_Jan_21_1759,
ques.jpg,stim_01/d.jpg,stim_01/a.jpg,1,3,f,1,28,58,2,f,1,0.716465896754,01,P02,01,60.0141779334,N,PLT_transfer_01,2014_Jan_21_1759,
ques.jpg,stim_01/e.jpg,stim_01/c.jpg,1,7,f,1,29,59,6,f,1,0.649807551766,01,P02,01,60.0141779334,N,PLT_transfer_01,2014_Jan_21_1759,
ques.jpg,stim_01/c.jpg,stim_01/b.jpg,1,10,j,2,0,60,9,j,1,0.566523038751,01,P02,01,60.0141779334,N,PLT_transfer_01,2014_Jan_21_1759,
ques.jpg,stim_01/c.jpg,stim_01/f.jpg,2,8,j,2,1,61,22,j,1,0.533208372807,01,P02,01,60.0141779334,N,PLT_transfer_01,2014_Jan_21_1759,
ques.jpg,stim_01/d.jpg,stim_01/f.jpg,2,15,f,2,2,62,29,f,1,0.883035262628,01,P02,01,60.0141779334,N,PLT_transfer_01,2014_Jan_21_1759,
ques.jpg,stim_01/e.jpg,stim_01/d.jpg,1,14,j,2,3,63,13,j,1,0.699765185486,01,P02,01,60.0141779334,N,PLT_transfer_01,2014_Jan_21_1759,
ques.jpg,stim_01/e.jpg,stim_01/a.jpg,1,4,f,2,4,64,3,f,1,0.666494242192,01,P02,01,60.0141779334,N,PLT_transfer_01,2014_Jan_21_1759,
ques.jpg,stim_01/e.jpg,stim_01/c.jpg,1,7,f,2,5,65,6,f,1,0.566533345363,01,P02,01,60.0141779334,N,PLT_transfer_01,2014_Jan_21_1759,
ques.jpg,stim_01/d.jpg,stim_01/e.jpg,2,14,f,2,6,66,28,f,1,0.633150686456,01,P02,01,60.0141779334,N,PLT_transfer_01,2014_Jan_21_1759,
ques.jpg,stim_01/d.jpg,stim_01/a.jpg,1,3,f,2,7,67,2,f,1,0.749756487873,01,P02,01,60.0141779334,N,PLT_transfer_01,2014_Jan_21_1759,
ques.jpg,stim_01/e.jpg,stim_01/b.jpg,1,12,j,2,8,68,11,j,1,0.699818044841,01,P02,01,60.0141779334,N,PLT_transfer_01,2014_Jan_21_1759,
ques.jpg,stim_01/f.jpg,stim_01/d.jpg,1,15,j,2,9,69,14,j,1,0.783118981669,01,P02,01,60.0141779334,N,PLT_transfer_01,2014_Jan_21_1759,
ques.jpg,stim_01/e.jpg,stim_01/f.jpg,2,9,j,2,10,70,23,f,0,0.61648445888,01,P02,01,60.0141779334,N,PLT_transfer_01,2014_Jan_21_1759,
ques.jpg,stim_01/a.jpg,stim_01/c.jpg,2,2,j,2,11,71,16,f,0,0.583158472805,01,P02,01,60.0141779334,N,PLT_transfer_01,2014_Jan_21_1759,
ques.jpg,stim_01/f.jpg,stim_01/c.jpg,1,8,f,2,12,72,7,f,1,0.499813509571,01,P02,01,60.0141779334,N,PLT_transfer_01,2014_Jan_21_1759,
ques.jpg,stim_01/b.jpg,stim_01/e.jpg,2,12,f,2,13,73,26,f,1,1.09966344566,01,P02,01,60.0141779334,N,PLT_transfer_01,2014_Jan_21_1759,
ques.jpg,stim_01/f.jpg,stim_01/e.jpg,1,9,f,2,14,74,8,f,1,0.633173792875,01,P02,01,60.0141779334,N,PLT_transfer_01,2014_Jan_21_1759,
ques.jpg,stim_01/b.jpg,stim_01/a.jpg,1,1,f,2,15,75,0,f,1,0.566511038932,01,P02,01,60.0141779334,N,PLT_transfer_01,2014_Jan_21_1759,
ques.jpg,stim_01/f.jpg,stim_01/a.jpg,1,5,f,2,16,76,4,f,1,0.649810965249,01,P02,01,60.0141779334,N,PLT_transfer_01,2014_Jan_21_1759,
ques.jpg,stim_01/b.jpg,stim_01/c.jpg,2,10,f,2,17,77,24,f,1,0.616493406114,01,P02,01,60.0141779334,N,PLT_transfer_01,2014_Jan_21_1759,
ques.jpg,stim_01/c.jpg,stim_01/d.jpg,2,6,j,2,18,78,20,j,1,0.866428607088,01,P02,01,60.0141779334,N,PLT_transfer_01,2014_Jan_21_1759,
ques.jpg,stim_01/b.jpg,stim_01/d.jpg,2,11,f,2,19,79,25,j,0,1.29968519872,01,P02,01,60.0141779334,N,PLT_transfer_01,2014_Jan_21_1759,
ques.jpg,stim_01/c.jpg,stim_01/e.jpg,2,7,j,2,20,80,21,j,1,0.649824937971,01,P02,01,60.0141779334,N,PLT_transfer_01,2014_Jan_21_1759,
ques.jpg,stim_01/d.jpg,stim_01/b.jpg,1,11,j,2,21,81,10,f,0,0.683114464444,01,P02,01,60.0141779334,N,PLT_transfer_01,2014_Jan_21_1759,
ques.jpg,stim_01/a.jpg,stim_01/f.jpg,2,5,j,2,22,82,19,j,1,0.866427313875,01,P02,01,60.0141779334,N,PLT_transfer_01,2014_Jan_21_1759,
ques.jpg,stim_01/c.jpg,stim_01/a.jpg,1,2,f,2,23,83,1,j,0,0.699812923114,01,P02,01,60.0141779334,N,PLT_transfer_01,2014_Jan_21_1759,
ques.jpg,stim_01/d.jpg,stim_01/c.jpg,1,6,f,2,24,84,5,f,1,0.633171019985,01,P02,01,60.0141779334,N,PLT_transfer_01,2014_Jan_21_1759,
ques.jpg,stim_01/f.jpg,stim_01/b.jpg,1,13,j,2,25,85,12,j,1,0.983058423182,01,P02,01,60.0141779334,N,PLT_transfer_01,2014_Jan_21_1759,
ques.jpg,stim_01/a.jpg,stim_01/e.jpg,2,4,j,2,26,86,18,j,1,0.649811076525,01,P02,01,60.0141779334,N,PLT_transfer_01,2014_Jan_21_1759,
ques.jpg,stim_01/a.jpg,stim_01/b.jpg,2,1,j,2,27,87,15,j,1,0.866414297529,01,P02,01,60.0141779334,N,PLT_transfer_01,2014_Jan_21_1759,
ques.jpg,stim_01/b.jpg,stim_01/f.jpg,2,13,f,2,28,88,27,j,0,0.799760638186,01,P02,01,60.0141779334,N,PLT_transfer_01,2014_Jan_21_1759,
ques.jpg,stim_01/a.jpg,stim_01/d.jpg,2,3,j,2,29,89,17,j,1,0.733083896483,01,P02,01,60.0141779334,N,PLT_transfer_01,2014_Jan_21_1759,
ques.jpg,stim_01/e.jpg,stim_01/f.jpg,2,9,j,3,0,90,23,f,0,0.783112452444,01,P02,01,60.0141779334,N,PLT_transfer_01,2014_Jan_21_1759,
ques.jpg,stim_01/b.jpg,stim_01/c.jpg,2,10,f,3,1,91,24,f,1,0.583190709914,01,P02,01,60.0141779334,N,PLT_transfer_01,2014_Jan_21_1759,
ques.jpg,stim_01/a.jpg,stim_01/f.jpg,2,5,j,3,2,92,19,j,1,0.666495027142,01,P02,01,60.0141779334,N,PLT_transfer_01,2014_Jan_21_1759,
ques.jpg,stim_01/a.jpg,stim_01/b.jpg,2,1,j,3,3,93,15,j,1,0.833090618186,01,P02,01,60.0141779334,N,PLT_transfer_01,2014_Jan_21_1759,
ques.jpg,stim_01/e.jpg,stim_01/a.jpg,1,4,f,3,4,94,3,f,1,0.583163567465,01,P02,01,60.0141779334,N,PLT_transfer_01,2014_Jan_21_1759,
ques.jpg,stim_01/f.jpg,stim_01/b.jpg,1,13,j,3,5,95,12,j,1,0.916389344521,01,P02,01,60.0141779334,N,PLT_transfer_01,2014_Jan_21_1759,
ques.jpg,stim_01/b.jpg,stim_01/e.jpg,2,12,f,3,6,96,26,f,1,1.24962012,01,P02,01,60.0141779334,N,PLT_transfer_01,2014_Jan_21_1759,
ques.jpg,stim_01/c.jpg,stim_01/d.jpg,2,6,j,3,7,97,20,j,1,0.699804165351,01,P02,01,60.0141779334,N,PLT_transfer_01,2014_Jan_21_1759,
ques.jpg,stim_01/d.jpg,stim_01/f.jpg,2,15,f,3,8,98,29,f,1,0.8497542052,01,P02,01,60.0141779334,N,PLT_transfer_01,2014_Jan_21_1759,
ques.jpg,stim_01/d.jpg,stim_01/a.jpg,1,3,f,3,9,99,2,f,1,0.649776081563,01,P02,01,60.0141779334,N,PLT_transfer_01,2014_Jan_21_1759,
ques.jpg,stim_01/f.jpg,stim_01/e.jpg,1,9,f,3,10,100,8,f,1,0.933128761973,01,P02,01,60.0141779334,N,PLT_transfer_01,2014_Jan_21_1759,
ques.jpg,stim_01/a.jpg,stim_01/d.jpg,2,3,j,3,11,101,17,j,1,0.699838531751,01,P02,01,60.0141779334,N,PLT_transfer_01,2014_Jan_21_1759,
ques.jpg,stim_01/e.jpg,stim_01/c.jpg,1,7,f,3,12,102,6,f,1,0.633179368731,01,P02,01,60.0141779334,N,PLT_transfer_01,2014_Jan_21_1759,
ques.jpg,stim_01/c.jpg,stim_01/e.jpg,2,7,j,3,13,103,21,j,1,0.533193588066,01,P02,01,60.0141779334,N,PLT_transfer_01,2014_Jan_21_1759,
ques.jpg,stim_01/b.jpg,stim_01/f.jpg,2,13,f,3,14,104,27,j,0,0.799824216177,01,P02,01,60.0141779334,N,PLT_transfer_01,2014_Jan_21_1759,
ques.jpg,stim_01/b.jpg,stim_01/d.jpg,2,11,f,3,15,105,25,j,0,0.666468254612,01,P02,01,60.0141779334,N,PLT_transfer_01,2014_Jan_21_1759,
ques.jpg,stim_01/d.jpg,stim_01/c.jpg,1,6,f,3,16,106,5,f,1,0.666492191095,01,P02,01,60.0141779334,N,PLT_transfer_01,2014_Jan_21_1759,
ques.jpg,stim_01/f.jpg,stim_01/a.jpg,1,5,f,3,17,107,4,f,1,0.683141697118,01,P02,01,60.0141779334,N,PLT_transfer_01,2014_Jan_21_1759,
ques.jpg,stim_01/b.jpg,stim_01/a.jpg,1,1,f,3,18,108,0,f,1,0.516550172178,01,P02,01,60.0141779334,N,PLT_transfer_01,2014_Jan_21_1759,
ques.jpg,stim_01/a.jpg,stim_01/c.jpg,2,2,j,3,19,109,16,f,0,0.649804427001,01,P02,01,60.0141779334,N,PLT_transfer_01,2014_Jan_21_1759,
ques.jpg,stim_01/f.jpg,stim_01/d.jpg,1,15,j,3,20,110,14,j,1,0.649827831161,01,P02,01,60.0141779334,N,PLT_transfer_01,2014_Jan_21_1759,
ques.jpg,stim_01/e.jpg,stim_01/b.jpg,1,12,j,3,21,111,11,f,0,0.849748698516,01,P02,01,60.0141779334,N,PLT_transfer_01,2014_Jan_21_1759,
ques.jpg,stim_01/d.jpg,stim_01/e.jpg,2,14,f,3,22,112,28,f,1,0.89968912648,01,P02,01,60.0141779334,N,PLT_transfer_01,2014_Jan_21_1759,
ques.jpg,stim_01/c.jpg,stim_01/a.jpg,1,2,f,3,23,113,1,j,0,0.766442883566,01,P02,01,60.0141779334,N,PLT_transfer_01,2014_Jan_21_1759,
ques.jpg,stim_01/f.jpg,stim_01/c.jpg,1,8,f,3,24,114,7,f,1,0.633173191381,01,P02,01,60.0141779334,N,PLT_transfer_01,2014_Jan_21_1759,
ques.jpg,stim_01/d.jpg,stim_01/b.jpg,1,11,j,3,25,115,10,f,0,0.683157477331,01,P02,01,60.0141779334,N,PLT_transfer_01,2014_Jan_21_1759,
ques.jpg,stim_01/c.jpg,stim_01/f.jpg,2,8,j,3,26,116,22,j,1,0.633159510383,01,P02,01,60.0141779334,N,PLT_transfer_01,2014_Jan_21_1759,
ques.jpg,stim_01/a.jpg,stim_01/e.jpg,2,4,j,3,27,117,18,j,1,0.716495583525,01,P02,01,60.0141779334,N,PLT_transfer_01,2014_Jan_21_1759,
ques.jpg,stim_01/c.jpg,stim_01/b.jpg,1,10,j,3,28,118,9,j,1,0.766430655178,01,P02,01,60.0141779334,N,PLT_transfer_01,2014_Jan_21_1759,
ques.jpg,stim_01/e.jpg,stim_01/d.jpg,1,14,j,3,29,119,13,j,1,0.833109962256,01,P02,01,60.0141779334,N,PLT_transfer_01,2014_Jan_21_1759,
ques.jpg,stim_01/c.jpg,stim_01/b.jpg,1,10,j,4,0,120,9,j,1,0.566525026691,01,P02,01,60.0141779334,N,PLT_transfer_01,2014_Jan_21_1759,
ques.jpg,stim_01/d.jpg,stim_01/a.jpg,1,3,f,4,1,121,2,f,1,0.79977119141,01,P02,01,60.0141779334,N,PLT_transfer_01,2014_Jan_21_1759,
ques.jpg,stim_01/a.jpg,stim_01/d.jpg,2,3,j,4,2,122,17,j,1,0.649792135457,01,P02,01,60.0141779334,N,PLT_transfer_01,2014_Jan_21_1759,
ques.jpg,stim_01/b.jpg,stim_01/a.jpg,1,1,f,4,3,123,0,f,1,0.599868886182,01,P02,01,60.0141779334,N,PLT_transfer_01,2014_Jan_21_1759,
ques.jpg,stim_01/a.jpg,stim_01/e.jpg,2,4,j,4,4,124,18,j,1,0.483216327574,01,P02,01,60.0141779334,N,PLT_transfer_01,2014_Jan_21_1759,
ques.jpg,stim_01/f.jpg,stim_01/e.jpg,1,9,f,4,5,125,8,f,1,0.916394472264,01,P02,01,60.0141779334,N,PLT_transfer_01,2014_Jan_21_1759,
ques.jpg,stim_01/f.jpg,stim_01/b.jpg,1,13,j,4,6,126,12,j,1,0.616499051142,01,P02,01,60.0141779334,N,PLT_transfer_01,2014_Jan_21_1759,
ques.jpg,stim_01/b.jpg,stim_01/e.jpg,2,12,f,4,7,127,26,j,0,0.583195245184,01,P02,01,60.0141779334,N,PLT_transfer_01,2014_Jan_21_1759,
ques.jpg,stim_01/d.jpg,stim_01/c.jpg,1,6,f,4,8,128,5,f,1,0.533166863656,01,P02,01,60.0141779334,N,PLT_transfer_01,2014_Jan_21_1759,
ques.jpg,stim_01/c.jpg,stim_01/a.jpg,1,2,f,4,9,129,1,j,0,0.533180349168,01,P02,01,60.0141779334,N,PLT_transfer_01,2014_Jan_21_1759,
ques.jpg,stim_01/e.jpg,stim_01/b.jpg,1,12,j,4,10,130,11,j,1,0.64977372671,01,P02,01,60.0141779334,N,PLT_transfer_01,2014_Jan_21_1759,
ques.jpg,stim_01/b.jpg,stim_01/c.jpg,2,10,f,4,11,131,24,f,1,0.549857148013,01,P02,01,60.0141779334,N,PLT_transfer_01,2014_Jan_21_1759,
ques.jpg,stim_01/c.jpg,stim_01/f.jpg,2,8,j,4,12,132,22,j,1,0.649845494053,01,P02,01,60.0141779334,N,PLT_transfer_01,2014_Jan_21_1759,
ques.jpg,stim_01/f.jpg,stim_01/d.jpg,1,15,j,4,13,133,14,j,1,0.633145047443,01,P02,01,60.0141779334,N,PLT_transfer_01,2014_Jan_21_1759,
ques.jpg,stim_01/e.jpg,stim_01/a.jpg,1,4,f,4,14,134,3,f,1,0.566484452865,01,P02,01,60.0141779334,N,PLT_transfer_01,2014_Jan_21_1759,
ques.jpg,stim_01/e.jpg,stim_01/c.jpg,1,7,f,4,15,135,6,f,1,0.599852450339,01,P02,01,60.0141779334,N,PLT_transfer_01,2014_Jan_21_1759,
ques.jpg,stim_01/d.jpg,stim_01/b.jpg,1,11,j,4,16,136,10,f,0,0.799830847657,01,P02,01,60.0141779334,N,PLT_transfer_01,2014_Jan_21_1759,
ques.jpg,stim_01/a.jpg,stim_01/b.jpg,2,1,j,4,17,137,15,j,1,0.716464898272,01,P02,01,60.0141779334,N,PLT_transfer_01,2014_Jan_21_1759,
ques.jpg,stim_01/a.jpg,stim_01/c.jpg,2,2,j,4,18,138,16,f,0,0.56648792349,01,P02,01,60.0141779334,N,PLT_transfer_01,2014_Jan_21_1759,
ques.jpg,stim_01/e.jpg,stim_01/d.jpg,1,14,j,4,19,139,13,j,1,0.566514620833,01,P02,01,60.0141779334,N,PLT_transfer_01,2014_Jan_21_1759,
ques.jpg,stim_01/c.jpg,stim_01/d.jpg,2,6,j,4,20,140,20,j,1,0.599847897024,01,P02,01,60.0141779334,N,PLT_transfer_01,2014_Jan_21_1759,
ques.jpg,stim_01/d.jpg,stim_01/e.jpg,2,14,f,4,21,141,28,f,1,0.866411269003,01,P02,01,60.0141779334,N,PLT_transfer_01,2014_Jan_21_1759,
ques.jpg,stim_01/f.jpg,stim_01/c.jpg,1,8,f,4,22,142,7,f,1,0.633150160148,01,P02,01,60.0141779334,N,PLT_transfer_01,2014_Jan_21_1759,
ques.jpg,stim_01/c.jpg,stim_01/e.jpg,2,7,j,4,23,143,21,j,1,0.599804890152,01,P02,01,60.0141779334,N,PLT_transfer_01,2014_Jan_21_1759,
ques.jpg,stim_01/a.jpg,stim_01/f.jpg,2,5,j,4,24,144,19,j,1,0.666481165696,01,P02,01,60.0141779334,N,PLT_transfer_01,2014_Jan_21_1759,
ques.jpg,stim_01/e.jpg,stim_01/f.jpg,2,9,j,4,25,145,23,f,0,0.89972545676,01,P02,01,60.0141779334,N,PLT_transfer_01,2014_Jan_21_1759,
ques.jpg,stim_01/d.jpg,stim_01/f.jpg,2,15,f,4,26,146,29,j,0,0.933054423242,01,P02,01,60.0141779334,N,PLT_transfer_01,2014_Jan_21_1759,
ques.jpg,stim_01/b.jpg,stim_01/f.jpg,2,13,f,4,27,147,27,f,1,0.699809807371,01,P02,01,60.0141779334,N,PLT_transfer_01,2014_Jan_21_1759,
ques.jpg,stim_01/b.jpg,stim_01/d.jpg,2,11,f,4,28,148,25,f,1,0.833083255891,01,P02,01,60.0141779334,N,PLT_transfer_01,2014_Jan_21_1759,
ques.jpg,stim_01/f.jpg,stim_01/a.jpg,1,5,f,4,29,149,4,f,1,0.616502004481,01,P02,01,60.0141779334,N,PLT_transfer_01,2014_Jan_21_1759,
ques.jpg,stim_01/a.jpg,stim_01/c.jpg,2,2,j,5,0,150,16,f,0,0.616496828619,01,P02,01,60.0141779334,N,PLT_transfer_01,2014_Jan_21_1759,
ques.jpg,stim_01/e.jpg,stim_01/c.jpg,1,7,f,5,1,151,6,f,1,0.483190294883,01,P02,01,60.0141779334,N,PLT_transfer_01,2014_Jan_21_1759,
ques.jpg,stim_01/c.jpg,stim_01/b.jpg,1,10,j,5,2,152,9,j,1,0.849781576217,01,P02,01,60.0141779334,N,PLT_transfer_01,2014_Jan_21_1759,
ques.jpg,stim_01/c.jpg,stim_01/e.jpg,2,7,j,5,3,153,21,j,1,0.633145486534,01,P02,01,60.0141779334,N,PLT_transfer_01,2014_Jan_21_1759,
ques.jpg,stim_01/e.jpg,stim_01/f.jpg,2,9,j,5,4,154,23,j,1,1.13301341935,01,P02,01,60.0141779334,N,PLT_transfer_01,2014_Jan_21_1759,
ques.jpg,stim_01/f.jpg,stim_01/d.jpg,1,15,j,5,5,155,14,f,0,0.633116295995,01,P02,01,60.0141779334,N,PLT_transfer_01,2014_Jan_21_1759,
ques.jpg,stim_01/e.jpg,stim_01/d.jpg,1,14,j,5,6,156,13,f,0,0.883099421062,01,P02,01,60.0141779334,N,PLT_transfer_01,2014_Jan_21_1759,
ques.jpg,stim_01/e.jpg,stim_01/a.jpg,1,4,f,5,7,157,3,f,1,0.749810640441,01,P02,01,60.0141779334,N,PLT_transfer_01,2014_Jan_21_1759,
ques.jpg,stim_01/b.jpg,stim_01/c.jpg,2,10,f,5,8,158,24,f,1,0.666512975745,01,P02,01,60.0141779334,N,PLT_transfer_01,2014_Jan_21_1759,
ques.jpg,stim_01/b.jpg,stim_01/e.jpg,2,12,f,5,9,159,26,f,1,0.966349185726,01,P02,01,60.0141779334,N,PLT_transfer_01,2014_Jan_21_1759,
ques.jpg,stim_01/f.jpg,stim_01/e.jpg,1,9,f,5,10,160,8,j,0,0.849762620111,01,P02,01,60.0141779334,N,PLT_transfer_01,2014_Jan_21_1759,
ques.jpg,stim_01/a.jpg,stim_01/d.jpg,2,3,j,5,11,161,17,j,1,0.783113544157,01,P02,01,60.0141779334,N,PLT_transfer_01,2014_Jan_21_1759,
ques.jpg,stim_01/a.jpg,stim_01/e.jpg,2,4,j,5,12,162,18,j,1,0.533209972783,01,P02,01,60.0141779334,N,PLT_transfer_01,2014_Jan_21_1759,
ques.jpg,stim_01/f.jpg,stim_01/c.jpg,1,8,f,5,13,163,7,f,1,0.63319484519,01,P02,01,60.0141779334,N,PLT_transfer_01,2014_Jan_21_1759,
ques.jpg,stim_01/a.jpg,stim_01/b.jpg,2,1,j,5,14,164,15,j,1,0.816437127261,01,P02,01,60.0141779334,N,PLT_transfer_01,2014_Jan_21_1759,
ques.jpg,stim_01/d.jpg,stim_01/b.jpg,1,11,j,5,15,165,10,f,0,0.999528945429,01,P02,01,60.0141779334,N,PLT_transfer_01,2014_Jan_21_1759,
ques.jpg,stim_01/c.jpg,stim_01/a.jpg,1,2,f,5,16,166,1,f,1,0.966367236583,01,P02,01,60.0141779334,N,PLT_transfer_01,2014_Jan_21_1759,
ques.jpg,stim_01/b.jpg,stim_01/a.jpg,1,1,f,5,17,167,0,f,1,0.716418923024,01,P02,01,60.0141779334,N,PLT_transfer_01,2014_Jan_21_1759,
ques.jpg,stim_01/d.jpg,stim_01/f.jpg,2,15,f,5,18,168,29,f,1,0.866436492684,01,P02,01,60.0141779334,N,PLT_transfer_01,2014_Jan_21_1759,
ques.jpg,stim_01/c.jpg,stim_01/d.jpg,2,6,j,5,19,169,20,j,1,0.766457812665,01,P02,01,60.0141779334,N,PLT_transfer_01,2014_Jan_21_1759,
ques.jpg,stim_01/c.jpg,stim_01/f.jpg,2,8,j,5,20,170,22,j,1,0.883063066721,01,P02,01,60.0141779334,N,PLT_transfer_01,2014_Jan_21_1759,
ques.jpg,stim_01/d.jpg,stim_01/c.jpg,1,6,f,5,21,171,5,f,1,0.59989986316,01,P02,01,60.0141779334,N,PLT_transfer_01,2014_Jan_21_1759,
ques.jpg,stim_01/b.jpg,stim_01/f.jpg,2,13,f,5,22,172,27,j,0,0.649816868919,01,P02,01,60.0141779334,N,PLT_transfer_01,2014_Jan_21_1759,
ques.jpg,stim_01/a.jpg,stim_01/f.jpg,2,5,j,5,23,173,19,j,1,0.566517210267,01,P02,01,60.0141779334,N,PLT_transfer_01,2014_Jan_21_1759,
ques.jpg,stim_01/e.jpg,stim_01/b.jpg,1,12,j,5,24,174,11,f,0,0.933019870378,01,P02,01,60.0141779334,N,PLT_transfer_01,2014_Jan_21_1759,
ques.jpg,stim_01/d.jpg,stim_01/e.jpg,2,14,f,5,25,175,28,f,1,0.649839325725,01,P02,01,60.0141779334,N,PLT_transfer_01,2014_Jan_21_1759,
ques.jpg,stim_01/b.jpg,stim_01/d.jpg,2,11,f,5,26,176,25,j,0,0.683092106885,01,P02,01,60.0141779334,N,PLT_transfer_01,2014_Jan_21_1759,
ques.jpg,stim_01/f.jpg,stim_01/a.jpg,1,5,f,5,27,177,4,f,1,0.516549519556,01,P02,01,60.0141779334,N,PLT_transfer_01,2014_Jan_21_1759,
ques.jpg,stim_01/d.jpg,stim_01/a.jpg,1,3,f,5,28,178,2,f,1,0.566508440475,01,P02,01,60.0141779334,N,PLT_transfer_01,2014_Jan_21_1759,
ques.jpg,stim_01/f.jpg,stim_01/b.jpg,1,13,j,5,29,179,12,j,1,0.633163612577,01,P02,01,60.0141779334,N,PLT_transfer_01,2014_Jan_21_1759,
