Fb3,Symbol2,Symbol1,PosCond,tID,Correct,trials.thisRepN,trials.thisTrialN,trials.thisN,trials.thisIndex,Response.keys,Response.corr,Response.rt,session,participant,version,frameRate,stimulation,expName,date,
ques.jpg,stim_02/f.jpg,stim_02/e.jpg,1,9,f,0,0,0,8,None,0,,01,P08,02,60.0223461125,N,PLT_transfer_02,2014_Feb_13_1343,
ques.jpg,stim_02/a.jpg,stim_02/c.jpg,2,2,j,0,1,1,16,f,0,1.14968275095,01,P08,02,60.0223461125,N,PLT_transfer_02,2014_Feb_13_1343,
ques.jpg,stim_02/c.jpg,stim_02/b.jpg,1,10,j,0,2,2,9,f,0,1.21632472416,01,P08,02,60.0223461125,N,PLT_transfer_02,2014_Feb_13_1343,
ques.jpg,stim_02/e.jpg,stim_02/d.jpg,1,14,j,0,3,3,13,j,1,1.16632906245,01,P08,02,60.0223461125,N,PLT_transfer_02,2014_Feb_13_1343,
ques.jpg,stim_02/d.jpg,stim_02/e.jpg,2,14,f,0,4,4,28,f,1,1.44953969091,01,P08,02,60.0223461125,N,PLT_transfer_02,2014_Feb_13_1343,
ques.jpg,stim_02/a.jpg,stim_02/f.jpg,2,5,j,0,5,5,19,j,1,0.783122193359,01,P08,02,60.0223461125,N,PLT_transfer_02,2014_Feb_13_1343,
ques.jpg,stim_02/f.jpg,stim_02/c.jpg,1,8,f,0,6,6,7,f,1,1.04971473254,01,P08,02,60.0223461125,N,PLT_transfer_02,2014_Feb_13_1343,
ques.jpg,stim_02/e.jpg,stim_02/c.jpg,1,7,f,0,7,7,6,f,1,1.04968342763,01,P08,02,60.0223461125,N,PLT_transfer_02,2014_Feb_13_1343,
ques.jpg,stim_02/d.jpg,stim_02/c.jpg,1,6,f,0,8,8,5,f,1,1.41626693233,01,P08,02,60.0223461125,N,PLT_transfer_02,2014_Feb_13_1343,
ques.jpg,stim_02/f.jpg,stim_02/a.jpg,1,5,f,0,9,9,4,f,1,0.683165898129,01,P08,02,60.0223461125,N,PLT_transfer_02,2014_Feb_13_1343,
ques.jpg,stim_02/a.jpg,stim_02/e.jpg,2,4,j,0,10,10,18,j,1,0.783127766229,01,P08,02,60.0223461125,N,PLT_transfer_02,2014_Feb_13_1343,
ques.jpg,stim_02/e.jpg,stim_02/f.jpg,2,9,j,0,11,11,23,j,1,1.0496448837,01,P08,02,60.0223461125,N,PLT_transfer_02,2014_Feb_13_1343,
ques.jpg,stim_02/b.jpg,stim_02/e.jpg,2,12,f,0,12,12,26,f,1,1.18296454702,01,P08,02,60.0223461125,N,PLT_transfer_02,2014_Feb_13_1343,
ques.jpg,stim_02/b.jpg,stim_02/d.jpg,2,11,f,0,13,13,25,j,0,0.999698890614,01,P08,02,60.0223461125,N,PLT_transfer_02,2014_Feb_13_1343,
ques.jpg,stim_02/c.jpg,stim_02/a.jpg,1,2,f,0,14,14,1,f,1,0.683151056191,01,P08,02,60.0223461125,N,PLT_transfer_02,2014_Feb_13_1343,
ques.jpg,stim_02/d.jpg,stim_02/f.jpg,2,15,f,0,15,15,29,f,1,1.43296501468,01,P08,02,60.0223461125,N,PLT_transfer_02,2014_Feb_13_1343,
ques.jpg,stim_02/c.jpg,stim_02/e.jpg,2,7,j,0,16,16,21,f,0,1.53291614305,01,P08,02,60.0223461125,N,PLT_transfer_02,2014_Feb_13_1343,
ques.jpg,stim_02/a.jpg,stim_02/d.jpg,2,3,j,0,17,17,17,j,1,0.916401565396,01,P08,02,60.0223461125,N,PLT_transfer_02,2014_Feb_13_1343,
ques.jpg,stim_02/c.jpg,stim_02/f.jpg,2,8,j,0,18,18,22,f,0,1.13296131547,01,P08,02,60.0223461125,N,PLT_transfer_02,2014_Feb_13_1343,
ques.jpg,stim_02/b.jpg,stim_02/c.jpg,2,10,f,0,19,19,24,j,0,1.2163351481,01,P08,02,60.0223461125,N,PLT_transfer_02,2014_Feb_13_1343,
ques.jpg,stim_02/e.jpg,stim_02/a.jpg,1,4,f,0,20,20,3,f,1,0.766447707732,01,P08,02,60.0223461125,N,PLT_transfer_02,2014_Feb_13_1343,
ques.jpg,stim_02/f.jpg,stim_02/d.jpg,1,15,j,0,21,21,14,f,0,1.16631705056,01,P08,02,60.0223461125,N,PLT_transfer_02,2014_Feb_13_1343,
ques.jpg,stim_02/b.jpg,stim_02/a.jpg,1,1,f,0,22,22,0,f,1,0.79977029432,01,P08,02,60.0223461125,N,PLT_transfer_02,2014_Feb_13_1343,
ques.jpg,stim_02/a.jpg,stim_02/b.jpg,2,1,j,0,23,23,15,j,1,1.06636598835,01,P08,02,60.0223461125,N,PLT_transfer_02,2014_Feb_13_1343,
ques.jpg,stim_02/e.jpg,stim_02/b.jpg,1,12,j,0,24,24,11,j,1,1.44959431886,01,P08,02,60.0223461125,N,PLT_transfer_02,2014_Feb_13_1343,
ques.jpg,stim_02/b.jpg,stim_02/f.jpg,2,13,f,0,25,25,27,f,1,1.3163059364,01,P08,02,60.0223461125,N,PLT_transfer_02,2014_Feb_13_1343,
ques.jpg,stim_02/d.jpg,stim_02/a.jpg,1,3,f,0,26,26,2,f,1,0.699802453356,01,P08,02,60.0223461125,N,PLT_transfer_02,2014_Feb_13_1343,
ques.jpg,stim_02/f.jpg,stim_02/b.jpg,1,13,j,0,27,27,12,None,0,,01,P08,02,60.0223461125,N,PLT_transfer_02,2014_Feb_13_1343,
ques.jpg,stim_02/d.jpg,stim_02/b.jpg,1,11,j,0,28,28,10,f,0,1.01638140622,01,P08,02,60.0223461125,N,PLT_transfer_02,2014_Feb_13_1343,
ques.jpg,stim_02/c.jpg,stim_02/d.jpg,2,6,j,0,29,29,20,j,1,1.14966346094,01,P08,02,60.0223461125,N,PLT_transfer_02,2014_Feb_13_1343,
ques.jpg,stim_02/b.jpg,stim_02/d.jpg,2,11,f,1,0,30,25,f,1,1.23299518577,01,P08,02,60.0223461125,N,PLT_transfer_02,2014_Feb_13_1343,
ques.jpg,stim_02/f.jpg,stim_02/b.jpg,1,13,j,1,1,31,12,j,1,1.06633049402,01,P08,02,60.0223461125,N,PLT_transfer_02,2014_Feb_13_1343,
ques.jpg,stim_02/f.jpg,stim_02/d.jpg,1,15,j,1,2,32,14,j,1,1.09969268617,01,P08,02,60.0223461125,N,PLT_transfer_02,2014_Feb_13_1343,
ques.jpg,stim_02/f.jpg,stim_02/c.jpg,1,8,f,1,3,33,7,None,0,,01,P08,02,60.0223461125,N,PLT_transfer_02,2014_Feb_13_1343,
ques.jpg,stim_02/e.jpg,stim_02/a.jpg,1,4,f,1,4,34,3,f,1,0.699805668357,01,P08,02,60.0223461125,N,PLT_transfer_02,2014_Feb_13_1343,
ques.jpg,stim_02/d.jpg,stim_02/f.jpg,2,15,f,1,5,35,29,f,1,1.56620084736,01,P08,02,60.0223461125,N,PLT_transfer_02,2014_Feb_13_1343,
ques.jpg,stim_02/a.jpg,stim_02/f.jpg,2,5,j,1,6,36,19,j,1,1.19965580539,01,P08,02,60.0223461125,N,PLT_transfer_02,2014_Feb_13_1343,
ques.jpg,stim_02/d.jpg,stim_02/a.jpg,1,3,f,1,7,37,2,f,1,0.74980631647,01,P08,02,60.0223461125,N,PLT_transfer_02,2014_Feb_13_1343,
ques.jpg,stim_02/d.jpg,stim_02/e.jpg,2,14,f,1,8,38,28,f,1,0.866416989282,01,P08,02,60.0223461125,N,PLT_transfer_02,2014_Feb_13_1343,
ques.jpg,stim_02/b.jpg,stim_02/e.jpg,2,12,f,1,9,39,26,f,1,1.09964955282,01,P08,02,60.0223461125,N,PLT_transfer_02,2014_Feb_13_1343,
ques.jpg,stim_02/e.jpg,stim_02/c.jpg,1,7,f,1,10,40,6,j,0,0.883058341447,01,P08,02,60.0223461125,N,PLT_transfer_02,2014_Feb_13_1343,
ques.jpg,stim_02/f.jpg,stim_02/e.jpg,1,9,f,1,11,41,8,f,1,1.01638116563,01,P08,02,60.0223461125,N,PLT_transfer_02,2014_Feb_13_1343,
ques.jpg,stim_02/c.jpg,stim_02/a.jpg,1,2,f,1,12,42,1,f,1,0.599854040744,01,P08,02,60.0223461125,N,PLT_transfer_02,2014_Feb_13_1343,
ques.jpg,stim_02/b.jpg,stim_02/a.jpg,1,1,f,1,13,43,0,f,1,0.516531275211,01,P08,02,60.0223461125,N,PLT_transfer_02,2014_Feb_13_1343,
ques.jpg,stim_02/e.jpg,stim_02/b.jpg,1,12,j,1,14,44,11,j,1,1.01638118668,01,P08,02,60.0223461125,N,PLT_transfer_02,2014_Feb_13_1343,
ques.jpg,stim_02/d.jpg,stim_02/b.jpg,1,11,j,1,15,45,10,f,0,1.29961243445,01,P08,02,60.0223461125,N,PLT_transfer_02,2014_Feb_13_1343,
ques.jpg,stim_02/e.jpg,stim_02/d.jpg,1,14,j,1,16,46,13,j,1,0.76647809536,01,P08,02,60.0223461125,N,PLT_transfer_02,2014_Feb_13_1343,
ques.jpg,stim_02/a.jpg,stim_02/c.jpg,2,2,j,1,17,47,16,j,1,0.699798287989,01,P08,02,60.0223461125,N,PLT_transfer_02,2014_Feb_13_1343,
ques.jpg,stim_02/c.jpg,stim_02/b.jpg,1,10,j,1,18,48,9,f,0,0.866432649256,01,P08,02,60.0223461125,N,PLT_transfer_02,2014_Feb_13_1343,
ques.jpg,stim_02/a.jpg,stim_02/b.jpg,2,1,j,1,19,49,15,j,1,0.566504161231,01,P08,02,60.0223461125,N,PLT_transfer_02,2014_Feb_13_1343,
ques.jpg,stim_02/b.jpg,stim_02/c.jpg,2,10,f,1,20,50,24,f,1,0.966390607625,01,P08,02,60.0223461125,N,PLT_transfer_02,2014_Feb_13_1343,
ques.jpg,stim_02/e.jpg,stim_02/f.jpg,2,9,j,1,21,51,23,j,1,0.816445757379,01,P08,02,60.0223461125,N,PLT_transfer_02,2014_Feb_13_1343,
ques.jpg,stim_02/f.jpg,stim_02/a.jpg,1,5,f,1,22,52,4,f,1,0.583192520385,01,P08,02,60.0223461125,N,PLT_transfer_02,2014_Feb_13_1343,
ques.jpg,stim_02/c.jpg,stim_02/f.jpg,2,8,j,1,23,53,22,j,1,0.699785455051,01,P08,02,60.0223461125,N,PLT_transfer_02,2014_Feb_13_1343,
ques.jpg,stim_02/c.jpg,stim_02/e.jpg,2,7,j,1,24,54,21,j,1,0.833082526137,01,P08,02,60.0223461125,N,PLT_transfer_02,2014_Feb_13_1343,
ques.jpg,stim_02/b.jpg,stim_02/f.jpg,2,13,f,1,25,55,27,j,0,1.03302394033,01,P08,02,60.0223461125,N,PLT_transfer_02,2014_Feb_13_1343,
ques.jpg,stim_02/a.jpg,stim_02/d.jpg,2,3,j,1,26,56,17,j,1,0.76646570753,01,P08,02,60.0223461125,N,PLT_transfer_02,2014_Feb_13_1343,
ques.jpg,stim_02/d.jpg,stim_02/c.jpg,1,6,f,1,27,57,5,f,1,1.18299692861,01,P08,02,60.0223461125,N,PLT_transfer_02,2014_Feb_13_1343,
ques.jpg,stim_02/a.jpg,stim_02/e.jpg,2,4,j,1,28,58,18,j,1,0.599851252805,01,P08,02,60.0223461125,N,PLT_transfer_02,2014_Feb_13_1343,
ques.jpg,stim_02/c.jpg,stim_02/d.jpg,2,6,j,1,29,59,20,j,1,0.883139224745,01,P08,02,60.0223461125,N,PLT_transfer_02,2014_Feb_13_1343,
ques.jpg,stim_02/b.jpg,stim_02/e.jpg,2,12,f,2,0,60,26,f,1,1.31625949181,01,P08,02,60.0223461125,N,PLT_transfer_02,2014_Feb_13_1343,
ques.jpg,stim_02/a.jpg,stim_02/b.jpg,2,1,j,2,1,61,15,j,1,1.2496248298,01,P08,02,60.0223461125,N,PLT_transfer_02,2014_Feb_13_1343,
ques.jpg,stim_02/d.jpg,stim_02/c.jpg,1,6,f,2,2,62,5,f,1,1.31628312162,01,P08,02,60.0223461125,N,PLT_transfer_02,2014_Feb_13_1343,
ques.jpg,stim_02/b.jpg,stim_02/f.jpg,2,13,f,2,3,63,27,f,1,1.43291887084,01,P08,02,60.0223461125,N,PLT_transfer_02,2014_Feb_13_1343,
ques.jpg,stim_02/e.jpg,stim_02/d.jpg,1,14,j,2,4,64,13,j,1,0.583146319402,01,P08,02,60.0223461125,N,PLT_transfer_02,2014_Feb_13_1343,
ques.jpg,stim_02/c.jpg,stim_02/d.jpg,2,6,j,2,5,65,20,j,1,1.08287044281,01,P08,02,60.0223461125,N,PLT_transfer_02,2014_Feb_13_1343,
ques.jpg,stim_02/a.jpg,stim_02/f.jpg,2,5,j,2,6,66,19,j,1,0.783147609613,01,P08,02,60.0223461125,N,PLT_transfer_02,2014_Feb_13_1343,
ques.jpg,stim_02/e.jpg,stim_02/c.jpg,1,7,f,2,7,67,6,f,1,0.983061875242,01,P08,02,60.0223461125,N,PLT_transfer_02,2014_Feb_13_1343,
ques.jpg,stim_02/f.jpg,stim_02/b.jpg,1,13,j,2,8,68,12,j,1,0.832990058007,01,P08,02,60.0223461125,N,PLT_transfer_02,2014_Feb_13_1343,
ques.jpg,stim_02/a.jpg,stim_02/e.jpg,2,4,j,2,9,69,18,j,1,0.666468035323,01,P08,02,60.0223461125,N,PLT_transfer_02,2014_Feb_13_1343,
ques.jpg,stim_02/d.jpg,stim_02/f.jpg,2,15,f,2,10,70,29,f,1,0.816418903546,01,P08,02,60.0223461125,N,PLT_transfer_02,2014_Feb_13_1343,
ques.jpg,stim_02/c.jpg,stim_02/f.jpg,2,8,j,2,11,71,22,None,0,,01,P08,02,60.0223461125,N,PLT_transfer_02,2014_Feb_13_1343,
ques.jpg,stim_02/c.jpg,stim_02/b.jpg,1,10,j,2,12,72,9,f,0,0.749794154201,01,P08,02,60.0223461125,N,PLT_transfer_02,2014_Feb_13_1343,
ques.jpg,stim_02/f.jpg,stim_02/a.jpg,1,5,f,2,13,73,4,f,1,0.71654145254,01,P08,02,60.0223461125,N,PLT_transfer_02,2014_Feb_13_1343,
ques.jpg,stim_02/b.jpg,stim_02/a.jpg,1,1,f,2,14,74,0,f,1,0.583129155686,01,P08,02,60.0223461125,N,PLT_transfer_02,2014_Feb_13_1343,
ques.jpg,stim_02/e.jpg,stim_02/b.jpg,1,12,j,2,15,75,11,j,1,0.699805271369,01,P08,02,60.0223461125,N,PLT_transfer_02,2014_Feb_13_1343,
ques.jpg,stim_02/e.jpg,stim_02/f.jpg,2,9,j,2,16,76,23,j,1,0.916410669052,01,P08,02,60.0223461125,N,PLT_transfer_02,2014_Feb_13_1343,
ques.jpg,stim_02/a.jpg,stim_02/d.jpg,2,3,j,2,17,77,17,j,1,0.749806081887,01,P08,02,60.0223461125,N,PLT_transfer_02,2014_Feb_13_1343,
ques.jpg,stim_02/f.jpg,stim_02/c.jpg,1,8,f,2,18,78,7,f,1,0.833108868697,01,P08,02,60.0223461125,N,PLT_transfer_02,2014_Feb_13_1343,
ques.jpg,stim_02/f.jpg,stim_02/e.jpg,1,9,f,2,19,79,8,j,0,0.633173686011,01,P08,02,60.0223461125,N,PLT_transfer_02,2014_Feb_13_1343,
ques.jpg,stim_02/e.jpg,stim_02/a.jpg,1,4,f,2,20,80,3,j,0,0.716467600741,01,P08,02,60.0223461125,N,PLT_transfer_02,2014_Feb_13_1343,
ques.jpg,stim_02/b.jpg,stim_02/c.jpg,2,10,f,2,21,81,24,j,0,1.03303110717,01,P08,02,60.0223461125,N,PLT_transfer_02,2014_Feb_13_1343,
ques.jpg,stim_02/c.jpg,stim_02/e.jpg,2,7,j,2,22,82,21,j,1,1.08302036894,01,P08,02,60.0223461125,N,PLT_transfer_02,2014_Feb_13_1343,
ques.jpg,stim_02/f.jpg,stim_02/d.jpg,1,15,j,2,23,83,14,j,1,0.832913313008,01,P08,02,60.0223461125,N,PLT_transfer_02,2014_Feb_13_1343,
ques.jpg,stim_02/d.jpg,stim_02/b.jpg,1,11,j,2,24,84,10,f,0,1.03303327256,01,P08,02,60.0223461125,N,PLT_transfer_02,2014_Feb_13_1343,
ques.jpg,stim_02/b.jpg,stim_02/d.jpg,2,11,f,2,25,85,25,j,0,0.68314297508,01,P08,02,60.0223461125,N,PLT_transfer_02,2014_Feb_13_1343,
ques.jpg,stim_02/d.jpg,stim_02/a.jpg,1,3,f,2,26,86,2,f,1,0.649850821232,01,P08,02,60.0223461125,N,PLT_transfer_02,2014_Feb_13_1343,
ques.jpg,stim_02/d.jpg,stim_02/e.jpg,2,14,f,2,27,87,28,f,1,0.999731584982,01,P08,02,60.0223461125,N,PLT_transfer_02,2014_Feb_13_1343,
ques.jpg,stim_02/c.jpg,stim_02/a.jpg,1,2,f,2,28,88,1,f,1,0.633221360661,01,P08,02,60.0223461125,N,PLT_transfer_02,2014_Feb_13_1343,
ques.jpg,stim_02/a.jpg,stim_02/c.jpg,2,2,j,2,29,89,16,j,1,0.866434670286,01,P08,02,60.0223461125,N,PLT_transfer_02,2014_Feb_13_1343,
ques.jpg,stim_02/b.jpg,stim_02/c.jpg,2,10,f,3,0,90,24,j,0,0.649812689331,01,P08,02,60.0223461125,N,PLT_transfer_02,2014_Feb_13_1343,
ques.jpg,stim_02/d.jpg,stim_02/f.jpg,2,15,f,3,1,91,29,j,0,0.966417022364,01,P08,02,60.0223461125,N,PLT_transfer_02,2014_Feb_13_1343,
ques.jpg,stim_02/a.jpg,stim_02/b.jpg,2,1,j,3,2,92,15,j,1,0.749778797983,01,P08,02,60.0223461125,N,PLT_transfer_02,2014_Feb_13_1343,
ques.jpg,stim_02/b.jpg,stim_02/d.jpg,2,11,f,3,3,93,25,j,0,1.31629534103,01,P08,02,60.0223461125,N,PLT_transfer_02,2014_Feb_13_1343,
ques.jpg,stim_02/a.jpg,stim_02/f.jpg,2,5,j,3,4,94,19,j,1,0.866391046718,01,P08,02,60.0223461125,N,PLT_transfer_02,2014_Feb_13_1343,
ques.jpg,stim_02/c.jpg,stim_02/f.jpg,2,8,j,3,5,95,22,j,1,0.883117101687,01,P08,02,60.0223461125,N,PLT_transfer_02,2014_Feb_13_1343,
ques.jpg,stim_02/f.jpg,stim_02/b.jpg,1,13,j,3,6,96,12,j,1,1.0330301959,01,P08,02,60.0223461125,N,PLT_transfer_02,2014_Feb_13_1343,
ques.jpg,stim_02/b.jpg,stim_02/f.jpg,2,13,f,3,7,97,27,f,1,0.76646320831,01,P08,02,60.0223461125,N,PLT_transfer_02,2014_Feb_13_1343,
ques.jpg,stim_02/c.jpg,stim_02/b.jpg,1,10,j,3,8,98,9,j,1,0.883135384187,01,P08,02,60.0223461125,N,PLT_transfer_02,2014_Feb_13_1343,
ques.jpg,stim_02/f.jpg,stim_02/c.jpg,1,8,f,3,9,99,7,f,1,0.883100626685,01,P08,02,60.0223461125,N,PLT_transfer_02,2014_Feb_13_1343,
ques.jpg,stim_02/a.jpg,stim_02/e.jpg,2,4,j,3,10,100,18,f,0,1.01632525047,01,P08,02,60.0223461125,N,PLT_transfer_02,2014_Feb_13_1343,
ques.jpg,stim_02/c.jpg,stim_02/e.jpg,2,7,j,3,11,101,21,j,1,1.18298174682,01,P08,02,60.0223461125,N,PLT_transfer_02,2014_Feb_13_1343,
ques.jpg,stim_02/c.jpg,stim_02/d.jpg,2,6,j,3,12,102,20,j,1,0.966394679759,01,P08,02,60.0223461125,N,PLT_transfer_02,2014_Feb_13_1343,
ques.jpg,stim_02/e.jpg,stim_02/b.jpg,1,12,j,3,13,103,11,j,1,0.916402422529,01,P08,02,60.0223461125,N,PLT_transfer_02,2014_Feb_13_1343,
ques.jpg,stim_02/a.jpg,stim_02/c.jpg,2,2,j,3,14,104,16,j,1,1.01637459427,01,P08,02,60.0223461125,N,PLT_transfer_02,2014_Feb_13_1343,
ques.jpg,stim_02/b.jpg,stim_02/a.jpg,1,1,f,3,15,105,0,f,1,0.59980709992,01,P08,02,60.0223461125,N,PLT_transfer_02,2014_Feb_13_1343,
ques.jpg,stim_02/e.jpg,stim_02/d.jpg,1,14,j,3,16,106,13,j,1,0.783146854735,01,P08,02,60.0223461125,N,PLT_transfer_02,2014_Feb_13_1343,
ques.jpg,stim_02/f.jpg,stim_02/a.jpg,1,5,f,3,17,107,4,f,1,0.649833182333,01,P08,02,60.0223461125,N,PLT_transfer_02,2014_Feb_13_1343,
ques.jpg,stim_02/e.jpg,stim_02/c.jpg,1,7,f,3,18,108,6,j,0,0.499879923159,01,P08,02,60.0223461125,N,PLT_transfer_02,2014_Feb_13_1343,
ques.jpg,stim_02/e.jpg,stim_02/a.jpg,1,4,f,3,19,109,3,f,1,0.633163027485,01,P08,02,60.0223461125,N,PLT_transfer_02,2014_Feb_13_1343,
ques.jpg,stim_02/b.jpg,stim_02/e.jpg,2,12,f,3,20,110,26,f,1,0.866421226828,01,P08,02,60.0223461125,N,PLT_transfer_02,2014_Feb_13_1343,
ques.jpg,stim_02/d.jpg,stim_02/a.jpg,1,3,f,3,21,111,2,f,1,1.3496106886,01,P08,02,60.0223461125,N,PLT_transfer_02,2014_Feb_13_1343,
ques.jpg,stim_02/c.jpg,stim_02/a.jpg,1,2,f,3,22,112,1,f,1,0.549897713935,01,P08,02,60.0223461125,N,PLT_transfer_02,2014_Feb_13_1343,
ques.jpg,stim_02/f.jpg,stim_02/e.jpg,1,9,f,3,23,113,8,f,1,0.866417572734,01,P08,02,60.0223461125,N,PLT_transfer_02,2014_Feb_13_1343,
ques.jpg,stim_02/f.jpg,stim_02/d.jpg,1,15,j,3,24,114,14,j,1,0.7997285384,01,P08,02,60.0223461125,N,PLT_transfer_02,2014_Feb_13_1343,
ques.jpg,stim_02/d.jpg,stim_02/e.jpg,2,14,f,3,25,115,28,f,1,0.666490922283,01,P08,02,60.0223461125,N,PLT_transfer_02,2014_Feb_13_1343,
ques.jpg,stim_02/a.jpg,stim_02/d.jpg,2,3,j,3,26,116,17,j,1,0.833074863066,01,P08,02,60.0223461125,N,PLT_transfer_02,2014_Feb_13_1343,
ques.jpg,stim_02/e.jpg,stim_02/f.jpg,2,9,j,3,27,117,23,j,1,0.816453252031,01,P08,02,60.0223461125,N,PLT_transfer_02,2014_Feb_13_1343,
ques.jpg,stim_02/d.jpg,stim_02/c.jpg,1,6,f,3,28,118,5,f,1,1.03301049687,01,P08,02,60.0223461125,N,PLT_transfer_02,2014_Feb_13_1343,
ques.jpg,stim_02/d.jpg,stim_02/b.jpg,1,11,j,3,29,119,10,f,0,1.43298396785,01,P08,02,60.0223461125,N,PLT_transfer_02,2014_Feb_13_1343,
ques.jpg,stim_02/b.jpg,stim_02/f.jpg,2,13,f,4,0,120,27,j,0,0.933099136476,01,P08,02,60.0223461125,N,PLT_transfer_02,2014_Feb_13_1343,
ques.jpg,stim_02/d.jpg,stim_02/b.jpg,1,11,j,4,1,121,10,j,1,0.783126271508,01,P08,02,60.0223461125,N,PLT_transfer_02,2014_Feb_13_1343,
ques.jpg,stim_02/b.jpg,stim_02/e.jpg,2,12,f,4,2,122,26,f,1,1.2996107262,01,P08,02,60.0223461125,N,PLT_transfer_02,2014_Feb_13_1343,
ques.jpg,stim_02/f.jpg,stim_02/c.jpg,1,8,f,4,3,123,7,j,0,0.933073199926,01,P08,02,60.0223461125,N,PLT_transfer_02,2014_Feb_13_1343,
ques.jpg,stim_02/c.jpg,stim_02/f.jpg,2,8,j,4,4,124,22,j,1,1.46620778262,01,P08,02,60.0223461125,N,PLT_transfer_02,2014_Feb_13_1343,
ques.jpg,stim_02/a.jpg,stim_02/c.jpg,2,2,j,4,5,125,16,f,0,0.716437041687,01,P08,02,60.0223461125,N,PLT_transfer_02,2014_Feb_13_1343,
ques.jpg,stim_02/e.jpg,stim_02/d.jpg,1,14,j,4,6,126,13,j,1,1.03304413559,01,P08,02,60.0223461125,N,PLT_transfer_02,2014_Feb_13_1343,
ques.jpg,stim_02/a.jpg,stim_02/e.jpg,2,4,j,4,7,127,18,j,1,0.699802110503,01,P08,02,60.0223461125,N,PLT_transfer_02,2014_Feb_13_1343,
ques.jpg,stim_02/c.jpg,stim_02/b.jpg,1,10,j,4,8,128,9,f,0,1.03305105281,01,P08,02,60.0223461125,N,PLT_transfer_02,2014_Feb_13_1343,
ques.jpg,stim_02/e.jpg,stim_02/f.jpg,2,9,j,4,9,129,23,j,1,0.866441316827,01,P08,02,60.0223461125,N,PLT_transfer_02,2014_Feb_13_1343,
ques.jpg,stim_02/f.jpg,stim_02/d.jpg,1,15,j,4,10,130,14,j,1,1.0496825705,01,P08,02,60.0223461125,N,PLT_transfer_02,2014_Feb_13_1343,
ques.jpg,stim_02/a.jpg,stim_02/b.jpg,2,1,j,4,11,131,15,j,1,0.54986250531,01,P08,02,60.0223461125,N,PLT_transfer_02,2014_Feb_13_1343,
ques.jpg,stim_02/d.jpg,stim_02/f.jpg,2,15,f,4,12,132,29,f,1,0.866446210005,01,P08,02,60.0223461125,N,PLT_transfer_02,2014_Feb_13_1343,
ques.jpg,stim_02/b.jpg,stim_02/a.jpg,1,1,f,4,13,133,0,f,1,0.816444794984,01,P08,02,60.0223461125,N,PLT_transfer_02,2014_Feb_13_1343,
ques.jpg,stim_02/b.jpg,stim_02/c.jpg,2,10,f,4,14,134,24,f,1,1.06634057511,01,P08,02,60.0223461125,N,PLT_transfer_02,2014_Feb_13_1343,
ques.jpg,stim_02/c.jpg,stim_02/e.jpg,2,7,j,4,15,135,21,f,0,1.64949441021,01,P08,02,60.0223461125,N,PLT_transfer_02,2014_Feb_13_1343,
ques.jpg,stim_02/e.jpg,stim_02/b.jpg,1,12,j,4,16,136,11,j,1,0.749800106014,01,P08,02,60.0223461125,N,PLT_transfer_02,2014_Feb_13_1343,
ques.jpg,stim_02/a.jpg,stim_02/d.jpg,2,3,j,4,17,137,17,j,1,0.733163346278,01,P08,02,60.0223461125,N,PLT_transfer_02,2014_Feb_13_1343,
ques.jpg,stim_02/f.jpg,stim_02/b.jpg,1,13,j,4,18,138,12,j,1,0.883088082465,01,P08,02,60.0223461125,N,PLT_transfer_02,2014_Feb_13_1343,
ques.jpg,stim_02/c.jpg,stim_02/d.jpg,2,6,j,4,19,139,20,j,1,0.733128038406,01,P08,02,60.0223461125,N,PLT_transfer_02,2014_Feb_13_1343,
ques.jpg,stim_02/b.jpg,stim_02/d.jpg,2,11,f,4,20,140,25,j,0,1.26629344782,01,P08,02,60.0223461125,N,PLT_transfer_02,2014_Feb_13_1343,
ques.jpg,stim_02/d.jpg,stim_02/c.jpg,1,6,f,4,21,141,5,f,1,0.983070043571,01,P08,02,60.0223461125,N,PLT_transfer_02,2014_Feb_13_1343,
ques.jpg,stim_02/d.jpg,stim_02/e.jpg,2,14,f,4,22,142,28,f,1,0.699823102747,01,P08,02,60.0223461125,N,PLT_transfer_02,2014_Feb_13_1343,
ques.jpg,stim_02/f.jpg,stim_02/a.jpg,1,5,f,4,23,143,4,f,1,0.633162627489,01,P08,02,60.0223461125,N,PLT_transfer_02,2014_Feb_13_1343,
ques.jpg,stim_02/e.jpg,stim_02/c.jpg,1,7,f,4,24,144,6,j,0,1.232963135,01,P08,02,60.0223461125,N,PLT_transfer_02,2014_Feb_13_1343,
ques.jpg,stim_02/f.jpg,stim_02/e.jpg,1,9,f,4,25,145,8,f,1,0.716452154299,01,P08,02,60.0223461125,N,PLT_transfer_02,2014_Feb_13_1343,
ques.jpg,stim_02/d.jpg,stim_02/a.jpg,1,3,f,4,26,146,2,f,1,0.666522759518,01,P08,02,60.0223461125,N,PLT_transfer_02,2014_Feb_13_1343,
ques.jpg,stim_02/c.jpg,stim_02/a.jpg,1,2,f,4,27,147,1,f,1,0.599834582317,01,P08,02,60.0223461125,N,PLT_transfer_02,2014_Feb_13_1343,
ques.jpg,stim_02/e.jpg,stim_02/a.jpg,1,4,f,4,28,148,3,f,1,0.549846198727,01,P08,02,60.0223461125,N,PLT_transfer_02,2014_Feb_13_1343,
ques.jpg,stim_02/a.jpg,stim_02/f.jpg,2,5,j,4,29,149,19,j,1,0.649799597749,01,P08,02,60.0223461125,N,PLT_transfer_02,2014_Feb_13_1343,
ques.jpg,stim_02/d.jpg,stim_02/c.jpg,1,6,f,5,0,150,5,f,1,1.09971559118,01,P08,02,60.0223461125,N,PLT_transfer_02,2014_Feb_13_1343,
ques.jpg,stim_02/d.jpg,stim_02/e.jpg,2,14,f,5,1,151,28,f,1,1.36625557456,01,P08,02,60.0223461125,N,PLT_transfer_02,2014_Feb_13_1343,
ques.jpg,stim_02/b.jpg,stim_02/f.jpg,2,13,f,5,2,152,27,j,0,0.916407908182,01,P08,02,60.0223461125,N,PLT_transfer_02,2014_Feb_13_1343,
ques.jpg,stim_02/e.jpg,stim_02/d.jpg,1,14,j,5,3,153,13,j,1,0.699772598054,01,P08,02,60.0223461125,N,PLT_transfer_02,2014_Feb_13_1343,
ques.jpg,stim_02/f.jpg,stim_02/a.jpg,1,5,f,5,4,154,4,f,1,0.649847377661,01,P08,02,60.0223461125,N,PLT_transfer_02,2014_Feb_13_1343,
ques.jpg,stim_02/e.jpg,stim_02/a.jpg,1,4,f,5,5,155,3,f,1,0.549875308173,01,P08,02,60.0223461125,N,PLT_transfer_02,2014_Feb_13_1343,
ques.jpg,stim_02/d.jpg,stim_02/b.jpg,1,11,j,5,6,156,10,f,0,1.44958220772,01,P08,02,60.0223461125,N,PLT_transfer_02,2014_Feb_13_1343,
ques.jpg,stim_02/f.jpg,stim_02/d.jpg,1,15,j,5,7,157,14,j,1,1.04972143322,01,P08,02,60.0223461125,N,PLT_transfer_02,2014_Feb_13_1343,
ques.jpg,stim_02/f.jpg,stim_02/b.jpg,1,13,j,5,8,158,12,j,1,1.13302664105,01,P08,02,60.0223461125,N,PLT_transfer_02,2014_Feb_13_1343,
ques.jpg,stim_02/b.jpg,stim_02/e.jpg,2,12,f,5,9,159,26,f,1,1.38288104119,01,P08,02,60.0223461125,N,PLT_transfer_02,2014_Feb_13_1343,
ques.jpg,stim_02/a.jpg,stim_02/d.jpg,2,3,j,5,10,160,17,j,1,1.39959490682,01,P08,02,60.0223461125,N,PLT_transfer_02,2014_Feb_13_1343,
ques.jpg,stim_02/b.jpg,stim_02/c.jpg,2,10,f,5,11,161,24,j,0,0.916380894952,01,P08,02,60.0223461125,N,PLT_transfer_02,2014_Feb_13_1343,
ques.jpg,stim_02/b.jpg,stim_02/d.jpg,2,11,f,5,12,162,25,j,0,1.48285971812,01,P08,02,60.0223461125,N,PLT_transfer_02,2014_Feb_13_1343,
ques.jpg,stim_02/c.jpg,stim_02/b.jpg,1,10,j,5,13,163,9,f,0,1.01637282587,01,P08,02,60.0223461125,N,PLT_transfer_02,2014_Feb_13_1343,
ques.jpg,stim_02/c.jpg,stim_02/f.jpg,2,8,j,5,14,164,22,j,1,1.09953875107,01,P08,02,60.0223461125,N,PLT_transfer_02,2014_Feb_13_1343,
ques.jpg,stim_02/d.jpg,stim_02/f.jpg,2,15,f,5,15,165,29,None,0,,01,P08,02,60.0223461125,N,PLT_transfer_02,2014_Feb_13_1343,
ques.jpg,stim_02/e.jpg,stim_02/c.jpg,1,7,f,5,16,166,6,j,0,0.833143990105,01,P08,02,60.0223461125,N,PLT_transfer_02,2014_Feb_13_1343,
ques.jpg,stim_02/c.jpg,stim_02/e.jpg,2,7,j,5,17,167,21,f,0,1.21630024624,01,P08,02,60.0223461125,N,PLT_transfer_02,2014_Feb_13_1343,
ques.jpg,stim_02/e.jpg,stim_02/b.jpg,1,12,j,5,18,168,11,j,1,1.08302291628,01,P08,02,60.0223461125,N,PLT_transfer_02,2014_Feb_13_1343,
ques.jpg,stim_02/a.jpg,stim_02/f.jpg,2,5,j,5,19,169,19,j,1,0.683161528254,01,P08,02,60.0223461125,N,PLT_transfer_02,2014_Feb_13_1343,
ques.jpg,stim_02/a.jpg,stim_02/b.jpg,2,1,j,5,20,170,15,j,1,0.499891697462,01,P08,02,60.0223461125,N,PLT_transfer_02,2014_Feb_13_1343,
ques.jpg,stim_02/c.jpg,stim_02/a.jpg,1,2,f,5,21,171,1,f,1,0.733130068458,01,P08,02,60.0223461125,N,PLT_transfer_02,2014_Feb_13_1343,
ques.jpg,stim_02/a.jpg,stim_02/e.jpg,2,4,j,5,22,172,18,j,1,0.699862633128,01,P08,02,60.0223461125,N,PLT_transfer_02,2014_Feb_13_1343,
ques.jpg,stim_02/c.jpg,stim_02/d.jpg,2,6,j,5,23,173,20,j,1,0.91641118634,01,P08,02,60.0223461125,N,PLT_transfer_02,2014_Feb_13_1343,
ques.jpg,stim_02/d.jpg,stim_02/a.jpg,1,3,f,5,24,174,2,f,1,0.666490958372,01,P08,02,60.0223461125,N,PLT_transfer_02,2014_Feb_13_1343,
ques.jpg,stim_02/a.jpg,stim_02/c.jpg,2,2,j,5,25,175,16,j,1,0.866384469348,01,P08,02,60.0223461125,N,PLT_transfer_02,2014_Feb_13_1343,
ques.jpg,stim_02/b.jpg,stim_02/a.jpg,1,1,f,5,26,176,0,f,1,0.666462363206,01,P08,02,60.0223461125,N,PLT_transfer_02,2014_Feb_13_1343,
ques.jpg,stim_02/f.jpg,stim_02/c.jpg,1,8,f,5,27,177,7,f,1,0.749821432089,01,P08,02,60.0223461125,N,PLT_transfer_02,2014_Feb_13_1343,
ques.jpg,stim_02/f.jpg,stim_02/e.jpg,1,9,f,5,28,178,8,f,1,1.53286592708,01,P08,02,60.0223461125,N,PLT_transfer_02,2014_Feb_13_1343,
ques.jpg,stim_02/e.jpg,stim_02/f.jpg,2,9,j,5,29,179,23,j,1,0.81644293335,01,P08,02,60.0223461125,N,PLT_transfer_02,2014_Feb_13_1343,
