Fb3,Symbol2,Symbol1,PosCond,tID,Correct,trials.thisRepN,trials.thisTrialN,trials.thisN,trials.thisIndex,Response.keys,Response.corr,Response.rt,session,participant,version,frameRate,stimulation,expName,date,
ques.jpg,stim_03/a.jpg,stim_03/d.jpg,2,3,j,0,0,0,17,None,0,,01,P10,03,60.0243755788,N,PLT_transfer_03,2014_Feb_13_1547,
ques.jpg,stim_03/a.jpg,stim_03/f.jpg,2,5,j,0,1,1,19,f,0,1.24962845382,01,P10,03,60.0243755788,N,PLT_transfer_03,2014_Feb_13_1547,
ques.jpg,stim_03/b.jpg,stim_03/a.jpg,1,1,f,0,2,2,0,j,0,1.29961934264,01,P10,03,60.0243755788,N,PLT_transfer_03,2014_Feb_13_1547,
ques.jpg,stim_03/d.jpg,stim_03/f.jpg,2,15,f,0,3,3,29,j,0,1.2829607245,01,P10,03,60.0243755788,N,PLT_transfer_03,2014_Feb_13_1547,
ques.jpg,stim_03/b.jpg,stim_03/f.jpg,2,13,f,0,4,4,27,f,1,1.29961974865,01,P10,03,60.0243755788,N,PLT_transfer_03,2014_Feb_13_1547,
ques.jpg,stim_03/b.jpg,stim_03/d.jpg,2,11,f,0,5,5,25,f,1,1.31628169908,01,P10,03,60.0243755788,N,PLT_transfer_03,2014_Feb_13_1547,
ques.jpg,stim_03/c.jpg,stim_03/a.jpg,1,2,f,0,6,6,1,j,0,1.48285287309,01,P10,03,60.0243755788,N,PLT_transfer_03,2014_Feb_13_1547,
ques.jpg,stim_03/e.jpg,stim_03/a.jpg,1,4,f,0,7,7,3,f,1,1.34959106175,01,P10,03,60.0243755788,N,PLT_transfer_03,2014_Feb_13_1547,
ques.jpg,stim_03/c.jpg,stim_03/f.jpg,2,8,j,0,8,8,22,j,1,1.28300666083,01,P10,03,60.0243755788,N,PLT_transfer_03,2014_Feb_13_1547,
ques.jpg,stim_03/c.jpg,stim_03/e.jpg,2,7,j,0,9,9,21,j,1,1.33280690819,01,P10,03,60.0243755788,N,PLT_transfer_03,2014_Feb_13_1547,
ques.jpg,stim_03/b.jpg,stim_03/c.jpg,2,10,f,0,10,10,24,j,0,1.31625670086,01,P10,03,60.0243755788,N,PLT_transfer_03,2014_Feb_13_1547,
ques.jpg,stim_03/f.jpg,stim_03/c.jpg,1,8,f,0,11,11,7,f,1,1.1330086172,01,P10,03,60.0243755788,N,PLT_transfer_03,2014_Feb_13_1547,
ques.jpg,stim_03/f.jpg,stim_03/b.jpg,1,13,j,0,12,12,12,j,1,1.48291123935,01,P10,03,60.0243755788,N,PLT_transfer_03,2014_Feb_13_1547,
ques.jpg,stim_03/d.jpg,stim_03/a.jpg,1,3,f,0,13,13,2,j,0,1.51621956444,01,P10,03,60.0243755788,N,PLT_transfer_03,2014_Feb_13_1547,
ques.jpg,stim_03/f.jpg,stim_03/a.jpg,1,5,f,0,14,14,4,f,1,1.24960971418,01,P10,03,60.0243755788,N,PLT_transfer_03,2014_Feb_13_1547,
ques.jpg,stim_03/e.jpg,stim_03/b.jpg,1,12,j,0,15,15,11,j,1,1.08307608862,01,P10,03,60.0243755788,N,PLT_transfer_03,2014_Feb_13_1547,
ques.jpg,stim_03/d.jpg,stim_03/b.jpg,1,11,j,0,16,16,10,f,0,1.14965007763,01,P10,03,60.0243755788,N,PLT_transfer_03,2014_Feb_13_1547,
ques.jpg,stim_03/d.jpg,stim_03/c.jpg,1,6,f,0,17,17,5,j,0,0.883085986248,01,P10,03,60.0243755788,N,PLT_transfer_03,2014_Feb_13_1547,
ques.jpg,stim_03/f.jpg,stim_03/e.jpg,1,9,f,0,18,18,8,f,1,1.14966607444,01,P10,03,60.0243755788,N,PLT_transfer_03,2014_Feb_13_1547,
ques.jpg,stim_03/f.jpg,stim_03/d.jpg,1,15,j,0,19,19,14,f,0,1.36622389372,01,P10,03,60.0243755788,N,PLT_transfer_03,2014_Feb_13_1547,
ques.jpg,stim_03/a.jpg,stim_03/c.jpg,2,2,j,0,20,20,16,j,1,0.966369191325,01,P10,03,60.0243755788,N,PLT_transfer_03,2014_Feb_13_1547,
ques.jpg,stim_03/c.jpg,stim_03/b.jpg,1,10,j,0,21,21,9,j,1,1.29959457299,01,P10,03,60.0243755788,N,PLT_transfer_03,2014_Feb_13_1547,
ques.jpg,stim_03/a.jpg,stim_03/b.jpg,2,1,j,0,22,22,15,f,0,0.949685565953,01,P10,03,60.0243755788,N,PLT_transfer_03,2014_Feb_13_1547,
ques.jpg,stim_03/c.jpg,stim_03/d.jpg,2,6,j,0,23,23,20,None,0,,01,P10,03,60.0243755788,N,PLT_transfer_03,2014_Feb_13_1547,
ques.jpg,stim_03/b.jpg,stim_03/e.jpg,2,12,f,0,24,24,26,f,1,1.18301462766,01,P10,03,60.0243755788,N,PLT_transfer_03,2014_Feb_13_1547,
ques.jpg,stim_03/d.jpg,stim_03/e.jpg,2,14,f,0,25,25,28,j,0,0.983099694364,01,P10,03,60.0243755788,N,PLT_transfer_03,2014_Feb_13_1547,
ques.jpg,stim_03/e.jpg,stim_03/f.jpg,2,9,j,0,26,26,23,j,1,1.01640338793,01,P10,03,60.0243755788,N,PLT_transfer_03,2014_Feb_13_1547,
ques.jpg,stim_03/e.jpg,stim_03/c.jpg,1,7,f,0,27,27,6,f,1,1.08301574343,01,P10,03,60.0243755788,N,PLT_transfer_03,2014_Feb_13_1547,
ques.jpg,stim_03/a.jpg,stim_03/e.jpg,2,4,j,0,28,28,18,f,0,0.999707098039,01,P10,03,60.0243755788,N,PLT_transfer_03,2014_Feb_13_1547,
ques.jpg,stim_03/e.jpg,stim_03/d.jpg,1,14,j,0,29,29,13,f,0,1.21626920298,01,P10,03,60.0243755788,N,PLT_transfer_03,2014_Feb_13_1547,
ques.jpg,stim_03/f.jpg,stim_03/c.jpg,1,8,f,1,0,30,7,j,0,1.43292362868,01,P10,03,60.0243755788,N,PLT_transfer_03,2014_Feb_13_1547,
ques.jpg,stim_03/e.jpg,stim_03/f.jpg,2,9,j,1,1,31,23,f,0,1.54955382608,01,P10,03,60.0243755788,N,PLT_transfer_03,2014_Feb_13_1547,
ques.jpg,stim_03/e.jpg,stim_03/a.jpg,1,4,f,1,2,32,3,f,1,1.39958277162,01,P10,03,60.0243755788,N,PLT_transfer_03,2014_Feb_13_1547,
ques.jpg,stim_03/f.jpg,stim_03/e.jpg,1,9,f,1,3,33,8,f,1,1.46624845584,01,P10,03,60.0243755788,N,PLT_transfer_03,2014_Feb_13_1547,
ques.jpg,stim_03/a.jpg,stim_03/b.jpg,2,1,j,1,4,34,15,None,0,,01,P10,03,60.0243755788,N,PLT_transfer_03,2014_Feb_13_1547,
ques.jpg,stim_03/f.jpg,stim_03/a.jpg,1,5,f,1,5,35,4,f,1,1.09967261121,01,P10,03,60.0243755788,N,PLT_transfer_03,2014_Feb_13_1547,
ques.jpg,stim_03/b.jpg,stim_03/a.jpg,1,1,f,1,6,36,0,f,1,1.18299144897,01,P10,03,60.0243755788,N,PLT_transfer_03,2014_Feb_13_1547,
ques.jpg,stim_03/e.jpg,stim_03/b.jpg,1,12,j,1,7,37,11,f,0,1.29960414281,01,P10,03,60.0243755788,N,PLT_transfer_03,2014_Feb_13_1547,
ques.jpg,stim_03/b.jpg,stim_03/e.jpg,2,12,f,1,8,38,26,f,1,1.21636503348,01,P10,03,60.0243755788,N,PLT_transfer_03,2014_Feb_13_1547,
ques.jpg,stim_03/e.jpg,stim_03/c.jpg,1,7,f,1,9,39,6,f,1,1.31626243614,01,P10,03,60.0243755788,N,PLT_transfer_03,2014_Feb_13_1547,
ques.jpg,stim_03/c.jpg,stim_03/b.jpg,1,10,j,1,10,40,9,j,1,1.53286945786,01,P10,03,60.0243755788,N,PLT_transfer_03,2014_Feb_13_1547,
ques.jpg,stim_03/a.jpg,stim_03/e.jpg,2,4,j,1,11,41,18,f,0,0.816447712243,01,P10,03,60.0243755788,N,PLT_transfer_03,2014_Feb_13_1547,
ques.jpg,stim_03/e.jpg,stim_03/d.jpg,1,14,j,1,12,42,13,f,0,1.01641367654,01,P10,03,60.0243755788,N,PLT_transfer_03,2014_Feb_13_1547,
ques.jpg,stim_03/d.jpg,stim_03/f.jpg,2,15,f,1,13,43,29,j,0,1.41624262584,01,P10,03,60.0243755788,N,PLT_transfer_03,2014_Feb_13_1547,
ques.jpg,stim_03/d.jpg,stim_03/e.jpg,2,14,f,1,14,44,28,j,0,1.23204372282,01,P10,03,60.0243755788,N,PLT_transfer_03,2014_Feb_13_1547,
ques.jpg,stim_03/c.jpg,stim_03/e.jpg,2,7,j,1,15,45,21,j,1,1.53288440807,01,P10,03,60.0243755788,N,PLT_transfer_03,2014_Feb_13_1547,
ques.jpg,stim_03/b.jpg,stim_03/f.jpg,2,13,f,1,16,46,27,f,1,1.29961136679,01,P10,03,60.0243755788,N,PLT_transfer_03,2014_Feb_13_1547,
ques.jpg,stim_03/d.jpg,stim_03/a.jpg,1,3,f,1,17,47,2,j,0,1.39957057026,01,P10,03,60.0243755788,N,PLT_transfer_03,2014_Feb_13_1547,
ques.jpg,stim_03/c.jpg,stim_03/f.jpg,2,8,j,1,18,48,22,f,0,1.39954518107,01,P10,03,60.0243755788,N,PLT_transfer_03,2014_Feb_13_1547,
ques.jpg,stim_03/a.jpg,stim_03/c.jpg,2,2,j,1,19,49,16,f,0,0.816443522817,01,P10,03,60.0243755788,N,PLT_transfer_03,2014_Feb_13_1547,
ques.jpg,stim_03/d.jpg,stim_03/b.jpg,1,11,j,1,20,50,10,j,1,1.11631835731,01,P10,03,60.0243755788,N,PLT_transfer_03,2014_Feb_13_1547,
ques.jpg,stim_03/c.jpg,stim_03/d.jpg,2,6,j,1,21,51,20,j,1,1.24963031244,01,P10,03,60.0243755788,N,PLT_transfer_03,2014_Feb_13_1547,
ques.jpg,stim_03/a.jpg,stim_03/d.jpg,2,3,j,1,22,52,17,f,0,1.56618859787,01,P10,03,60.0243755788,N,PLT_transfer_03,2014_Feb_13_1547,
ques.jpg,stim_03/d.jpg,stim_03/c.jpg,1,6,f,1,23,53,5,f,1,1.16631464758,01,P10,03,60.0243755788,N,PLT_transfer_03,2014_Feb_13_1547,
ques.jpg,stim_03/f.jpg,stim_03/d.jpg,1,15,j,1,24,54,14,f,0,1.34960583151,01,P10,03,60.0243755788,N,PLT_transfer_03,2014_Feb_13_1547,
ques.jpg,stim_03/c.jpg,stim_03/a.jpg,1,2,f,1,25,55,1,j,0,1.13300681872,01,P10,03,60.0243755788,N,PLT_transfer_03,2014_Feb_13_1547,
ques.jpg,stim_03/b.jpg,stim_03/c.jpg,2,10,f,1,26,56,24,f,1,1.29962430499,01,P10,03,60.0243755788,N,PLT_transfer_03,2014_Feb_13_1547,
ques.jpg,stim_03/f.jpg,stim_03/b.jpg,1,13,j,1,27,57,12,f,0,1.08307409165,01,P10,03,60.0243755788,N,PLT_transfer_03,2014_Feb_13_1547,
ques.jpg,stim_03/b.jpg,stim_03/d.jpg,2,11,f,1,28,58,25,f,1,1.46621504269,01,P10,03,60.0243755788,N,PLT_transfer_03,2014_Feb_13_1547,
ques.jpg,stim_03/a.jpg,stim_03/f.jpg,2,5,j,1,29,59,19,j,1,0.983061354946,01,P10,03,60.0243755788,N,PLT_transfer_03,2014_Feb_13_1547,
ques.jpg,stim_03/d.jpg,stim_03/b.jpg,1,11,j,2,0,60,10,j,1,1.18298028819,01,P10,03,60.0243755788,N,PLT_transfer_03,2014_Feb_13_1547,
ques.jpg,stim_03/d.jpg,stim_03/e.jpg,2,14,f,2,1,61,28,j,0,1.44957288452,01,P10,03,60.0243755788,N,PLT_transfer_03,2014_Feb_13_1547,
ques.jpg,stim_03/e.jpg,stim_03/b.jpg,1,12,j,2,2,62,11,f,0,1.0497399894,01,P10,03,60.0243755788,N,PLT_transfer_03,2014_Feb_13_1547,
ques.jpg,stim_03/c.jpg,stim_03/d.jpg,2,6,j,2,3,63,20,f,0,1.41621935091,01,P10,03,60.0243755788,N,PLT_transfer_03,2014_Feb_13_1547,
ques.jpg,stim_03/c.jpg,stim_03/e.jpg,2,7,j,2,4,64,21,j,1,1.31629129897,01,P10,03,60.0243755788,N,PLT_transfer_03,2014_Feb_13_1547,
ques.jpg,stim_03/d.jpg,stim_03/f.jpg,2,15,f,2,5,65,29,j,0,1.41629043883,01,P10,03,60.0243755788,N,PLT_transfer_03,2014_Feb_13_1547,
ques.jpg,stim_03/a.jpg,stim_03/b.jpg,2,1,j,2,6,66,15,f,0,0.94973250377,01,P10,03,60.0243755788,N,PLT_transfer_03,2014_Feb_13_1547,
ques.jpg,stim_03/d.jpg,stim_03/c.jpg,1,6,f,2,7,67,5,f,1,0.716458331672,01,P10,03,60.0243755788,N,PLT_transfer_03,2014_Feb_13_1547,
ques.jpg,stim_03/c.jpg,stim_03/a.jpg,1,2,f,2,8,68,1,j,0,0.83308524791,01,P10,03,60.0243755788,N,PLT_transfer_03,2014_Feb_13_1547,
ques.jpg,stim_03/e.jpg,stim_03/f.jpg,2,9,j,2,9,69,23,j,1,1.13301508028,01,P10,03,60.0243755788,N,PLT_transfer_03,2014_Feb_13_1547,
ques.jpg,stim_03/e.jpg,stim_03/a.jpg,1,4,f,2,10,70,3,j,0,1.19964189577,01,P10,03,60.0243755788,N,PLT_transfer_03,2014_Feb_13_1547,
ques.jpg,stim_03/a.jpg,stim_03/c.jpg,2,2,j,2,11,71,16,f,0,0.966417912579,01,P10,03,60.0243755788,N,PLT_transfer_03,2014_Feb_13_1547,
ques.jpg,stim_03/f.jpg,stim_03/b.jpg,1,13,j,2,12,72,12,f,0,1.39953608042,01,P10,03,60.0243755788,N,PLT_transfer_03,2014_Feb_13_1547,
ques.jpg,stim_03/a.jpg,stim_03/e.jpg,2,4,j,2,13,73,18,f,0,0.849721123444,01,P10,03,60.0243755788,N,PLT_transfer_03,2014_Feb_13_1547,
ques.jpg,stim_03/b.jpg,stim_03/e.jpg,2,12,f,2,14,74,26,f,1,1.13300995854,01,P10,03,60.0243755788,N,PLT_transfer_03,2014_Feb_13_1547,
ques.jpg,stim_03/e.jpg,stim_03/c.jpg,1,7,f,2,15,75,6,f,1,0.766452832488,01,P10,03,60.0243755788,N,PLT_transfer_03,2014_Feb_13_1547,
ques.jpg,stim_03/f.jpg,stim_03/a.jpg,1,5,f,2,16,76,4,f,1,1.64946946613,01,P10,03,60.0243755788,N,PLT_transfer_03,2014_Feb_13_1547,
ques.jpg,stim_03/b.jpg,stim_03/f.jpg,2,13,f,2,17,77,27,j,0,1.44951549569,01,P10,03,60.0243755788,N,PLT_transfer_03,2014_Feb_13_1547,
ques.jpg,stim_03/b.jpg,stim_03/d.jpg,2,11,f,2,18,78,25,f,1,0.99969816581,01,P10,03,60.0243755788,N,PLT_transfer_03,2014_Feb_13_1547,
ques.jpg,stim_03/b.jpg,stim_03/a.jpg,1,1,f,2,19,79,0,j,0,1.56619990902,01,P10,03,60.0243755788,N,PLT_transfer_03,2014_Feb_13_1547,
ques.jpg,stim_03/f.jpg,stim_03/e.jpg,1,9,f,2,20,80,8,f,1,0.899761416225,01,P10,03,60.0243755788,N,PLT_transfer_03,2014_Feb_13_1547,
ques.jpg,stim_03/c.jpg,stim_03/f.jpg,2,8,j,2,21,81,22,j,1,1.43292007684,01,P10,03,60.0243755788,N,PLT_transfer_03,2014_Feb_13_1547,
ques.jpg,stim_03/e.jpg,stim_03/d.jpg,1,14,j,2,22,82,13,f,0,0.88308233817,01,P10,03,60.0243755788,N,PLT_transfer_03,2014_Feb_13_1547,
ques.jpg,stim_03/a.jpg,stim_03/d.jpg,2,3,j,2,23,83,17,f,0,0.649862547414,01,P10,03,60.0243755788,N,PLT_transfer_03,2014_Feb_13_1547,
ques.jpg,stim_03/c.jpg,stim_03/b.jpg,1,10,j,2,24,84,9,j,1,1.18300783976,01,P10,03,60.0243755788,N,PLT_transfer_03,2014_Feb_13_1547,
ques.jpg,stim_03/f.jpg,stim_03/c.jpg,1,8,f,2,25,85,7,f,1,0.6331730785,01,P10,03,60.0243755788,N,PLT_transfer_03,2014_Feb_13_1547,
ques.jpg,stim_03/a.jpg,stim_03/f.jpg,2,5,j,2,26,86,19,j,1,1.36625268437,01,P10,03,60.0243755788,N,PLT_transfer_03,2014_Feb_13_1547,
ques.jpg,stim_03/b.jpg,stim_03/c.jpg,2,10,f,2,27,87,24,f,1,0.949733237594,01,P10,03,60.0243755788,N,PLT_transfer_03,2014_Feb_13_1547,
ques.jpg,stim_03/d.jpg,stim_03/a.jpg,1,3,f,2,28,88,2,None,0,,01,P10,03,60.0243755788,N,PLT_transfer_03,2014_Feb_13_1547,
ques.jpg,stim_03/f.jpg,stim_03/d.jpg,1,15,j,2,29,89,14,f,0,0.66648029383,01,P10,03,60.0243755788,N,PLT_transfer_03,2014_Feb_13_1547,
ques.jpg,stim_03/d.jpg,stim_03/b.jpg,1,11,j,3,0,90,10,j,1,0.933050442289,01,P10,03,60.0243755788,N,PLT_transfer_03,2014_Feb_13_1547,
ques.jpg,stim_03/e.jpg,stim_03/c.jpg,1,7,f,3,1,91,6,f,1,0.649843846873,01,P10,03,60.0243755788,N,PLT_transfer_03,2014_Feb_13_1547,
ques.jpg,stim_03/d.jpg,stim_03/c.jpg,1,6,f,3,2,92,5,f,1,1.04969204107,01,P10,03,60.0243755788,N,PLT_transfer_03,2014_Feb_13_1547,
ques.jpg,stim_03/a.jpg,stim_03/c.jpg,2,2,j,3,3,93,16,f,0,0.833037732657,01,P10,03,60.0243755788,N,PLT_transfer_03,2014_Feb_13_1547,
ques.jpg,stim_03/a.jpg,stim_03/f.jpg,2,5,j,3,4,94,19,j,1,1.09969525757,01,P10,03,60.0243755788,N,PLT_transfer_03,2014_Feb_13_1547,
ques.jpg,stim_03/e.jpg,stim_03/d.jpg,1,14,j,3,5,95,13,f,0,0.949716034782,01,P10,03,60.0243755788,N,PLT_transfer_03,2014_Feb_13_1547,
ques.jpg,stim_03/c.jpg,stim_03/d.jpg,2,6,j,3,6,96,20,f,0,0.699791142206,01,P10,03,60.0243755788,N,PLT_transfer_03,2014_Feb_13_1547,
ques.jpg,stim_03/b.jpg,stim_03/e.jpg,2,12,f,3,7,97,26,f,1,1.26628467498,01,P10,03,60.0243755788,N,PLT_transfer_03,2014_Feb_13_1547,
ques.jpg,stim_03/a.jpg,stim_03/e.jpg,2,4,j,3,8,98,18,f,0,0.833109410045,01,P10,03,60.0243755788,N,PLT_transfer_03,2014_Feb_13_1547,
ques.jpg,stim_03/e.jpg,stim_03/f.jpg,2,9,j,3,9,99,23,f,0,1.18298806555,01,P10,03,60.0243755788,N,PLT_transfer_03,2014_Feb_13_1547,
ques.jpg,stim_03/f.jpg,stim_03/c.jpg,1,8,f,3,10,100,7,f,1,1.29965470765,01,P10,03,60.0243755788,N,PLT_transfer_03,2014_Feb_13_1547,
ques.jpg,stim_03/e.jpg,stim_03/a.jpg,1,4,f,3,11,101,3,j,0,1.34953365188,01,P10,03,60.0243755788,N,PLT_transfer_03,2014_Feb_13_1547,
ques.jpg,stim_03/a.jpg,stim_03/d.jpg,2,3,j,3,12,102,17,f,0,0.866396607556,01,P10,03,60.0243755788,N,PLT_transfer_03,2014_Feb_13_1547,
ques.jpg,stim_03/f.jpg,stim_03/b.jpg,1,13,j,3,13,103,12,f,0,0.99971844528,01,P10,03,60.0243755788,N,PLT_transfer_03,2014_Feb_13_1547,
ques.jpg,stim_03/e.jpg,stim_03/b.jpg,1,12,j,3,14,104,11,j,1,0.833137608222,01,P10,03,60.0243755788,N,PLT_transfer_03,2014_Feb_13_1547,
ques.jpg,stim_03/b.jpg,stim_03/c.jpg,2,10,f,3,15,105,24,f,1,0.883067156386,01,P10,03,60.0243755788,N,PLT_transfer_03,2014_Feb_13_1547,
ques.jpg,stim_03/f.jpg,stim_03/e.jpg,1,9,f,3,16,106,8,f,1,0.766428826742,01,P10,03,60.0243755788,N,PLT_transfer_03,2014_Feb_13_1547,
ques.jpg,stim_03/b.jpg,stim_03/a.jpg,1,1,f,3,17,107,0,f,1,0.866450949801,01,P10,03,60.0243755788,N,PLT_transfer_03,2014_Feb_13_1547,
ques.jpg,stim_03/f.jpg,stim_03/a.jpg,1,5,f,3,18,108,4,f,1,1.04970380935,01,P10,03,60.0243755788,N,PLT_transfer_03,2014_Feb_13_1547,
ques.jpg,stim_03/d.jpg,stim_03/a.jpg,1,3,f,3,19,109,2,j,0,0.949727800062,01,P10,03,60.0243755788,N,PLT_transfer_03,2014_Feb_13_1547,
ques.jpg,stim_03/c.jpg,stim_03/a.jpg,1,2,f,3,20,110,1,j,0,1.41626564212,01,P10,03,60.0243755788,N,PLT_transfer_03,2014_Feb_13_1547,
ques.jpg,stim_03/d.jpg,stim_03/f.jpg,2,15,f,3,21,111,29,j,0,1.1829634553,01,P10,03,60.0243755788,N,PLT_transfer_03,2014_Feb_13_1547,
ques.jpg,stim_03/c.jpg,stim_03/f.jpg,2,8,j,3,22,112,22,j,1,0.999700643979,01,P10,03,60.0243755788,N,PLT_transfer_03,2014_Feb_13_1547,
ques.jpg,stim_03/f.jpg,stim_03/d.jpg,1,15,j,3,23,113,14,f,0,0.583170087557,01,P10,03,60.0243755788,N,PLT_transfer_03,2014_Feb_13_1547,
ques.jpg,stim_03/c.jpg,stim_03/b.jpg,1,10,j,3,24,114,9,j,1,0.916415138176,01,P10,03,60.0243755788,N,PLT_transfer_03,2014_Feb_13_1547,
ques.jpg,stim_03/c.jpg,stim_03/e.jpg,2,7,j,3,25,115,21,j,1,1.08299700079,01,P10,03,60.0243755788,N,PLT_transfer_03,2014_Feb_13_1547,
ques.jpg,stim_03/a.jpg,stim_03/b.jpg,2,1,j,3,26,116,15,f,0,1.01638202877,01,P10,03,60.0243755788,N,PLT_transfer_03,2014_Feb_13_1547,
ques.jpg,stim_03/b.jpg,stim_03/d.jpg,2,11,f,3,27,117,25,f,1,0.616520063308,01,P10,03,60.0243755788,N,PLT_transfer_03,2014_Feb_13_1547,
ques.jpg,stim_03/b.jpg,stim_03/f.jpg,2,13,f,3,28,118,27,j,0,0.999725118889,01,P10,03,60.0243755788,N,PLT_transfer_03,2014_Feb_13_1547,
ques.jpg,stim_03/d.jpg,stim_03/e.jpg,2,14,f,3,29,119,28,f,1,1.38313472555,01,P10,03,60.0243755788,N,PLT_transfer_03,2014_Feb_13_1547,
ques.jpg,stim_03/b.jpg,stim_03/d.jpg,2,11,f,4,0,120,25,f,1,0.649826556843,01,P10,03,60.0243755788,N,PLT_transfer_03,2014_Feb_13_1547,
ques.jpg,stim_03/d.jpg,stim_03/a.jpg,1,3,f,4,1,121,2,j,0,1.59950399958,01,P10,03,60.0243755788,N,PLT_transfer_03,2014_Feb_13_1547,
ques.jpg,stim_03/c.jpg,stim_03/e.jpg,2,7,j,4,2,122,21,f,0,1.58288815089,01,P10,03,60.0243755788,N,PLT_transfer_03,2014_Feb_13_1547,
ques.jpg,stim_03/c.jpg,stim_03/d.jpg,2,6,j,4,3,123,20,f,0,1.33293969767,01,P10,03,60.0243755788,N,PLT_transfer_03,2014_Feb_13_1547,
ques.jpg,stim_03/a.jpg,stim_03/f.jpg,2,5,j,4,4,124,19,j,1,0.933067142851,01,P10,03,60.0243755788,N,PLT_transfer_03,2014_Feb_13_1547,
ques.jpg,stim_03/a.jpg,stim_03/c.jpg,2,2,j,4,5,125,16,f,0,0.649824054615,01,P10,03,60.0243755788,N,PLT_transfer_03,2014_Feb_13_1547,
ques.jpg,stim_03/b.jpg,stim_03/a.jpg,1,1,f,4,6,126,0,j,0,0.933045455879,01,P10,03,60.0243755788,N,PLT_transfer_03,2014_Feb_13_1547,
ques.jpg,stim_03/a.jpg,stim_03/b.jpg,2,1,j,4,7,127,15,f,0,0.799762532002,01,P10,03,60.0243755788,N,PLT_transfer_03,2014_Feb_13_1547,
ques.jpg,stim_03/b.jpg,stim_03/f.jpg,2,13,f,4,8,128,27,j,0,1.43287377361,01,P10,03,60.0243755788,N,PLT_transfer_03,2014_Feb_13_1547,
ques.jpg,stim_03/f.jpg,stim_03/a.jpg,1,5,f,4,9,129,4,f,1,0.783134484949,01,P10,03,60.0243755788,N,PLT_transfer_03,2014_Feb_13_1547,
ques.jpg,stim_03/c.jpg,stim_03/f.jpg,2,8,j,4,10,130,22,j,1,1.16633175716,01,P10,03,60.0243755788,N,PLT_transfer_03,2014_Feb_13_1547,
ques.jpg,stim_03/d.jpg,stim_03/e.jpg,2,14,f,4,11,131,28,j,0,1.31626932629,01,P10,03,60.0243755788,N,PLT_transfer_03,2014_Feb_13_1547,
ques.jpg,stim_03/e.jpg,stim_03/f.jpg,2,9,j,4,12,132,23,j,1,1.29958225734,01,P10,03,60.0243755788,N,PLT_transfer_03,2014_Feb_13_1547,
ques.jpg,stim_03/f.jpg,stim_03/e.jpg,1,9,f,4,13,133,8,f,1,0.749832695121,01,P10,03,60.0243755788,N,PLT_transfer_03,2014_Feb_13_1547,
ques.jpg,stim_03/b.jpg,stim_03/c.jpg,2,10,f,4,14,134,24,f,1,0.816440701798,01,P10,03,60.0243755788,N,PLT_transfer_03,2014_Feb_13_1547,
ques.jpg,stim_03/f.jpg,stim_03/c.jpg,1,8,f,4,15,135,7,f,1,0.716454433972,01,P10,03,60.0243755788,N,PLT_transfer_03,2014_Feb_13_1547,
ques.jpg,stim_03/f.jpg,stim_03/d.jpg,1,15,j,4,16,136,14,f,0,1.01638323778,01,P10,03,60.0243755788,N,PLT_transfer_03,2014_Feb_13_1547,
ques.jpg,stim_03/d.jpg,stim_03/f.jpg,2,15,f,4,17,137,29,j,0,1.53288749375,01,P10,03,60.0243755788,N,PLT_transfer_03,2014_Feb_13_1547,
ques.jpg,stim_03/c.jpg,stim_03/b.jpg,1,10,j,4,18,138,9,None,0,,01,P10,03,60.0243755788,N,PLT_transfer_03,2014_Feb_13_1547,
ques.jpg,stim_03/a.jpg,stim_03/e.jpg,2,4,j,4,19,139,18,f,0,0.899710719052,01,P10,03,60.0243755788,N,PLT_transfer_03,2014_Feb_13_1547,
ques.jpg,stim_03/d.jpg,stim_03/c.jpg,1,6,f,4,20,140,5,f,1,1.01640974575,01,P10,03,60.0243755788,N,PLT_transfer_03,2014_Feb_13_1547,
ques.jpg,stim_03/f.jpg,stim_03/b.jpg,1,13,j,4,21,141,12,f,0,1.13301526975,01,P10,03,60.0243755788,N,PLT_transfer_03,2014_Feb_13_1547,
ques.jpg,stim_03/e.jpg,stim_03/a.jpg,1,4,f,4,22,142,3,f,1,1.11634541265,01,P10,03,60.0243755788,N,PLT_transfer_03,2014_Feb_13_1547,
ques.jpg,stim_03/e.jpg,stim_03/c.jpg,1,7,f,4,23,143,6,f,1,1.16633328496,01,P10,03,60.0243755788,N,PLT_transfer_03,2014_Feb_13_1547,
ques.jpg,stim_03/d.jpg,stim_03/b.jpg,1,11,j,4,24,144,10,j,1,1.59947720289,01,P10,03,60.0243755788,N,PLT_transfer_03,2014_Feb_13_1547,
ques.jpg,stim_03/e.jpg,stim_03/d.jpg,1,14,j,4,25,145,13,j,1,1.19962948689,01,P10,03,60.0243755788,N,PLT_transfer_03,2014_Feb_13_1547,
ques.jpg,stim_03/c.jpg,stim_03/a.jpg,1,2,f,4,26,146,1,j,0,1.61618930313,01,P10,03,60.0243755788,N,PLT_transfer_03,2014_Feb_13_1547,
ques.jpg,stim_03/b.jpg,stim_03/e.jpg,2,12,f,4,27,147,26,f,1,0.816448214493,01,P10,03,60.0243755788,N,PLT_transfer_03,2014_Feb_13_1547,
ques.jpg,stim_03/a.jpg,stim_03/d.jpg,2,3,j,4,28,148,17,f,0,0.899796823343,01,P10,03,60.0243755788,N,PLT_transfer_03,2014_Feb_13_1547,
ques.jpg,stim_03/e.jpg,stim_03/b.jpg,1,12,j,4,29,149,11,j,1,1.0996777901,01,P10,03,60.0243755788,N,PLT_transfer_03,2014_Feb_13_1547,
ques.jpg,stim_03/d.jpg,stim_03/a.jpg,1,3,f,5,0,150,2,j,0,1.14964131683,01,P10,03,60.0243755788,N,PLT_transfer_03,2014_Feb_13_1547,
ques.jpg,stim_03/c.jpg,stim_03/b.jpg,1,10,j,5,1,151,9,None,0,,01,P10,03,60.0243755788,N,PLT_transfer_03,2014_Feb_13_1547,
ques.jpg,stim_03/f.jpg,stim_03/e.jpg,1,9,f,5,2,152,8,f,1,0.549855921925,01,P10,03,60.0243755788,N,PLT_transfer_03,2014_Feb_13_1547,
ques.jpg,stim_03/b.jpg,stim_03/d.jpg,2,11,f,5,3,153,25,f,1,1.11633802325,01,P10,03,60.0243755788,N,PLT_transfer_03,2014_Feb_13_1547,
ques.jpg,stim_03/d.jpg,stim_03/f.jpg,2,15,f,5,4,154,29,j,0,0.916379147604,01,P10,03,60.0243755788,N,PLT_transfer_03,2014_Feb_13_1547,
ques.jpg,stim_03/e.jpg,stim_03/b.jpg,1,12,j,5,5,155,11,j,1,1.1829619696,01,P10,03,60.0243755788,N,PLT_transfer_03,2014_Feb_13_1547,
ques.jpg,stim_03/b.jpg,stim_03/e.jpg,2,12,f,5,6,156,26,j,0,1.16630104773,01,P10,03,60.0243755788,N,PLT_transfer_03,2014_Feb_13_1547,
ques.jpg,stim_03/c.jpg,stim_03/e.jpg,2,7,j,5,7,157,21,j,1,1.68282880719,01,P10,03,60.0243755788,N,PLT_transfer_03,2014_Feb_13_1547,
ques.jpg,stim_03/a.jpg,stim_03/e.jpg,2,4,j,5,8,158,18,f,0,1.06636259892,01,P10,03,60.0243755788,N,PLT_transfer_03,2014_Feb_13_1547,
ques.jpg,stim_03/e.jpg,stim_03/d.jpg,1,14,j,5,9,159,13,f,0,1.14962014714,01,P10,03,60.0243755788,N,PLT_transfer_03,2014_Feb_13_1547,
ques.jpg,stim_03/e.jpg,stim_03/f.jpg,2,9,j,5,10,160,23,j,1,0.983062795533,01,P10,03,60.0243755788,N,PLT_transfer_03,2014_Feb_13_1547,
ques.jpg,stim_03/a.jpg,stim_03/c.jpg,2,2,j,5,11,161,16,f,0,0.716458021901,01,P10,03,60.0243755788,N,PLT_transfer_03,2014_Feb_13_1547,
ques.jpg,stim_03/f.jpg,stim_03/d.jpg,1,15,j,5,12,162,14,f,0,1.14968555994,01,P10,03,60.0243755788,N,PLT_transfer_03,2014_Feb_13_1547,
ques.jpg,stim_03/f.jpg,stim_03/b.jpg,1,13,j,5,13,163,12,j,1,1.34959495344,01,P10,03,60.0243755788,N,PLT_transfer_03,2014_Feb_13_1547,
ques.jpg,stim_03/d.jpg,stim_03/e.jpg,2,14,f,5,14,164,28,f,1,1.48284977237,01,P10,03,60.0243755788,N,PLT_transfer_03,2014_Feb_13_1547,
ques.jpg,stim_03/a.jpg,stim_03/f.jpg,2,5,j,5,15,165,19,j,1,1.53287108191,01,P10,03,60.0243755788,N,PLT_transfer_03,2014_Feb_13_1547,
ques.jpg,stim_03/c.jpg,stim_03/a.jpg,1,2,f,5,16,166,1,j,0,1.23297886114,01,P10,03,60.0243755788,N,PLT_transfer_03,2014_Feb_13_1547,
ques.jpg,stim_03/c.jpg,stim_03/f.jpg,2,8,j,5,17,167,22,j,1,1.36627822995,01,P10,03,60.0243755788,N,PLT_transfer_03,2014_Feb_13_1547,
ques.jpg,stim_03/c.jpg,stim_03/d.jpg,2,6,j,5,18,168,20,f,0,1.08301692537,01,P10,03,60.0243755788,N,PLT_transfer_03,2014_Feb_13_1547,
ques.jpg,stim_03/d.jpg,stim_03/c.jpg,1,6,f,5,19,169,5,j,0,1.01637795664,01,P10,03,60.0243755788,N,PLT_transfer_03,2014_Feb_13_1547,
ques.jpg,stim_03/e.jpg,stim_03/c.jpg,1,7,f,5,20,170,6,f,1,1.13292717751,01,P10,03,60.0243755788,N,PLT_transfer_03,2014_Feb_13_1547,
ques.jpg,stim_03/d.jpg,stim_03/b.jpg,1,11,j,5,21,171,10,j,1,0.999716454326,01,P10,03,60.0243755788,N,PLT_transfer_03,2014_Feb_13_1547,
ques.jpg,stim_03/b.jpg,stim_03/a.jpg,1,1,f,5,22,172,0,f,1,0.766448243065,01,P10,03,60.0243755788,N,PLT_transfer_03,2014_Feb_13_1547,
ques.jpg,stim_03/f.jpg,stim_03/c.jpg,1,8,f,5,23,173,7,f,1,0.59981799303,01,P10,03,60.0243755788,N,PLT_transfer_03,2014_Feb_13_1547,
ques.jpg,stim_03/b.jpg,stim_03/f.jpg,2,13,f,5,24,174,27,j,0,1.06636730563,01,P10,03,60.0243755788,N,PLT_transfer_03,2014_Feb_13_1547,
ques.jpg,stim_03/f.jpg,stim_03/a.jpg,1,5,f,5,25,175,4,f,1,0.566525812115,01,P10,03,60.0243755788,N,PLT_transfer_03,2014_Feb_13_1547,
ques.jpg,stim_03/b.jpg,stim_03/c.jpg,2,10,f,5,26,176,24,f,1,1.13295752905,01,P10,03,60.0243755788,N,PLT_transfer_03,2014_Feb_13_1547,
ques.jpg,stim_03/a.jpg,stim_03/b.jpg,2,1,j,5,27,177,15,f,0,1.08301491637,01,P10,03,60.0243755788,N,PLT_transfer_03,2014_Feb_13_1547,
ques.jpg,stim_03/a.jpg,stim_03/d.jpg,2,3,j,5,28,178,17,f,0,0.883053610674,01,P10,03,60.0243755788,N,PLT_transfer_03,2014_Feb_13_1547,
ques.jpg,stim_03/e.jpg,stim_03/a.jpg,1,4,f,5,29,179,3,j,0,0.899744231456,01,P10,03,60.0243755788,N,PLT_transfer_03,2014_Feb_13_1547,
