Fb3,Symbol2,Symbol1,PosCond,tID,Correct,trials.thisRepN,trials.thisTrialN,trials.thisN,trials.thisIndex,Response.keys,Response.corr,Response.rt,session,participant,version,frameRate,stimulation,expName,date,
ques.jpg,stim_01/d.jpg,stim_01/f.jpg,2,15,f,0,0,0,29,f,1,1.61622396439,01,P13,01,60.0227166722,N,PLT_transfer_01,2014_Feb_18_1541,
ques.jpg,stim_01/c.jpg,stim_01/b.jpg,1,10,j,0,1,1,9,j,1,1.08315340504,01,P13,01,60.0227166722,N,PLT_transfer_01,2014_Feb_18_1541,
ques.jpg,stim_01/e.jpg,stim_01/d.jpg,1,14,j,0,2,2,13,j,1,1.06638741067,01,P13,01,60.0227166722,N,PLT_transfer_01,2014_Feb_18_1541,
ques.jpg,stim_01/a.jpg,stim_01/e.jpg,2,4,j,0,3,3,18,f,0,0.833130489506,01,P13,01,60.0227166722,N,PLT_transfer_01,2014_Feb_18_1541,
ques.jpg,stim_01/b.jpg,stim_01/d.jpg,2,11,f,0,4,4,25,f,1,1.26618796029,01,P13,01,60.0227166722,N,PLT_transfer_01,2014_Feb_18_1541,
ques.jpg,stim_01/d.jpg,stim_01/c.jpg,1,6,f,0,5,5,5,f,1,1.14967073604,01,P13,01,60.0227166722,N,PLT_transfer_01,2014_Feb_18_1541,
ques.jpg,stim_01/a.jpg,stim_01/f.jpg,2,5,j,0,6,6,19,f,0,1.3495998376,01,P13,01,60.0227166722,N,PLT_transfer_01,2014_Feb_18_1541,
ques.jpg,stim_01/f.jpg,stim_01/d.jpg,1,15,j,0,7,7,14,j,1,1.09971885129,01,P13,01,60.0227166722,N,PLT_transfer_01,2014_Feb_18_1541,
ques.jpg,stim_01/d.jpg,stim_01/a.jpg,1,3,f,0,8,8,2,f,1,0.949726058729,01,P13,01,60.0227166722,N,PLT_transfer_01,2014_Feb_18_1541,
ques.jpg,stim_01/d.jpg,stim_01/b.jpg,1,11,j,0,9,9,10,j,1,1.41623420187,01,P13,01,60.0227166722,N,PLT_transfer_01,2014_Feb_18_1541,
ques.jpg,stim_01/a.jpg,stim_01/c.jpg,2,2,j,0,10,10,16,j,1,1.18297094995,01,P13,01,60.0227166722,N,PLT_transfer_01,2014_Feb_18_1541,
ques.jpg,stim_01/c.jpg,stim_01/d.jpg,2,6,j,0,11,11,20,j,1,1.03308330207,01,P13,01,60.0227166722,N,PLT_transfer_01,2014_Feb_18_1541,
ques.jpg,stim_01/f.jpg,stim_01/e.jpg,1,9,f,0,12,12,8,f,1,1.01640416687,01,P13,01,60.0227166722,N,PLT_transfer_01,2014_Feb_18_1541,
ques.jpg,stim_01/e.jpg,stim_01/a.jpg,1,4,f,0,13,13,3,f,1,1.14964479348,01,P13,01,60.0227166722,N,PLT_transfer_01,2014_Feb_18_1541,
ques.jpg,stim_01/e.jpg,stim_01/b.jpg,1,12,j,0,14,14,11,j,1,0.799795623358,01,P13,01,60.0227166722,N,PLT_transfer_01,2014_Feb_18_1541,
ques.jpg,stim_01/c.jpg,stim_01/e.jpg,2,7,j,0,15,15,21,f,0,1.04972318959,01,P13,01,60.0227166722,N,PLT_transfer_01,2014_Feb_18_1541,
ques.jpg,stim_01/e.jpg,stim_01/c.jpg,1,7,f,0,16,16,6,f,1,1.03299906242,01,P13,01,60.0227166722,N,PLT_transfer_01,2014_Feb_18_1541,
ques.jpg,stim_01/b.jpg,stim_01/e.jpg,2,12,f,0,17,17,26,f,1,1.04969945151,01,P13,01,60.0227166722,N,PLT_transfer_01,2014_Feb_18_1541,
ques.jpg,stim_01/c.jpg,stim_01/a.jpg,1,2,f,0,18,18,1,j,0,1.28294863141,01,P13,01,60.0227166722,N,PLT_transfer_01,2014_Feb_18_1541,
ques.jpg,stim_01/f.jpg,stim_01/c.jpg,1,8,f,0,19,19,7,f,1,1.0497002515,01,P13,01,60.0227166722,N,PLT_transfer_01,2014_Feb_18_1541,
ques.jpg,stim_01/c.jpg,stim_01/f.jpg,2,8,j,0,20,20,22,j,1,1.23298914975,01,P13,01,60.0227166722,N,PLT_transfer_01,2014_Feb_18_1541,
ques.jpg,stim_01/a.jpg,stim_01/b.jpg,2,1,j,0,21,21,15,j,1,0.849786292636,01,P13,01,60.0227166722,N,PLT_transfer_01,2014_Feb_18_1541,
ques.jpg,stim_01/e.jpg,stim_01/f.jpg,2,9,j,0,22,22,23,f,0,1.4495408548,01,P13,01,60.0227166722,N,PLT_transfer_01,2014_Feb_18_1541,
ques.jpg,stim_01/d.jpg,stim_01/e.jpg,2,14,f,0,23,23,28,f,1,1.03312222193,01,P13,01,60.0227166722,N,PLT_transfer_01,2014_Feb_18_1541,
ques.jpg,stim_01/f.jpg,stim_01/a.jpg,1,5,f,0,24,24,4,f,1,1.08306590527,01,P13,01,60.0227166722,N,PLT_transfer_01,2014_Feb_18_1541,
ques.jpg,stim_01/b.jpg,stim_01/a.jpg,1,1,f,0,25,25,0,f,1,0.899747317135,01,P13,01,60.0227166722,N,PLT_transfer_01,2014_Feb_18_1541,
ques.jpg,stim_01/b.jpg,stim_01/f.jpg,2,13,f,0,26,26,27,f,1,1.11635498246,01,P13,01,60.0227166722,N,PLT_transfer_01,2014_Feb_18_1541,
ques.jpg,stim_01/b.jpg,stim_01/c.jpg,2,10,f,0,27,27,24,f,1,0.949730660181,01,P13,01,60.0227166722,N,PLT_transfer_01,2014_Feb_18_1541,
ques.jpg,stim_01/f.jpg,stim_01/b.jpg,1,13,j,0,28,28,12,j,1,1.44955194641,01,P13,01,60.0227166722,N,PLT_transfer_01,2014_Feb_18_1541,
ques.jpg,stim_01/a.jpg,stim_01/d.jpg,2,3,j,0,29,29,17,j,1,1.16634689684,01,P13,01,60.0227166722,N,PLT_transfer_01,2014_Feb_18_1541,
ques.jpg,stim_01/a.jpg,stim_01/d.jpg,2,3,j,1,0,30,17,j,1,1.09967856603,01,P13,01,60.0227166722,N,PLT_transfer_01,2014_Feb_18_1541,
ques.jpg,stim_01/c.jpg,stim_01/b.jpg,1,10,j,1,1,31,9,j,1,0.749828692158,01,P13,01,60.0227166722,N,PLT_transfer_01,2014_Feb_18_1541,
ques.jpg,stim_01/e.jpg,stim_01/f.jpg,2,9,j,1,2,32,23,j,1,0.899764868817,01,P13,01,60.0227166722,N,PLT_transfer_01,2014_Feb_18_1541,
ques.jpg,stim_01/f.jpg,stim_01/b.jpg,1,13,j,1,3,33,12,j,1,0.716455793356,01,P13,01,60.0227166722,N,PLT_transfer_01,2014_Feb_18_1541,
ques.jpg,stim_01/a.jpg,stim_01/f.jpg,2,5,j,1,4,34,19,j,1,0.666501370285,01,P13,01,60.0227166722,N,PLT_transfer_01,2014_Feb_18_1541,
ques.jpg,stim_01/a.jpg,stim_01/e.jpg,2,4,j,1,5,35,18,j,1,0.566521493367,01,P13,01,60.0227166722,N,PLT_transfer_01,2014_Feb_18_1541,
ques.jpg,stim_01/f.jpg,stim_01/c.jpg,1,8,f,1,6,36,7,f,1,0.883094482393,01,P13,01,60.0227166722,N,PLT_transfer_01,2014_Feb_18_1541,
ques.jpg,stim_01/b.jpg,stim_01/d.jpg,2,11,f,1,7,37,25,f,1,1.06628497573,01,P13,01,60.0227166722,N,PLT_transfer_01,2014_Feb_18_1541,
ques.jpg,stim_01/c.jpg,stim_01/f.jpg,2,8,j,1,8,38,22,j,1,0.916440858186,01,P13,01,60.0227166722,N,PLT_transfer_01,2014_Feb_18_1541,
ques.jpg,stim_01/f.jpg,stim_01/e.jpg,1,9,f,1,9,39,8,f,1,1.09969708612,01,P13,01,60.0227166722,N,PLT_transfer_01,2014_Feb_18_1541,
ques.jpg,stim_01/e.jpg,stim_01/c.jpg,1,7,f,1,10,40,6,f,1,1.24962554858,01,P13,01,60.0227166722,N,PLT_transfer_01,2014_Feb_18_1541,
ques.jpg,stim_01/f.jpg,stim_01/d.jpg,1,15,j,1,11,41,14,j,1,1.49961614568,01,P13,01,60.0227166722,N,PLT_transfer_01,2014_Feb_18_1541,
ques.jpg,stim_01/d.jpg,stim_01/a.jpg,1,3,f,1,12,42,2,f,1,0.649811260775,01,P13,01,60.0227166722,N,PLT_transfer_01,2014_Feb_18_1541,
ques.jpg,stim_01/a.jpg,stim_01/b.jpg,2,1,j,1,13,43,15,j,1,0.683143919429,01,P13,01,60.0227166722,N,PLT_transfer_01,2014_Feb_18_1541,
ques.jpg,stim_01/b.jpg,stim_01/e.jpg,2,12,f,1,14,44,26,f,1,1.2329993752,01,P13,01,60.0227166722,N,PLT_transfer_01,2014_Feb_18_1541,
ques.jpg,stim_01/d.jpg,stim_01/c.jpg,1,6,f,1,15,45,5,f,1,1.18301758401,01,P13,01,60.0227166722,N,PLT_transfer_01,2014_Feb_18_1541,
ques.jpg,stim_01/b.jpg,stim_01/f.jpg,2,13,f,1,16,46,27,f,1,0.983018191524,01,P13,01,60.0227166722,N,PLT_transfer_01,2014_Feb_18_1541,
ques.jpg,stim_01/e.jpg,stim_01/d.jpg,1,14,j,1,17,47,13,j,1,1.01638193554,01,P13,01,60.0227166722,N,PLT_transfer_01,2014_Feb_18_1541,
ques.jpg,stim_01/c.jpg,stim_01/e.jpg,2,7,j,1,18,48,21,j,1,0.916417784762,01,P13,01,60.0227166722,N,PLT_transfer_01,2014_Feb_18_1541,
ques.jpg,stim_01/e.jpg,stim_01/b.jpg,1,12,j,1,19,49,11,j,1,0.799817385519,01,P13,01,60.0227166722,N,PLT_transfer_01,2014_Feb_18_1541,
ques.jpg,stim_01/c.jpg,stim_01/a.jpg,1,2,f,1,20,50,1,f,1,0.733150182517,01,P13,01,60.0227166722,N,PLT_transfer_01,2014_Feb_18_1541,
ques.jpg,stim_01/d.jpg,stim_01/f.jpg,2,15,f,1,21,51,29,f,1,0.883062621098,01,P13,01,60.0227166722,N,PLT_transfer_01,2014_Feb_18_1541,
ques.jpg,stim_01/f.jpg,stim_01/a.jpg,1,5,f,1,22,52,4,f,1,0.749865178964,01,P13,01,60.0227166722,N,PLT_transfer_01,2014_Feb_18_1541,
ques.jpg,stim_01/c.jpg,stim_01/d.jpg,2,6,j,1,23,53,20,j,1,0.766468059383,01,P13,01,60.0227166722,N,PLT_transfer_01,2014_Feb_18_1541,
ques.jpg,stim_01/a.jpg,stim_01/c.jpg,2,2,j,1,24,54,16,j,1,0.883054121946,01,P13,01,60.0227166722,N,PLT_transfer_01,2014_Feb_18_1541,
ques.jpg,stim_01/d.jpg,stim_01/e.jpg,2,14,f,1,25,55,28,f,1,0.949709734101,01,P13,01,60.0227166722,N,PLT_transfer_01,2014_Feb_18_1541,
ques.jpg,stim_01/b.jpg,stim_01/a.jpg,1,1,f,1,26,56,0,f,1,0.716483161468,01,P13,01,60.0227166722,N,PLT_transfer_01,2014_Feb_18_1541,
ques.jpg,stim_01/b.jpg,stim_01/c.jpg,2,10,f,1,27,57,24,f,1,0.816501576298,01,P13,01,60.0227166722,N,PLT_transfer_01,2014_Feb_18_1541,
ques.jpg,stim_01/e.jpg,stim_01/a.jpg,1,4,f,1,28,58,3,f,1,0.783081198333,01,P13,01,60.0227166722,N,PLT_transfer_01,2014_Feb_18_1541,
ques.jpg,stim_01/d.jpg,stim_01/b.jpg,1,11,j,1,29,59,10,f,0,0.983047797205,01,P13,01,60.0227166722,N,PLT_transfer_01,2014_Feb_18_1541,
ques.jpg,stim_01/d.jpg,stim_01/b.jpg,1,11,j,2,0,60,10,f,0,0.983052070841,01,P13,01,60.0227166722,N,PLT_transfer_01,2014_Feb_18_1541,
ques.jpg,stim_01/f.jpg,stim_01/a.jpg,1,5,f,2,1,61,4,f,1,0.683165104153,01,P13,01,60.0227166722,N,PLT_transfer_01,2014_Feb_18_1541,
ques.jpg,stim_01/a.jpg,stim_01/e.jpg,2,4,j,2,2,62,18,j,1,0.99972160314,01,P13,01,60.0227166722,N,PLT_transfer_01,2014_Feb_18_1541,
ques.jpg,stim_01/c.jpg,stim_01/a.jpg,1,2,f,2,3,63,1,f,1,0.749802785683,01,P13,01,60.0227166722,N,PLT_transfer_01,2014_Feb_18_1541,
ques.jpg,stim_01/d.jpg,stim_01/c.jpg,1,6,f,2,4,64,5,f,1,1.46623564697,01,P13,01,60.0227166722,N,PLT_transfer_01,2014_Feb_18_1541,
ques.jpg,stim_01/a.jpg,stim_01/b.jpg,2,1,j,2,5,65,15,j,1,0.733130167705,01,P13,01,60.0227166722,N,PLT_transfer_01,2014_Feb_18_1541,
ques.jpg,stim_01/f.jpg,stim_01/e.jpg,1,9,f,2,6,66,8,f,1,1.23297932129,01,P13,01,60.0227166722,N,PLT_transfer_01,2014_Feb_18_1541,
ques.jpg,stim_01/d.jpg,stim_01/e.jpg,2,14,f,2,7,67,28,f,1,0.766450916719,01,P13,01,60.0227166722,N,PLT_transfer_01,2014_Feb_18_1541,
ques.jpg,stim_01/b.jpg,stim_01/f.jpg,2,13,f,2,8,68,27,f,1,1.21632254975,01,P13,01,60.0227166722,N,PLT_transfer_01,2014_Feb_18_1541,
ques.jpg,stim_01/e.jpg,stim_01/d.jpg,1,14,j,2,9,69,13,j,1,0.699838146186,01,P13,01,60.0227166722,N,PLT_transfer_01,2014_Feb_18_1541,
ques.jpg,stim_01/f.jpg,stim_01/d.jpg,1,15,j,2,10,70,14,j,1,1.24960281801,01,P13,01,60.0227166722,N,PLT_transfer_01,2014_Feb_18_1541,
ques.jpg,stim_01/a.jpg,stim_01/c.jpg,2,2,j,2,11,71,16,f,0,0.749838240922,01,P13,01,60.0227166722,N,PLT_transfer_01,2014_Feb_18_1541,
ques.jpg,stim_01/c.jpg,stim_01/b.jpg,1,10,j,2,12,72,9,j,1,0.683217208828,01,P13,01,60.0227166722,N,PLT_transfer_01,2014_Feb_18_1541,
ques.jpg,stim_01/c.jpg,stim_01/e.jpg,2,7,j,2,13,73,21,j,1,0.849786247524,01,P13,01,60.0227166722,N,PLT_transfer_01,2014_Feb_18_1541,
ques.jpg,stim_01/e.jpg,stim_01/a.jpg,1,4,f,2,14,74,3,f,1,0.999713687439,01,P13,01,60.0227166722,N,PLT_transfer_01,2014_Feb_18_1541,
ques.jpg,stim_01/e.jpg,stim_01/c.jpg,1,7,f,2,15,75,6,f,1,1.0997013748,01,P13,01,60.0227166722,N,PLT_transfer_01,2014_Feb_18_1541,
ques.jpg,stim_01/a.jpg,stim_01/d.jpg,2,3,j,2,16,76,17,j,1,0.599854365552,01,P13,01,60.0227166722,N,PLT_transfer_01,2014_Feb_18_1541,
ques.jpg,stim_01/f.jpg,stim_01/b.jpg,1,13,j,2,17,77,12,j,1,1.43288633286,01,P13,01,60.0227166722,N,PLT_transfer_01,2014_Feb_18_1541,
ques.jpg,stim_01/e.jpg,stim_01/f.jpg,2,9,j,2,18,78,23,j,1,0.949720443754,01,P13,01,60.0227166722,N,PLT_transfer_01,2014_Feb_18_1541,
ques.jpg,stim_01/b.jpg,stim_01/a.jpg,1,1,f,2,19,79,0,f,1,0.899732607527,01,P13,01,60.0227166722,N,PLT_transfer_01,2014_Feb_18_1541,
ques.jpg,stim_01/b.jpg,stim_01/e.jpg,2,12,f,2,20,80,26,f,1,0.799778312275,01,P13,01,60.0227166722,N,PLT_transfer_01,2014_Feb_18_1541,
ques.jpg,stim_01/a.jpg,stim_01/f.jpg,2,5,j,2,21,81,19,j,1,0.933049964098,01,P13,01,60.0227166722,N,PLT_transfer_01,2014_Feb_18_1541,
ques.jpg,stim_01/b.jpg,stim_01/c.jpg,2,10,f,2,22,82,24,f,1,1.13301939301,01,P13,01,60.0227166722,N,PLT_transfer_01,2014_Feb_18_1541,
ques.jpg,stim_01/d.jpg,stim_01/f.jpg,2,15,f,2,23,83,29,f,1,1.11634269989,01,P13,01,60.0227166722,N,PLT_transfer_01,2014_Feb_18_1541,
ques.jpg,stim_01/d.jpg,stim_01/a.jpg,1,3,f,2,24,84,2,f,1,0.733146672782,01,P13,01,60.0227166722,N,PLT_transfer_01,2014_Feb_18_1541,
ques.jpg,stim_01/f.jpg,stim_01/c.jpg,1,8,f,2,25,85,7,f,1,1.13305119416,01,P13,01,60.0227166722,N,PLT_transfer_01,2014_Feb_18_1541,
ques.jpg,stim_01/b.jpg,stim_01/d.jpg,2,11,f,2,26,86,25,j,0,1.1496380898,01,P13,01,60.0227166722,N,PLT_transfer_01,2014_Feb_18_1541,
ques.jpg,stim_01/c.jpg,stim_01/d.jpg,2,6,j,2,27,87,20,j,1,0.816429080875,01,P13,01,60.0227166722,N,PLT_transfer_01,2014_Feb_18_1541,
ques.jpg,stim_01/c.jpg,stim_01/f.jpg,2,8,j,2,28,88,22,j,1,0.66646667594,01,P13,01,60.0227166722,N,PLT_transfer_01,2014_Feb_18_1541,
ques.jpg,stim_01/e.jpg,stim_01/b.jpg,1,12,j,2,29,89,11,j,1,1.04971214009,01,P13,01,60.0227166722,N,PLT_transfer_01,2014_Feb_18_1541,
ques.jpg,stim_01/b.jpg,stim_01/e.jpg,2,12,f,3,0,90,26,f,1,0.699794703067,01,P13,01,60.0227166722,N,PLT_transfer_01,2014_Feb_18_1541,
ques.jpg,stim_01/e.jpg,stim_01/c.jpg,1,7,f,3,1,91,6,f,1,0.849749201325,01,P13,01,60.0227166722,N,PLT_transfer_01,2014_Feb_18_1541,
ques.jpg,stim_01/a.jpg,stim_01/f.jpg,2,5,j,3,2,92,19,j,1,1.03304351605,01,P13,01,60.0227166722,N,PLT_transfer_01,2014_Feb_18_1541,
ques.jpg,stim_01/a.jpg,stim_01/d.jpg,2,3,j,3,3,93,17,j,1,0.699818600542,01,P13,01,60.0227166722,N,PLT_transfer_01,2014_Feb_18_1541,
ques.jpg,stim_01/e.jpg,stim_01/a.jpg,1,4,f,3,4,94,3,f,1,0.91638567986,01,P13,01,60.0227166722,N,PLT_transfer_01,2014_Feb_18_1541,
ques.jpg,stim_01/c.jpg,stim_01/e.jpg,2,7,j,3,5,95,21,j,1,1.08400206915,01,P13,01,60.0227166722,N,PLT_transfer_01,2014_Feb_18_1541,
ques.jpg,stim_01/d.jpg,stim_01/c.jpg,1,6,f,3,6,96,5,f,1,1.13302050278,01,P13,01,60.0227166722,N,PLT_transfer_01,2014_Feb_18_1541,
ques.jpg,stim_01/c.jpg,stim_01/d.jpg,2,6,j,3,7,97,20,j,1,0.766467587208,01,P13,01,60.0227166722,N,PLT_transfer_01,2014_Feb_18_1541,
ques.jpg,stim_01/f.jpg,stim_01/a.jpg,1,5,f,3,8,98,4,f,1,1.11632838727,01,P13,01,60.0227166722,N,PLT_transfer_01,2014_Feb_18_1541,
ques.jpg,stim_01/a.jpg,stim_01/c.jpg,2,2,j,3,9,99,16,f,0,1.21636577933,01,P13,01,60.0227166722,N,PLT_transfer_01,2014_Feb_18_1541,
ques.jpg,stim_01/f.jpg,stim_01/e.jpg,1,9,f,3,10,100,8,f,1,1.08301516599,01,P13,01,60.0227166722,N,PLT_transfer_01,2014_Feb_18_1541,
ques.jpg,stim_01/e.jpg,stim_01/d.jpg,1,14,j,3,11,101,13,j,1,1.43288807119,01,P13,01,60.0227166722,N,PLT_transfer_01,2014_Feb_18_1541,
ques.jpg,stim_01/b.jpg,stim_01/a.jpg,1,1,f,3,12,102,0,f,1,0.549884303561,01,P13,01,60.0227166722,N,PLT_transfer_01,2014_Feb_18_1541,
ques.jpg,stim_01/d.jpg,stim_01/b.jpg,1,11,j,3,13,103,10,f,0,0.966437250708,01,P13,01,60.0227166722,N,PLT_transfer_01,2014_Feb_18_1541,
ques.jpg,stim_01/d.jpg,stim_01/a.jpg,1,3,f,3,14,104,2,f,1,0.666482131405,01,P13,01,60.0227166722,N,PLT_transfer_01,2014_Feb_18_1541,
ques.jpg,stim_01/d.jpg,stim_01/e.jpg,2,14,f,3,15,105,28,f,1,1.38287642771,01,P13,01,60.0227166722,N,PLT_transfer_01,2014_Feb_18_1541,
ques.jpg,stim_01/b.jpg,stim_01/c.jpg,2,10,f,3,16,106,24,f,1,0.733124760247,01,P13,01,60.0227166722,N,PLT_transfer_01,2014_Feb_18_1541,
ques.jpg,stim_01/f.jpg,stim_01/d.jpg,1,15,j,3,17,107,14,f,0,1.33295864483,01,P13,01,60.0227166722,N,PLT_transfer_01,2014_Feb_18_1541,
ques.jpg,stim_01/b.jpg,stim_01/f.jpg,2,13,f,3,18,108,27,f,1,0.69982294335,01,P13,01,60.0227166722,N,PLT_transfer_01,2014_Feb_18_1541,
ques.jpg,stim_01/f.jpg,stim_01/b.jpg,1,13,j,3,19,109,12,j,1,0.816439237151,01,P13,01,60.0227166722,N,PLT_transfer_01,2014_Feb_18_1541,
ques.jpg,stim_01/c.jpg,stim_01/a.jpg,1,2,f,3,20,110,1,f,1,0.766444336342,01,P13,01,60.0227166722,N,PLT_transfer_01,2014_Feb_18_1541,
ques.jpg,stim_01/b.jpg,stim_01/d.jpg,2,11,f,3,21,111,25,f,1,1.18299834814,01,P13,01,60.0227166722,N,PLT_transfer_01,2014_Feb_18_1541,
ques.jpg,stim_01/c.jpg,stim_01/f.jpg,2,8,j,3,22,112,22,j,1,1.29961196528,01,P13,01,60.0227166722,N,PLT_transfer_01,2014_Feb_18_1541,
ques.jpg,stim_01/f.jpg,stim_01/c.jpg,1,8,f,3,23,113,7,f,1,0.649809853272,01,P13,01,60.0227166722,N,PLT_transfer_01,2014_Feb_18_1541,
ques.jpg,stim_01/d.jpg,stim_01/f.jpg,2,15,f,3,24,114,29,f,1,1.11634703669,01,P13,01,60.0227166722,N,PLT_transfer_01,2014_Feb_18_1541,
ques.jpg,stim_01/e.jpg,stim_01/b.jpg,1,12,j,3,25,115,11,j,1,1.06640080601,01,P13,01,60.0227166722,N,PLT_transfer_01,2014_Feb_18_1541,
ques.jpg,stim_01/c.jpg,stim_01/b.jpg,1,10,j,3,26,116,9,j,1,1.11635055244,01,P13,01,60.0227166722,N,PLT_transfer_01,2014_Feb_18_1541,
ques.jpg,stim_01/a.jpg,stim_01/e.jpg,2,4,j,3,27,117,18,j,1,1.26627427811,01,P13,01,60.0227166722,N,PLT_transfer_01,2014_Feb_18_1541,
ques.jpg,stim_01/e.jpg,stim_01/f.jpg,2,9,j,3,28,118,23,j,1,0.983053947512,01,P13,01,60.0227166722,N,PLT_transfer_01,2014_Feb_18_1541,
ques.jpg,stim_01/a.jpg,stim_01/b.jpg,2,1,j,3,29,119,15,j,1,0.699820459168,01,P13,01,60.0227166722,N,PLT_transfer_01,2014_Feb_18_1541,
ques.jpg,stim_01/e.jpg,stim_01/a.jpg,1,4,f,4,0,120,3,f,1,0.833114646076,01,P13,01,60.0227166722,N,PLT_transfer_01,2014_Feb_18_1541,
ques.jpg,stim_01/c.jpg,stim_01/b.jpg,1,10,j,4,1,121,9,j,1,1.06637194919,01,P13,01,60.0227166722,N,PLT_transfer_01,2014_Feb_18_1541,
ques.jpg,stim_01/b.jpg,stim_01/f.jpg,2,13,f,4,2,122,27,f,1,1.09973403307,01,P13,01,60.0227166722,N,PLT_transfer_01,2014_Feb_18_1541,
ques.jpg,stim_01/f.jpg,stim_01/e.jpg,1,9,f,4,3,123,8,f,1,0.999700463528,01,P13,01,60.0227166722,N,PLT_transfer_01,2014_Feb_18_1541,
ques.jpg,stim_01/a.jpg,stim_01/c.jpg,2,2,j,4,4,124,16,f,0,0.733148865238,01,P13,01,60.0227166722,N,PLT_transfer_01,2014_Feb_18_1541,
ques.jpg,stim_01/e.jpg,stim_01/d.jpg,1,14,j,4,5,125,13,j,1,0.983075820949,01,P13,01,60.0227166722,N,PLT_transfer_01,2014_Feb_18_1541,
ques.jpg,stim_01/b.jpg,stim_01/d.jpg,2,11,f,4,6,126,25,j,0,1.64948212163,01,P13,01,60.0227166722,N,PLT_transfer_01,2014_Feb_18_1541,
ques.jpg,stim_01/b.jpg,stim_01/c.jpg,2,10,f,4,7,127,24,f,1,0.899749184784,01,P13,01,60.0227166722,N,PLT_transfer_01,2014_Feb_18_1541,
ques.jpg,stim_01/e.jpg,stim_01/b.jpg,1,12,j,4,8,128,11,j,1,0.999717997166,01,P13,01,60.0227166722,N,PLT_transfer_01,2014_Feb_18_1541,
ques.jpg,stim_01/f.jpg,stim_01/c.jpg,1,8,f,4,9,129,7,f,1,0.683153179476,01,P13,01,60.0227166722,N,PLT_transfer_01,2014_Feb_18_1541,
ques.jpg,stim_01/d.jpg,stim_01/f.jpg,2,15,f,4,10,130,29,f,1,0.949719797145,01,P13,01,60.0227166722,N,PLT_transfer_01,2014_Feb_18_1541,
ques.jpg,stim_01/a.jpg,stim_01/f.jpg,2,5,j,4,11,131,19,j,1,0.783118644526,01,P13,01,60.0227166722,N,PLT_transfer_01,2014_Feb_18_1541,
ques.jpg,stim_01/d.jpg,stim_01/e.jpg,2,14,f,4,12,132,28,f,1,1.31629645981,01,P13,01,60.0227166722,N,PLT_transfer_01,2014_Feb_18_1541,
ques.jpg,stim_01/b.jpg,stim_01/e.jpg,2,12,f,4,13,133,26,f,1,0.916389691846,01,P13,01,60.0227166722,N,PLT_transfer_01,2014_Feb_18_1541,
ques.jpg,stim_01/d.jpg,stim_01/c.jpg,1,6,f,4,14,134,5,f,1,0.649841401789,01,P13,01,60.0227166722,N,PLT_transfer_01,2014_Feb_18_1541,
ques.jpg,stim_01/f.jpg,stim_01/b.jpg,1,13,j,4,15,135,12,j,1,1.54954784119,01,P13,01,60.0227166722,N,PLT_transfer_01,2014_Feb_18_1541,
ques.jpg,stim_01/d.jpg,stim_01/a.jpg,1,3,f,4,16,136,2,f,1,0.833106074744,01,P13,01,60.0227166722,N,PLT_transfer_01,2014_Feb_18_1541,
ques.jpg,stim_01/e.jpg,stim_01/c.jpg,1,7,f,4,17,137,6,f,1,0.816446692706,01,P13,01,60.0227166722,N,PLT_transfer_01,2014_Feb_18_1541,
ques.jpg,stim_01/c.jpg,stim_01/f.jpg,2,8,j,4,18,138,22,j,1,1.14968263365,01,P13,01,60.0227166722,N,PLT_transfer_01,2014_Feb_18_1541,
ques.jpg,stim_01/f.jpg,stim_01/a.jpg,1,5,f,4,19,139,4,f,1,0.749797426345,01,P13,01,60.0227166722,N,PLT_transfer_01,2014_Feb_18_1541,
ques.jpg,stim_01/a.jpg,stim_01/e.jpg,2,4,j,4,20,140,18,j,1,0.51653940745,01,P13,01,60.0227166722,N,PLT_transfer_01,2014_Feb_18_1541,
ques.jpg,stim_01/c.jpg,stim_01/d.jpg,2,6,j,4,21,141,20,j,1,0.933068324793,01,P13,01,60.0227166722,N,PLT_transfer_01,2014_Feb_18_1541,
ques.jpg,stim_01/e.jpg,stim_01/f.jpg,2,9,j,4,22,142,23,None,0,,01,P13,01,60.0227166722,N,PLT_transfer_01,2014_Feb_18_1541,
ques.jpg,stim_01/a.jpg,stim_01/b.jpg,2,1,j,4,23,143,15,j,1,0.716637165746,01,P13,01,60.0227166722,N,PLT_transfer_01,2014_Feb_18_1541,
ques.jpg,stim_01/d.jpg,stim_01/b.jpg,1,11,j,4,24,144,10,f,0,0.949736702217,01,P13,01,60.0227166722,N,PLT_transfer_01,2014_Feb_18_1541,
ques.jpg,stim_01/f.jpg,stim_01/d.jpg,1,15,j,4,25,145,14,j,1,1.09970928749,01,P13,01,60.0227166722,N,PLT_transfer_01,2014_Feb_18_1541,
ques.jpg,stim_01/b.jpg,stim_01/a.jpg,1,1,f,4,26,146,0,f,1,0.799774835622,01,P13,01,60.0227166722,N,PLT_transfer_01,2014_Feb_18_1541,
ques.jpg,stim_01/c.jpg,stim_01/e.jpg,2,7,j,4,27,147,21,j,1,0.916444100254,01,P13,01,60.0227166722,N,PLT_transfer_01,2014_Feb_18_1541,
ques.jpg,stim_01/c.jpg,stim_01/a.jpg,1,2,f,4,28,148,1,f,1,0.683166370304,01,P13,01,60.0227166722,N,PLT_transfer_01,2014_Feb_18_1541,
ques.jpg,stim_01/a.jpg,stim_01/d.jpg,2,3,j,4,29,149,17,j,1,0.516511070928,01,P13,01,60.0227166722,N,PLT_transfer_01,2014_Feb_18_1541,
ques.jpg,stim_01/f.jpg,stim_01/e.jpg,1,9,f,5,0,150,8,f,1,0.949725048214,01,P13,01,60.0227166722,N,PLT_transfer_01,2014_Feb_18_1541,
ques.jpg,stim_01/a.jpg,stim_01/f.jpg,2,5,j,5,1,151,19,j,1,1.14967669688,01,P13,01,60.0227166722,N,PLT_transfer_01,2014_Feb_18_1541,
ques.jpg,stim_01/e.jpg,stim_01/d.jpg,1,14,j,5,2,152,13,j,1,0.899748872005,01,P13,01,60.0227166722,N,PLT_transfer_01,2014_Feb_18_1541,
ques.jpg,stim_01/c.jpg,stim_01/b.jpg,1,10,j,5,3,153,9,f,0,1.13300215411,01,P13,01,60.0227166722,N,PLT_transfer_01,2014_Feb_18_1541,
ques.jpg,stim_01/a.jpg,stim_01/e.jpg,2,4,j,5,4,154,18,j,1,1.16633550148,01,P13,01,60.0227166722,N,PLT_transfer_01,2014_Feb_18_1541,
ques.jpg,stim_01/e.jpg,stim_01/b.jpg,1,12,j,5,5,155,11,j,1,1.38289899888,01,P13,01,60.0227166722,N,PLT_transfer_01,2014_Feb_18_1541,
ques.jpg,stim_01/c.jpg,stim_01/f.jpg,2,8,j,5,6,156,22,j,1,0.966392770006,01,P13,01,60.0227166722,N,PLT_transfer_01,2014_Feb_18_1541,
ques.jpg,stim_01/a.jpg,stim_01/b.jpg,2,1,j,5,7,157,15,j,1,0.816460866983,01,P13,01,60.0227166722,N,PLT_transfer_01,2014_Feb_18_1541,
ques.jpg,stim_01/b.jpg,stim_01/d.jpg,2,11,f,5,8,158,25,j,0,0.699808236749,01,P13,01,60.0227166722,N,PLT_transfer_01,2014_Feb_18_1541,
ques.jpg,stim_01/f.jpg,stim_01/b.jpg,1,13,j,5,9,159,12,f,0,1.01639048582,01,P13,01,60.0227166722,N,PLT_transfer_01,2014_Feb_18_1541,
ques.jpg,stim_01/c.jpg,stim_01/a.jpg,1,2,f,5,10,160,1,f,1,0.699817767469,01,P13,01,60.0227166722,N,PLT_transfer_01,2014_Feb_18_1541,
ques.jpg,stim_01/d.jpg,stim_01/a.jpg,1,3,f,5,11,161,2,f,1,0.56652084375,01,P13,01,60.0227166722,N,PLT_transfer_01,2014_Feb_18_1541,
ques.jpg,stim_01/f.jpg,stim_01/d.jpg,1,15,j,5,12,162,14,j,1,1.43288035097,01,P13,01,60.0227166722,N,PLT_transfer_01,2014_Feb_18_1541,
ques.jpg,stim_01/e.jpg,stim_01/a.jpg,1,4,f,5,13,163,3,f,1,0.649824544836,01,P13,01,60.0227166722,N,PLT_transfer_01,2014_Feb_18_1541,
ques.jpg,stim_01/b.jpg,stim_01/f.jpg,2,13,f,5,14,164,27,f,1,1.1496801615,01,P13,01,60.0227166722,N,PLT_transfer_01,2014_Feb_18_1541,
ques.jpg,stim_01/f.jpg,stim_01/a.jpg,1,5,f,5,15,165,4,f,1,0.699859240685,01,P13,01,60.0227166722,N,PLT_transfer_01,2014_Feb_18_1541,
ques.jpg,stim_01/b.jpg,stim_01/c.jpg,2,10,f,5,16,166,24,f,1,0.716453348271,01,P13,01,60.0227166722,N,PLT_transfer_01,2014_Feb_18_1541,
ques.jpg,stim_01/e.jpg,stim_01/f.jpg,2,9,j,5,17,167,23,j,1,1.51625009041,01,P13,01,60.0227166722,N,PLT_transfer_01,2014_Feb_18_1541,
ques.jpg,stim_01/a.jpg,stim_01/d.jpg,2,3,j,5,18,168,17,j,1,0.549879933685,01,P13,01,60.0227166722,N,PLT_transfer_01,2014_Feb_18_1541,
ques.jpg,stim_01/d.jpg,stim_01/f.jpg,2,15,f,5,19,169,29,f,1,0.883094969605,01,P13,01,60.0227166722,N,PLT_transfer_01,2014_Feb_18_1541,
ques.jpg,stim_01/c.jpg,stim_01/d.jpg,2,6,j,5,20,170,20,j,1,0.733143373571,01,P13,01,60.0227166722,N,PLT_transfer_01,2014_Feb_18_1541,
ques.jpg,stim_01/e.jpg,stim_01/c.jpg,1,7,f,5,21,171,6,f,1,0.616536839058,01,P13,01,60.0227166722,N,PLT_transfer_01,2014_Feb_18_1541,
ques.jpg,stim_01/b.jpg,stim_01/a.jpg,1,1,f,5,22,172,0,f,1,0.599868999974,01,P13,01,60.0227166722,N,PLT_transfer_01,2014_Feb_18_1541,
ques.jpg,stim_01/d.jpg,stim_01/c.jpg,1,6,f,5,23,173,5,f,1,1.13301802762,01,P13,01,60.0227166722,N,PLT_transfer_01,2014_Feb_18_1541,
ques.jpg,stim_01/b.jpg,stim_01/e.jpg,2,12,f,5,24,174,26,f,1,0.899748432912,01,P13,01,60.0227166722,N,PLT_transfer_01,2014_Feb_18_1541,
ques.jpg,stim_01/d.jpg,stim_01/e.jpg,2,14,f,5,25,175,28,f,1,0.566526166998,01,P13,01,60.0227166722,N,PLT_transfer_01,2014_Feb_18_1541,
ques.jpg,stim_01/c.jpg,stim_01/e.jpg,2,7,j,5,26,176,21,f,0,0.616503428908,01,P13,01,60.0227166722,N,PLT_transfer_01,2014_Feb_18_1541,
ques.jpg,stim_01/a.jpg,stim_01/c.jpg,2,2,j,5,27,177,16,f,0,0.783075983353,01,P13,01,60.0227166722,N,PLT_transfer_01,2014_Feb_18_1541,
ques.jpg,stim_01/d.jpg,stim_01/b.jpg,1,11,j,5,28,178,10,f,0,1.11634284425,01,P13,01,60.0227166722,N,PLT_transfer_01,2014_Feb_18_1541,
ques.jpg,stim_01/f.jpg,stim_01/c.jpg,1,8,f,5,29,179,7,f,1,0.783144605136,01,P13,01,60.0227166722,N,PLT_transfer_01,2014_Feb_18_1541,
