Fb3,Symbol2,Symbol1,PosCond,tID,Correct,trials.thisRepN,trials.thisTrialN,trials.thisN,trials.thisIndex,Response.keys,Response.corr,Response.rt,session,participant,version,frameRate,stimulation,expName,date,
ques.jpg,stim_02/f.jpg,stim_02/a.jpg,1,5,f,0,0,0,4,f,1,0.899769307865,01,P30,02,60.0184143445,N,PLT_transfer_02,2014_Mrz_25_1534,
ques.jpg,stim_02/c.jpg,stim_02/f.jpg,2,8,j,0,1,1,22,j,1,0.916429258317,01,P30,02,60.0184143445,N,PLT_transfer_02,2014_Mrz_25_1534,
ques.jpg,stim_02/a.jpg,stim_02/b.jpg,2,1,j,0,2,2,15,j,1,0.766442616061,01,P30,02,60.0184143445,N,PLT_transfer_02,2014_Mrz_25_1534,
ques.jpg,stim_02/b.jpg,stim_02/d.jpg,2,11,f,0,3,3,25,f,1,0.916412614895,01,P30,02,60.0184143445,N,PLT_transfer_02,2014_Mrz_25_1534,
ques.jpg,stim_02/d.jpg,stim_02/f.jpg,2,15,f,0,4,4,29,j,0,0.999701392842,01,P30,02,60.0184143445,N,PLT_transfer_02,2014_Mrz_25_1534,
ques.jpg,stim_02/e.jpg,stim_02/a.jpg,1,4,f,0,5,5,3,f,1,0.949726588045,01,P30,02,60.0184143445,N,PLT_transfer_02,2014_Mrz_25_1534,
ques.jpg,stim_02/d.jpg,stim_02/a.jpg,1,3,f,0,6,6,2,f,1,0.683161865092,01,P30,02,60.0184143445,N,PLT_transfer_02,2014_Mrz_25_1534,
ques.jpg,stim_02/b.jpg,stim_02/a.jpg,1,1,f,0,7,7,0,f,1,0.749812734442,01,P30,02,60.0184143445,N,PLT_transfer_02,2014_Mrz_25_1534,
ques.jpg,stim_02/a.jpg,stim_02/f.jpg,2,5,j,0,8,8,19,j,1,0.616496508686,01,P30,02,60.0184143445,N,PLT_transfer_02,2014_Mrz_25_1534,
ques.jpg,stim_02/b.jpg,stim_02/e.jpg,2,12,f,0,9,9,26,f,1,0.866396655678,01,P30,02,60.0184143445,N,PLT_transfer_02,2014_Mrz_25_1534,
ques.jpg,stim_02/e.jpg,stim_02/b.jpg,1,12,j,0,10,10,11,j,1,0.616584161833,01,P30,02,60.0184143445,N,PLT_transfer_02,2014_Mrz_25_1534,
ques.jpg,stim_02/b.jpg,stim_02/f.jpg,2,13,f,0,11,11,27,f,1,0.916398491747,01,P30,02,60.0184143445,N,PLT_transfer_02,2014_Mrz_25_1534,
ques.jpg,stim_02/e.jpg,stim_02/d.jpg,1,14,j,0,12,12,13,j,1,0.966382367116,01,P30,02,60.0184143445,N,PLT_transfer_02,2014_Mrz_25_1534,
ques.jpg,stim_02/a.jpg,stim_02/e.jpg,2,4,j,0,13,13,18,j,1,0.683146560001,01,P30,02,60.0184143445,N,PLT_transfer_02,2014_Mrz_25_1534,
ques.jpg,stim_02/d.jpg,stim_02/c.jpg,1,6,f,0,14,14,5,f,1,1.04970688,01,P30,02,60.0184143445,N,PLT_transfer_02,2014_Mrz_25_1534,
ques.jpg,stim_02/a.jpg,stim_02/d.jpg,2,3,j,0,15,15,17,j,1,0.566526509852,01,P30,02,60.0184143445,N,PLT_transfer_02,2014_Mrz_25_1534,
ques.jpg,stim_02/c.jpg,stim_02/d.jpg,2,6,j,0,16,16,20,j,1,0.733125623394,01,P30,02,60.0184143445,N,PLT_transfer_02,2014_Mrz_25_1534,
ques.jpg,stim_02/f.jpg,stim_02/d.jpg,1,15,j,0,17,17,14,f,0,0.766444252133,01,P30,02,60.0184143445,N,PLT_transfer_02,2014_Mrz_25_1534,
ques.jpg,stim_02/b.jpg,stim_02/c.jpg,2,10,f,0,18,18,24,f,1,0.916423778681,01,P30,02,60.0184143445,N,PLT_transfer_02,2014_Mrz_25_1534,
ques.jpg,stim_02/e.jpg,stim_02/f.jpg,2,9,j,0,19,19,23,j,1,1.03305119717,01,P30,02,60.0184143445,N,PLT_transfer_02,2014_Mrz_25_1534,
ques.jpg,stim_02/e.jpg,stim_02/c.jpg,1,7,f,0,20,20,6,f,1,1.08301969527,01,P30,02,60.0184143445,N,PLT_transfer_02,2014_Mrz_25_1534,
ques.jpg,stim_02/f.jpg,stim_02/e.jpg,1,9,f,0,21,21,8,f,1,0.783129116589,01,P30,02,60.0184143445,N,PLT_transfer_02,2014_Mrz_25_1534,
ques.jpg,stim_02/f.jpg,stim_02/c.jpg,1,8,f,0,22,22,7,f,1,0.733154221569,01,P30,02,60.0184143445,N,PLT_transfer_02,2014_Mrz_25_1534,
ques.jpg,stim_02/c.jpg,stim_02/e.jpg,2,7,j,0,23,23,21,j,1,0.666491238069,01,P30,02,60.0184143445,N,PLT_transfer_02,2014_Mrz_25_1534,
ques.jpg,stim_02/a.jpg,stim_02/c.jpg,2,2,j,0,24,24,16,j,1,0.833104462732,01,P30,02,60.0184143445,N,PLT_transfer_02,2014_Mrz_25_1534,
ques.jpg,stim_02/c.jpg,stim_02/b.jpg,1,10,j,0,25,25,9,j,1,0.599839361212,01,P30,02,60.0184143445,N,PLT_transfer_02,2014_Mrz_25_1534,
ques.jpg,stim_02/d.jpg,stim_02/e.jpg,2,14,f,0,26,26,28,f,1,1.16632809104,01,P30,02,60.0184143445,N,PLT_transfer_02,2014_Mrz_25_1534,
ques.jpg,stim_02/c.jpg,stim_02/a.jpg,1,2,f,0,27,27,1,j,0,0.566535117272,01,P30,02,60.0184143445,N,PLT_transfer_02,2014_Mrz_25_1534,
ques.jpg,stim_02/d.jpg,stim_02/b.jpg,1,11,j,0,28,28,10,j,1,0.833152537378,01,P30,02,60.0184143445,N,PLT_transfer_02,2014_Mrz_25_1534,
ques.jpg,stim_02/f.jpg,stim_02/b.jpg,1,13,j,0,29,29,12,f,0,1.04969127115,01,P30,02,60.0184143445,N,PLT_transfer_02,2014_Mrz_25_1534,
ques.jpg,stim_02/d.jpg,stim_02/a.jpg,1,3,f,1,0,30,2,f,1,0.833100098871,01,P30,02,60.0184143445,N,PLT_transfer_02,2014_Mrz_25_1534,
ques.jpg,stim_02/f.jpg,stim_02/d.jpg,1,15,j,1,1,31,14,f,0,0.799768534942,01,P30,02,60.0184143445,N,PLT_transfer_02,2014_Mrz_25_1534,
ques.jpg,stim_02/f.jpg,stim_02/a.jpg,1,5,f,1,2,32,4,f,1,0.883104340928,01,P30,02,60.0184143445,N,PLT_transfer_02,2014_Mrz_25_1534,
ques.jpg,stim_02/f.jpg,stim_02/c.jpg,1,8,f,1,3,33,7,f,1,0.816432975567,01,P30,02,60.0184143445,N,PLT_transfer_02,2014_Mrz_25_1534,
ques.jpg,stim_02/c.jpg,stim_02/b.jpg,1,10,j,1,4,34,9,j,1,0.599842699517,01,P30,02,60.0184143445,N,PLT_transfer_02,2014_Mrz_25_1534,
ques.jpg,stim_02/b.jpg,stim_02/a.jpg,1,1,f,1,5,35,0,f,1,0.716480776533,01,P30,02,60.0184143445,N,PLT_transfer_02,2014_Mrz_25_1534,
ques.jpg,stim_02/c.jpg,stim_02/e.jpg,2,7,j,1,6,36,21,j,1,0.683167272549,01,P30,02,60.0184143445,N,PLT_transfer_02,2014_Mrz_25_1534,
ques.jpg,stim_02/a.jpg,stim_02/b.jpg,2,1,j,1,7,37,15,j,1,0.516561037282,01,P30,02,60.0184143445,N,PLT_transfer_02,2014_Mrz_25_1534,
ques.jpg,stim_02/e.jpg,stim_02/d.jpg,1,14,j,1,8,38,13,f,0,0.799768366523,01,P30,02,60.0184143445,N,PLT_transfer_02,2014_Mrz_25_1534,
ques.jpg,stim_02/e.jpg,stim_02/c.jpg,1,7,f,1,9,39,6,f,1,0.733170895064,01,P30,02,60.0184143445,N,PLT_transfer_02,2014_Mrz_25_1534,
ques.jpg,stim_02/b.jpg,stim_02/e.jpg,2,12,f,1,10,40,26,f,1,0.866403046582,01,P30,02,60.0184143445,N,PLT_transfer_02,2014_Mrz_25_1534,
ques.jpg,stim_02/b.jpg,stim_02/f.jpg,2,13,f,1,11,41,27,f,1,0.633253636988,01,P30,02,60.0184143445,N,PLT_transfer_02,2014_Mrz_25_1534,
ques.jpg,stim_02/e.jpg,stim_02/b.jpg,1,12,j,1,12,42,11,j,1,0.633176446883,01,P30,02,60.0184143445,N,PLT_transfer_02,2014_Mrz_25_1534,
ques.jpg,stim_02/a.jpg,stim_02/f.jpg,2,5,j,1,13,43,19,j,1,0.466566861276,01,P30,02,60.0184143445,N,PLT_transfer_02,2014_Mrz_25_1534,
ques.jpg,stim_02/d.jpg,stim_02/e.jpg,2,14,f,1,14,44,28,f,1,0.699815815611,01,P30,02,60.0184143445,N,PLT_transfer_02,2014_Mrz_25_1534,
ques.jpg,stim_02/f.jpg,stim_02/b.jpg,1,13,j,1,15,45,12,j,1,0.916465663922,01,P30,02,60.0184143445,N,PLT_transfer_02,2014_Mrz_25_1534,
ques.jpg,stim_02/d.jpg,stim_02/c.jpg,1,6,f,1,16,46,5,f,1,0.816443564921,01,P30,02,60.0184143445,N,PLT_transfer_02,2014_Mrz_25_1534,
ques.jpg,stim_02/a.jpg,stim_02/e.jpg,2,4,j,1,17,47,18,j,1,0.683143122445,01,P30,02,60.0184143445,N,PLT_transfer_02,2014_Mrz_25_1534,
ques.jpg,stim_02/c.jpg,stim_02/f.jpg,2,8,j,1,18,48,22,j,1,0.583188758023,01,P30,02,60.0184143445,N,PLT_transfer_02,2014_Mrz_25_1534,
ques.jpg,stim_02/c.jpg,stim_02/d.jpg,2,6,j,1,19,49,20,j,1,0.599841725094,01,P30,02,60.0184143445,N,PLT_transfer_02,2014_Mrz_25_1534,
ques.jpg,stim_02/a.jpg,stim_02/d.jpg,2,3,j,1,20,50,17,j,1,0.516540105187,01,P30,02,60.0184143445,N,PLT_transfer_02,2014_Mrz_25_1534,
ques.jpg,stim_02/e.jpg,stim_02/a.jpg,1,4,f,1,21,51,3,f,1,0.633191736935,01,P30,02,60.0184143445,N,PLT_transfer_02,2014_Mrz_25_1534,
ques.jpg,stim_02/b.jpg,stim_02/c.jpg,2,10,f,1,22,52,24,f,1,0.732976100269,01,P30,02,60.0184143445,N,PLT_transfer_02,2014_Mrz_25_1534,
ques.jpg,stim_02/d.jpg,stim_02/b.jpg,1,11,j,1,23,53,10,j,1,0.683160556837,01,P30,02,60.0184143445,N,PLT_transfer_02,2014_Mrz_25_1534,
ques.jpg,stim_02/d.jpg,stim_02/f.jpg,2,15,f,1,24,54,29,j,0,1.03303391014,01,P30,02,60.0184143445,N,PLT_transfer_02,2014_Mrz_25_1534,
ques.jpg,stim_02/a.jpg,stim_02/c.jpg,2,2,j,1,25,55,16,j,1,0.616525458736,01,P30,02,60.0184143445,N,PLT_transfer_02,2014_Mrz_25_1534,
ques.jpg,stim_02/f.jpg,stim_02/e.jpg,1,9,f,1,26,56,8,f,1,0.683168920652,01,P30,02,60.0184143445,N,PLT_transfer_02,2014_Mrz_25_1534,
ques.jpg,stim_02/b.jpg,stim_02/d.jpg,2,11,f,1,27,57,25,f,1,0.816617773484,01,P30,02,60.0184143445,N,PLT_transfer_02,2014_Mrz_25_1534,
ques.jpg,stim_02/c.jpg,stim_02/a.jpg,1,2,f,1,28,58,1,j,0,0.649840120601,01,P30,02,60.0184143445,N,PLT_transfer_02,2014_Mrz_25_1534,
ques.jpg,stim_02/e.jpg,stim_02/f.jpg,2,9,j,1,29,59,23,f,0,0.94973385413,01,P30,02,60.0184143445,N,PLT_transfer_02,2014_Mrz_25_1534,
ques.jpg,stim_02/b.jpg,stim_02/a.jpg,1,1,f,2,0,60,0,j,0,0.733151965955,01,P30,02,60.0184143445,N,PLT_transfer_02,2014_Mrz_25_1534,
ques.jpg,stim_02/d.jpg,stim_02/e.jpg,2,14,f,2,1,61,28,f,1,0.99968510731,01,P30,02,60.0184143445,N,PLT_transfer_02,2014_Mrz_25_1534,
ques.jpg,stim_02/a.jpg,stim_02/e.jpg,2,4,j,2,2,62,18,j,1,0.499873249551,01,P30,02,60.0184143445,N,PLT_transfer_02,2014_Mrz_25_1534,
ques.jpg,stim_02/c.jpg,stim_02/b.jpg,1,10,j,2,3,63,9,j,1,0.649803552591,01,P30,02,60.0184143445,N,PLT_transfer_02,2014_Mrz_25_1534,
ques.jpg,stim_02/e.jpg,stim_02/b.jpg,1,12,j,2,4,64,11,j,1,1.06635091484,01,P30,02,60.0184143445,N,PLT_transfer_02,2014_Mrz_25_1534,
ques.jpg,stim_02/c.jpg,stim_02/d.jpg,2,6,j,2,5,65,20,j,1,0.433204828516,01,P30,02,60.0184143445,N,PLT_transfer_02,2014_Mrz_25_1534,
ques.jpg,stim_02/b.jpg,stim_02/d.jpg,2,11,f,2,6,66,25,f,1,0.683145429186,01,P30,02,60.0184143445,N,PLT_transfer_02,2014_Mrz_25_1534,
ques.jpg,stim_02/d.jpg,stim_02/c.jpg,1,6,f,2,7,67,5,f,1,0.833100450747,01,P30,02,60.0184143445,N,PLT_transfer_02,2014_Mrz_25_1534,
ques.jpg,stim_02/c.jpg,stim_02/e.jpg,2,7,j,2,8,68,21,j,1,0.466581237053,01,P30,02,60.0184143445,N,PLT_transfer_02,2014_Mrz_25_1534,
ques.jpg,stim_02/f.jpg,stim_02/a.jpg,1,5,f,2,9,69,4,f,1,0.733125406858,01,P30,02,60.0184143445,N,PLT_transfer_02,2014_Mrz_25_1534,
ques.jpg,stim_02/b.jpg,stim_02/e.jpg,2,12,f,2,10,70,26,f,1,0.683107303301,01,P30,02,60.0184143445,N,PLT_transfer_02,2014_Mrz_25_1534,
ques.jpg,stim_02/c.jpg,stim_02/a.jpg,1,2,f,2,11,71,1,j,0,0.683147642696,01,P30,02,60.0184143445,N,PLT_transfer_02,2014_Mrz_25_1534,
ques.jpg,stim_02/a.jpg,stim_02/c.jpg,2,2,j,2,12,72,16,j,1,0.766504359724,01,P30,02,60.0184143445,N,PLT_transfer_02,2014_Mrz_25_1534,
ques.jpg,stim_02/e.jpg,stim_02/a.jpg,1,4,f,2,13,73,3,f,1,0.833084420852,01,P30,02,60.0184143445,N,PLT_transfer_02,2014_Mrz_25_1534,
ques.jpg,stim_02/f.jpg,stim_02/b.jpg,1,13,j,2,14,74,12,f,0,0.649826361358,01,P30,02,60.0184143445,N,PLT_transfer_02,2014_Mrz_25_1534,
ques.jpg,stim_02/a.jpg,stim_02/f.jpg,2,5,j,2,15,75,19,j,1,0.49991329421,01,P30,02,60.0184143445,N,PLT_transfer_02,2014_Mrz_25_1534,
ques.jpg,stim_02/e.jpg,stim_02/d.jpg,1,14,j,2,16,76,13,f,0,0.883045412269,01,P30,02,60.0184143445,N,PLT_transfer_02,2014_Mrz_25_1534,
ques.jpg,stim_02/b.jpg,stim_02/f.jpg,2,13,f,2,17,77,27,f,1,0.749810508905,01,P30,02,60.0184143445,N,PLT_transfer_02,2014_Mrz_25_1534,
ques.jpg,stim_02/f.jpg,stim_02/d.jpg,1,15,j,2,18,78,14,f,0,0.733118008442,01,P30,02,60.0184143445,N,PLT_transfer_02,2014_Mrz_25_1534,
ques.jpg,stim_02/d.jpg,stim_02/b.jpg,1,11,j,2,19,79,10,j,1,0.883071008975,01,P30,02,60.0184143445,N,PLT_transfer_02,2014_Mrz_25_1534,
ques.jpg,stim_02/b.jpg,stim_02/c.jpg,2,10,f,2,20,80,24,f,1,0.733108613062,01,P30,02,60.0184143445,N,PLT_transfer_02,2014_Mrz_25_1534,
ques.jpg,stim_02/d.jpg,stim_02/a.jpg,1,3,f,2,21,81,2,j,0,0.783163567328,01,P30,02,60.0184143445,N,PLT_transfer_02,2014_Mrz_25_1534,
ques.jpg,stim_02/c.jpg,stim_02/f.jpg,2,8,j,2,22,82,22,j,1,0.616491365887,01,P30,02,60.0184143445,N,PLT_transfer_02,2014_Mrz_25_1534,
ques.jpg,stim_02/a.jpg,stim_02/d.jpg,2,3,j,2,23,83,17,j,1,0.633169457487,01,P30,02,60.0184143445,N,PLT_transfer_02,2014_Mrz_25_1534,
ques.jpg,stim_02/f.jpg,stim_02/c.jpg,1,8,f,2,24,84,7,f,1,0.916418404304,01,P30,02,60.0184143445,N,PLT_transfer_02,2014_Mrz_25_1534,
ques.jpg,stim_02/d.jpg,stim_02/f.jpg,2,15,f,2,25,85,29,j,0,0.86648609527,01,P30,02,60.0184143445,N,PLT_transfer_02,2014_Mrz_25_1534,
ques.jpg,stim_02/e.jpg,stim_02/f.jpg,2,9,j,2,26,86,23,j,1,0.949743556275,01,P30,02,60.0184143445,N,PLT_transfer_02,2014_Mrz_25_1534,
ques.jpg,stim_02/f.jpg,stim_02/e.jpg,1,9,f,2,27,87,8,f,1,0.649823817024,01,P30,02,60.0184143445,N,PLT_transfer_02,2014_Mrz_25_1534,
ques.jpg,stim_02/e.jpg,stim_02/c.jpg,1,7,f,2,28,88,6,f,1,0.666545893091,01,P30,02,60.0184143445,N,PLT_transfer_02,2014_Mrz_25_1534,
ques.jpg,stim_02/a.jpg,stim_02/b.jpg,2,1,j,2,29,89,15,j,1,0.483224751601,01,P30,02,60.0184143445,N,PLT_transfer_02,2014_Mrz_25_1534,
ques.jpg,stim_02/d.jpg,stim_02/a.jpg,1,3,f,3,0,90,2,f,1,0.983077992354,01,P30,02,60.0184143445,N,PLT_transfer_02,2014_Mrz_25_1534,
ques.jpg,stim_02/d.jpg,stim_02/b.jpg,1,11,j,3,1,91,10,j,1,0.866395572983,01,P30,02,60.0184143445,N,PLT_transfer_02,2014_Mrz_25_1534,
ques.jpg,stim_02/b.jpg,stim_02/d.jpg,2,11,f,3,2,92,25,f,1,0.783127666982,01,P30,02,60.0184143445,N,PLT_transfer_02,2014_Mrz_25_1534,
ques.jpg,stim_02/d.jpg,stim_02/e.jpg,2,14,f,3,3,93,28,f,1,0.933123728681,01,P30,02,60.0184143445,N,PLT_transfer_02,2014_Mrz_25_1534,
ques.jpg,stim_02/a.jpg,stim_02/f.jpg,2,5,j,3,4,94,19,j,1,0.533219793761,01,P30,02,60.0184143445,N,PLT_transfer_02,2014_Mrz_25_1534,
ques.jpg,stim_02/c.jpg,stim_02/f.jpg,2,8,j,3,5,95,22,j,1,0.583190454245,01,P30,02,60.0184143445,N,PLT_transfer_02,2014_Mrz_25_1534,
ques.jpg,stim_02/b.jpg,stim_02/c.jpg,2,10,f,3,6,96,24,f,1,0.583178018293,01,P30,02,60.0184143445,N,PLT_transfer_02,2014_Mrz_25_1534,
ques.jpg,stim_02/b.jpg,stim_02/e.jpg,2,12,f,3,7,97,26,f,1,0.633216665976,01,P30,02,60.0184143445,N,PLT_transfer_02,2014_Mrz_25_1534,
ques.jpg,stim_02/f.jpg,stim_02/b.jpg,1,13,j,3,8,98,12,j,1,1.13301600659,01,P30,02,60.0184143445,N,PLT_transfer_02,2014_Mrz_25_1534,
ques.jpg,stim_02/f.jpg,stim_02/d.jpg,1,15,j,3,9,99,14,f,0,0.833092420764,01,P30,02,60.0184143445,N,PLT_transfer_02,2014_Mrz_25_1534,
ques.jpg,stim_02/c.jpg,stim_02/a.jpg,1,2,f,3,10,100,1,f,1,0.749790698601,01,P30,02,60.0184143445,N,PLT_transfer_02,2014_Mrz_25_1534,
ques.jpg,stim_02/c.jpg,stim_02/e.jpg,2,7,j,3,11,101,21,j,1,0.566530227103,01,P30,02,60.0184143445,N,PLT_transfer_02,2014_Mrz_25_1534,
ques.jpg,stim_02/e.jpg,stim_02/b.jpg,1,12,j,3,12,102,11,j,1,1.19964160705,01,P30,02,60.0184143445,N,PLT_transfer_02,2014_Mrz_25_1534,
ques.jpg,stim_02/c.jpg,stim_02/d.jpg,2,6,j,3,13,103,20,j,1,0.58324783104,01,P30,02,60.0184143445,N,PLT_transfer_02,2014_Mrz_25_1534,
ques.jpg,stim_02/d.jpg,stim_02/c.jpg,1,6,f,3,14,104,5,f,1,0.849764831222,01,P30,02,60.0184143445,N,PLT_transfer_02,2014_Mrz_25_1534,
ques.jpg,stim_02/a.jpg,stim_02/e.jpg,2,4,j,3,15,105,18,j,1,0.683165001898,01,P30,02,60.0184143445,N,PLT_transfer_02,2014_Mrz_25_1534,
ques.jpg,stim_02/e.jpg,stim_02/c.jpg,1,7,f,3,16,106,6,f,1,0.899753957661,01,P30,02,60.0184143445,N,PLT_transfer_02,2014_Mrz_25_1534,
ques.jpg,stim_02/a.jpg,stim_02/b.jpg,2,1,j,3,17,107,15,j,1,0.516562219223,01,P30,02,60.0184143445,N,PLT_transfer_02,2014_Mrz_25_1534,
ques.jpg,stim_02/c.jpg,stim_02/b.jpg,1,10,j,3,18,108,9,j,1,0.583222691474,01,P30,02,60.0184143445,N,PLT_transfer_02,2014_Mrz_25_1534,
ques.jpg,stim_02/b.jpg,stim_02/a.jpg,1,1,f,3,19,109,0,f,1,0.983055024191,01,P30,02,60.0184143445,N,PLT_transfer_02,2014_Mrz_25_1534,
ques.jpg,stim_02/e.jpg,stim_02/f.jpg,2,9,j,3,20,110,23,j,1,1.29963843415,01,P30,02,60.0184143445,N,PLT_transfer_02,2014_Mrz_25_1534,
ques.jpg,stim_02/f.jpg,stim_02/c.jpg,1,8,f,3,21,111,7,f,1,0.56653740597,01,P30,02,60.0184143445,N,PLT_transfer_02,2014_Mrz_25_1534,
ques.jpg,stim_02/e.jpg,stim_02/d.jpg,1,14,j,3,22,112,13,f,0,0.699830119209,01,P30,02,60.0184143445,N,PLT_transfer_02,2014_Mrz_25_1534,
ques.jpg,stim_02/d.jpg,stim_02/f.jpg,2,15,f,3,23,113,29,j,0,0.699662987259,01,P30,02,60.0184143445,N,PLT_transfer_02,2014_Mrz_25_1534,
ques.jpg,stim_02/f.jpg,stim_02/e.jpg,1,9,f,3,24,114,8,f,1,0.483190733939,01,P30,02,60.0184143445,N,PLT_transfer_02,2014_Mrz_25_1534,
ques.jpg,stim_02/f.jpg,stim_02/a.jpg,1,5,f,3,25,115,4,f,1,0.849776563424,01,P30,02,60.0184143445,N,PLT_transfer_02,2014_Mrz_25_1534,
ques.jpg,stim_02/e.jpg,stim_02/a.jpg,1,4,f,3,26,116,3,f,1,0.766461133146,01,P30,02,60.0184143445,N,PLT_transfer_02,2014_Mrz_25_1534,
ques.jpg,stim_02/b.jpg,stim_02/f.jpg,2,13,f,3,27,117,27,f,1,0.71643120416,01,P30,02,60.0184143445,N,PLT_transfer_02,2014_Mrz_25_1534,
ques.jpg,stim_02/a.jpg,stim_02/c.jpg,2,2,j,3,28,118,16,j,1,0.599857330933,01,P30,02,60.0184143445,N,PLT_transfer_02,2014_Mrz_25_1534,
ques.jpg,stim_02/a.jpg,stim_02/d.jpg,2,3,j,3,29,119,17,j,1,0.5831568456,01,P30,02,60.0184143445,N,PLT_transfer_02,2014_Mrz_25_1534,
ques.jpg,stim_02/e.jpg,stim_02/f.jpg,2,9,j,4,0,120,23,f,0,0.716458316636,01,P30,02,60.0184143445,N,PLT_transfer_02,2014_Mrz_25_1534,
ques.jpg,stim_02/f.jpg,stim_02/e.jpg,1,9,f,4,1,121,8,f,1,0.966388785089,01,P30,02,60.0184143445,N,PLT_transfer_02,2014_Mrz_25_1534,
ques.jpg,stim_02/b.jpg,stim_02/c.jpg,2,10,f,4,2,122,24,f,1,0.899735663132,01,P30,02,60.0184143445,N,PLT_transfer_02,2014_Mrz_25_1534,
ques.jpg,stim_02/a.jpg,stim_02/b.jpg,2,1,j,4,3,123,15,j,1,0.666514873892,01,P30,02,60.0184143445,N,PLT_transfer_02,2014_Mrz_25_1534,
ques.jpg,stim_02/f.jpg,stim_02/d.jpg,1,15,j,4,4,124,14,f,0,1.08303014928,01,P30,02,60.0184143445,N,PLT_transfer_02,2014_Mrz_25_1534,
ques.jpg,stim_02/e.jpg,stim_02/c.jpg,1,7,f,4,5,125,6,f,1,0.84965802942,01,P30,02,60.0184143445,N,PLT_transfer_02,2014_Mrz_25_1534,
ques.jpg,stim_02/d.jpg,stim_02/c.jpg,1,6,f,4,6,126,5,f,1,0.683146484815,01,P30,02,60.0184143445,N,PLT_transfer_02,2014_Mrz_25_1534,
ques.jpg,stim_02/b.jpg,stim_02/f.jpg,2,13,f,4,7,127,27,f,1,0.699813042711,01,P30,02,60.0184143445,N,PLT_transfer_02,2014_Mrz_25_1534,
ques.jpg,stim_02/b.jpg,stim_02/a.jpg,1,1,f,4,8,128,0,f,1,0.69980106089,01,P30,02,60.0184143445,N,PLT_transfer_02,2014_Mrz_25_1534,
ques.jpg,stim_02/f.jpg,stim_02/a.jpg,1,5,f,4,9,129,4,f,1,0.533193415113,01,P30,02,60.0184143445,N,PLT_transfer_02,2014_Mrz_25_1534,
ques.jpg,stim_02/c.jpg,stim_02/e.jpg,2,7,j,4,10,130,21,j,1,0.599872759329,01,P30,02,60.0184143445,N,PLT_transfer_02,2014_Mrz_25_1534,
ques.jpg,stim_02/d.jpg,stim_02/b.jpg,1,11,j,4,11,131,10,j,1,0.749813344963,01,P30,02,60.0184143445,N,PLT_transfer_02,2014_Mrz_25_1534,
ques.jpg,stim_02/c.jpg,stim_02/b.jpg,1,10,j,4,12,132,9,j,1,0.949779110762,01,P30,02,60.0184143445,N,PLT_transfer_02,2014_Mrz_25_1534,
ques.jpg,stim_02/d.jpg,stim_02/e.jpg,2,14,f,4,13,133,28,f,1,0.583188225697,01,P30,02,60.0184143445,N,PLT_transfer_02,2014_Mrz_25_1534,
ques.jpg,stim_02/c.jpg,stim_02/f.jpg,2,8,j,4,14,134,22,j,1,0.683192165501,01,P30,02,60.0184143445,N,PLT_transfer_02,2014_Mrz_25_1534,
ques.jpg,stim_02/a.jpg,stim_02/f.jpg,2,5,j,4,15,135,19,j,1,0.783137441305,01,P30,02,60.0184143445,N,PLT_transfer_02,2014_Mrz_25_1534,
ques.jpg,stim_02/d.jpg,stim_02/a.jpg,1,3,f,4,16,136,2,f,1,0.533188985088,01,P30,02,60.0184143445,N,PLT_transfer_02,2014_Mrz_25_1534,
ques.jpg,stim_02/f.jpg,stim_02/c.jpg,1,8,f,4,17,137,7,f,1,0.5998428529,01,P30,02,60.0184143445,N,PLT_transfer_02,2014_Mrz_25_1534,
ques.jpg,stim_02/e.jpg,stim_02/d.jpg,1,14,j,4,18,138,13,j,1,1.16632404898,01,P30,02,60.0184143445,N,PLT_transfer_02,2014_Mrz_25_1534,
ques.jpg,stim_02/f.jpg,stim_02/b.jpg,1,13,j,4,19,139,12,f,0,0.766455966286,01,P30,02,60.0184143445,N,PLT_transfer_02,2014_Mrz_25_1534,
ques.jpg,stim_02/c.jpg,stim_02/a.jpg,1,2,f,4,20,140,1,j,0,0.499944144991,01,P30,02,60.0184143445,N,PLT_transfer_02,2014_Mrz_25_1534,
ques.jpg,stim_02/d.jpg,stim_02/f.jpg,2,15,f,4,21,141,29,f,1,0.599800874426,01,P30,02,60.0184143445,N,PLT_transfer_02,2014_Mrz_25_1534,
ques.jpg,stim_02/a.jpg,stim_02/c.jpg,2,2,j,4,22,142,16,j,1,0.699806600676,01,P30,02,60.0184143445,N,PLT_transfer_02,2014_Mrz_25_1534,
ques.jpg,stim_02/c.jpg,stim_02/d.jpg,2,6,j,4,23,143,20,j,1,0.74982736285,01,P30,02,60.0184143445,N,PLT_transfer_02,2014_Mrz_25_1534,
ques.jpg,stim_02/e.jpg,stim_02/a.jpg,1,4,f,4,24,144,3,f,1,0.616510643866,01,P30,02,60.0184143445,N,PLT_transfer_02,2014_Mrz_25_1534,
ques.jpg,stim_02/b.jpg,stim_02/e.jpg,2,12,f,4,25,145,26,f,1,0.666426023767,01,P30,02,60.0184143445,N,PLT_transfer_02,2014_Mrz_25_1534,
ques.jpg,stim_02/a.jpg,stim_02/e.jpg,2,4,j,4,26,146,18,j,1,0.64977590779,01,P30,02,60.0184143445,N,PLT_transfer_02,2014_Mrz_25_1534,
ques.jpg,stim_02/b.jpg,stim_02/d.jpg,2,11,f,4,27,147,25,f,1,0.633162438016,01,P30,02,60.0184143445,N,PLT_transfer_02,2014_Mrz_25_1534,
ques.jpg,stim_02/e.jpg,stim_02/b.jpg,1,12,j,4,28,148,11,j,1,0.749783694167,01,P30,02,60.0184143445,N,PLT_transfer_02,2014_Mrz_25_1534,
ques.jpg,stim_02/a.jpg,stim_02/d.jpg,2,3,j,4,29,149,17,j,1,0.649823486201,01,P30,02,60.0184143445,N,PLT_transfer_02,2014_Mrz_25_1534,
ques.jpg,stim_02/e.jpg,stim_02/b.jpg,1,12,j,5,0,150,11,f,0,0.766454937726,01,P30,02,60.0184143445,N,PLT_transfer_02,2014_Mrz_25_1534,
ques.jpg,stim_02/e.jpg,stim_02/f.jpg,2,9,j,5,1,151,23,j,1,0.866450790405,01,P30,02,60.0184143445,N,PLT_transfer_02,2014_Mrz_25_1534,
ques.jpg,stim_02/d.jpg,stim_02/e.jpg,2,14,f,5,2,152,28,j,0,0.866427780138,01,P30,02,60.0184143445,N,PLT_transfer_02,2014_Mrz_25_1534,
ques.jpg,stim_02/f.jpg,stim_02/b.jpg,1,13,j,5,3,153,12,j,1,0.899759753085,01,P30,02,60.0184143445,N,PLT_transfer_02,2014_Mrz_25_1534,
ques.jpg,stim_02/f.jpg,stim_02/c.jpg,1,8,f,5,4,154,7,f,1,0.966403344322,01,P30,02,60.0184143445,N,PLT_transfer_02,2014_Mrz_25_1534,
ques.jpg,stim_02/c.jpg,stim_02/d.jpg,2,6,j,5,5,155,20,j,1,0.616490186954,01,P30,02,60.0184143445,N,PLT_transfer_02,2014_Mrz_25_1534,
ques.jpg,stim_02/f.jpg,stim_02/d.jpg,1,15,j,5,6,156,14,f,0,0.616506601806,01,P30,02,60.0184143445,N,PLT_transfer_02,2014_Mrz_25_1534,
ques.jpg,stim_02/b.jpg,stim_02/e.jpg,2,12,f,5,7,157,26,f,1,0.666491030552,01,P30,02,60.0184143445,N,PLT_transfer_02,2014_Mrz_25_1534,
ques.jpg,stim_02/d.jpg,stim_02/a.jpg,1,3,f,5,8,158,2,f,1,0.799794769231,01,P30,02,60.0184143445,N,PLT_transfer_02,2014_Mrz_25_1534,
ques.jpg,stim_02/c.jpg,stim_02/b.jpg,1,10,j,5,9,159,9,j,1,0.583192327906,01,P30,02,60.0184143445,N,PLT_transfer_02,2014_Mrz_25_1534,
ques.jpg,stim_02/a.jpg,stim_02/f.jpg,2,5,j,5,10,160,19,j,1,0.533210214922,01,P30,02,60.0184143445,N,PLT_transfer_02,2014_Mrz_25_1534,
ques.jpg,stim_02/e.jpg,stim_02/a.jpg,1,4,f,5,11,161,3,f,1,0.799751491524,01,P30,02,60.0184143445,N,PLT_transfer_02,2014_Mrz_25_1534,
ques.jpg,stim_02/a.jpg,stim_02/d.jpg,2,3,j,5,12,162,17,j,1,0.583206339777,01,P30,02,60.0184143445,N,PLT_transfer_02,2014_Mrz_25_1534,
ques.jpg,stim_02/b.jpg,stim_02/f.jpg,2,13,f,5,13,163,27,f,1,0.599853078349,01,P30,02,60.0184143445,N,PLT_transfer_02,2014_Mrz_25_1534,
ques.jpg,stim_02/a.jpg,stim_02/b.jpg,2,1,j,5,14,164,15,j,1,0.566516197185,01,P30,02,60.0184143445,N,PLT_transfer_02,2014_Mrz_25_1534,
ques.jpg,stim_02/f.jpg,stim_02/a.jpg,1,5,f,5,15,165,4,f,1,0.499872810458,01,P30,02,60.0184143445,N,PLT_transfer_02,2014_Mrz_25_1534,
ques.jpg,stim_02/a.jpg,stim_02/c.jpg,2,2,j,5,16,166,16,j,1,0.483230700405,01,P30,02,60.0184143445,N,PLT_transfer_02,2014_Mrz_25_1534,
ques.jpg,stim_02/b.jpg,stim_02/d.jpg,2,11,f,5,17,167,25,f,1,0.716423889957,01,P30,02,60.0184143445,N,PLT_transfer_02,2014_Mrz_25_1534,
ques.jpg,stim_02/d.jpg,stim_02/f.jpg,2,15,f,5,18,168,29,j,0,0.533195661703,01,P30,02,60.0184143445,N,PLT_transfer_02,2014_Mrz_25_1534,
ques.jpg,stim_02/e.jpg,stim_02/c.jpg,1,7,f,5,19,169,6,f,1,0.933055010659,01,P30,02,60.0184143445,N,PLT_transfer_02,2014_Mrz_25_1534,
ques.jpg,stim_02/c.jpg,stim_02/e.jpg,2,7,j,5,20,170,21,j,1,0.599887935097,01,P30,02,60.0184143445,N,PLT_transfer_02,2014_Mrz_25_1534,
ques.jpg,stim_02/c.jpg,stim_02/f.jpg,2,8,j,5,21,171,22,j,1,0.58319978647,01,P30,02,60.0184143445,N,PLT_transfer_02,2014_Mrz_25_1534,
ques.jpg,stim_02/d.jpg,stim_02/c.jpg,1,6,f,5,22,172,5,f,1,0.749806154066,01,P30,02,60.0184143445,N,PLT_transfer_02,2014_Mrz_25_1534,
ques.jpg,stim_02/a.jpg,stim_02/e.jpg,2,4,j,5,23,173,18,j,1,0.599847430292,01,P30,02,60.0184143445,N,PLT_transfer_02,2014_Mrz_25_1534,
ques.jpg,stim_02/b.jpg,stim_02/c.jpg,2,10,f,5,24,174,24,f,1,0.71643662064,01,P30,02,60.0184143445,N,PLT_transfer_02,2014_Mrz_25_1534,
ques.jpg,stim_02/b.jpg,stim_02/a.jpg,1,1,f,5,25,175,0,f,1,0.633180940064,01,P30,02,60.0184143445,N,PLT_transfer_02,2014_Mrz_25_1534,
ques.jpg,stim_02/f.jpg,stim_02/e.jpg,1,9,f,5,26,176,8,f,1,0.983006176622,01,P30,02,60.0184143445,N,PLT_transfer_02,2014_Mrz_25_1534,
ques.jpg,stim_02/e.jpg,stim_02/d.jpg,1,14,j,5,27,177,13,f,0,0.916424581677,01,P30,02,60.0184143445,N,PLT_transfer_02,2014_Mrz_25_1534,
ques.jpg,stim_02/c.jpg,stim_02/a.jpg,1,2,f,5,28,178,1,j,0,0.749785188887,01,P30,02,60.0184143445,N,PLT_transfer_02,2014_Mrz_25_1534,
ques.jpg,stim_02/d.jpg,stim_02/b.jpg,1,11,j,5,29,179,10,f,0,0.73312174374,01,P30,02,60.0184143445,N,PLT_transfer_02,2014_Mrz_25_1534,
