Fb3,Symbol2,Symbol1,PosCond,tID,Correct,trials.thisRepN,trials.thisTrialN,trials.thisN,trials.thisIndex,Response.keys,Response.corr,Response.rt,session,participant,version,frameRate,stimulation,expName,date,
ques.jpg,stim_02/a.jpg,stim_02/e.jpg,2,4,j,0,0,0,18,j,1,1.63285274226,02,P01,02,60.0207176545,A,PLT_transfer_02,2014_Jan_27_1839,
ques.jpg,stim_02/e.jpg,stim_02/d.jpg,1,14,j,0,1,1,13,j,1,1.43295262986,02,P01,02,60.0207176545,A,PLT_transfer_02,2014_Jan_27_1839,
ques.jpg,stim_02/a.jpg,stim_02/b.jpg,2,1,j,0,2,2,15,j,1,0.8830835562,02,P01,02,60.0207176545,A,PLT_transfer_02,2014_Jan_27_1839,
ques.jpg,stim_02/f.jpg,stim_02/a.jpg,1,5,f,0,3,3,4,f,1,0.833084847915,02,P01,02,60.0207176545,A,PLT_transfer_02,2014_Jan_27_1839,
ques.jpg,stim_02/c.jpg,stim_02/f.jpg,2,8,j,0,4,4,22,f,0,1.2663458382,02,P01,02,60.0207176545,A,PLT_transfer_02,2014_Jan_27_1839,
ques.jpg,stim_02/c.jpg,stim_02/e.jpg,2,7,j,0,5,5,21,j,1,1.28294102247,02,P01,02,60.0207176545,A,PLT_transfer_02,2014_Jan_27_1839,
ques.jpg,stim_02/c.jpg,stim_02/b.jpg,1,10,j,0,6,6,9,j,1,1.68280592926,02,P01,02,60.0207176545,A,PLT_transfer_02,2014_Jan_27_1839,
ques.jpg,stim_02/a.jpg,stim_02/c.jpg,2,2,j,0,7,7,16,j,1,1.11634340665,02,P01,02,60.0207176545,A,PLT_transfer_02,2014_Jan_27_1839,
ques.jpg,stim_02/d.jpg,stim_02/b.jpg,1,11,j,0,8,8,10,f,0,1.48286889396,02,P01,02,60.0207176545,A,PLT_transfer_02,2014_Jan_27_1839,
ques.jpg,stim_02/c.jpg,stim_02/d.jpg,2,6,j,0,9,9,20,j,1,1.63287939459,02,P01,02,60.0207176545,A,PLT_transfer_02,2014_Jan_27_1839,
ques.jpg,stim_02/a.jpg,stim_02/f.jpg,2,5,j,0,10,10,19,j,1,0.833101545471,02,P01,02,60.0207176545,A,PLT_transfer_02,2014_Jan_27_1839,
ques.jpg,stim_02/e.jpg,stim_02/b.jpg,1,12,j,0,11,11,11,j,1,1.11632371966,02,P01,02,60.0207176545,A,PLT_transfer_02,2014_Jan_27_1839,
ques.jpg,stim_02/d.jpg,stim_02/a.jpg,1,3,f,0,12,12,2,f,1,0.849761601185,02,P01,02,60.0207176545,A,PLT_transfer_02,2014_Jan_27_1839,
ques.jpg,stim_02/b.jpg,stim_02/f.jpg,2,13,f,0,13,13,27,f,1,1.09955005319,02,P01,02,60.0207176545,A,PLT_transfer_02,2014_Jan_27_1839,
ques.jpg,stim_02/f.jpg,stim_02/b.jpg,1,13,j,0,14,14,12,j,1,0.699794236907,02,P01,02,60.0207176545,A,PLT_transfer_02,2014_Jan_27_1839,
ques.jpg,stim_02/f.jpg,stim_02/c.jpg,1,8,f,0,15,15,7,f,1,1.31627659237,02,P01,02,60.0207176545,A,PLT_transfer_02,2014_Jan_27_1839,
ques.jpg,stim_02/b.jpg,stim_02/c.jpg,2,10,f,0,16,16,24,f,1,0.949725475277,02,P01,02,60.0207176545,A,PLT_transfer_02,2014_Jan_27_1839,
ques.jpg,stim_02/e.jpg,stim_02/c.jpg,1,7,f,0,17,17,6,f,1,0.899803145077,02,P01,02,60.0207176545,A,PLT_transfer_02,2014_Jan_27_1839,
ques.jpg,stim_02/d.jpg,stim_02/c.jpg,1,6,f,0,18,18,5,f,1,0.583142148021,02,P01,02,60.0207176545,A,PLT_transfer_02,2014_Jan_27_1839,
ques.jpg,stim_02/b.jpg,stim_02/a.jpg,1,1,f,0,19,19,0,f,1,0.683161516224,02,P01,02,60.0207176545,A,PLT_transfer_02,2014_Jan_27_1839,
ques.jpg,stim_02/f.jpg,stim_02/e.jpg,1,9,f,0,20,20,8,j,0,1.1996324673,02,P01,02,60.0207176545,A,PLT_transfer_02,2014_Jan_27_1839,
ques.jpg,stim_02/d.jpg,stim_02/e.jpg,2,14,f,0,21,21,28,f,1,0.483221082469,02,P01,02,60.0207176545,A,PLT_transfer_02,2014_Jan_27_1839,
ques.jpg,stim_02/d.jpg,stim_02/f.jpg,2,15,f,0,22,22,29,f,1,1.14970829953,02,P01,02,60.0207176545,A,PLT_transfer_02,2014_Jan_27_1839,
ques.jpg,stim_02/e.jpg,stim_02/f.jpg,2,9,j,0,23,23,23,f,0,0.649804920997,02,P01,02,60.0207176545,A,PLT_transfer_02,2014_Jan_27_1839,
ques.jpg,stim_02/e.jpg,stim_02/a.jpg,1,4,f,0,24,24,3,f,1,0.616475528472,02,P01,02,60.0207176545,A,PLT_transfer_02,2014_Jan_27_1839,
ques.jpg,stim_02/b.jpg,stim_02/e.jpg,2,12,f,0,25,25,26,f,1,0.816467961639,02,P01,02,60.0207176545,A,PLT_transfer_02,2014_Jan_27_1839,
ques.jpg,stim_02/c.jpg,stim_02/a.jpg,1,2,f,0,26,26,1,f,1,0.583204327771,02,P01,02,60.0207176545,A,PLT_transfer_02,2014_Jan_27_1839,
ques.jpg,stim_02/a.jpg,stim_02/d.jpg,2,3,j,0,27,27,17,j,1,0.7331002312,02,P01,02,60.0207176545,A,PLT_transfer_02,2014_Jan_27_1839,
ques.jpg,stim_02/f.jpg,stim_02/d.jpg,1,15,j,0,28,28,14,j,1,1.16791832273,02,P01,02,60.0207176545,A,PLT_transfer_02,2014_Jan_27_1839,
ques.jpg,stim_02/b.jpg,stim_02/d.jpg,2,11,f,0,29,29,25,f,1,0.916404208975,02,P01,02,60.0207176545,A,PLT_transfer_02,2014_Jan_27_1839,
ques.jpg,stim_02/d.jpg,stim_02/f.jpg,2,15,f,1,0,30,29,f,1,0.58304137021,02,P01,02,60.0207176545,A,PLT_transfer_02,2014_Jan_27_1839,
ques.jpg,stim_02/a.jpg,stim_02/e.jpg,2,4,j,1,1,31,18,f,0,1.04956488761,02,P01,02,60.0207176545,A,PLT_transfer_02,2014_Jan_27_1839,
ques.jpg,stim_02/d.jpg,stim_02/a.jpg,1,3,f,1,2,32,2,f,1,0.549852968576,02,P01,02,60.0207176545,A,PLT_transfer_02,2014_Jan_27_1839,
ques.jpg,stim_02/b.jpg,stim_02/a.jpg,1,1,f,1,3,33,0,f,1,0.516578182953,02,P01,02,60.0207176545,A,PLT_transfer_02,2014_Jan_27_1839,
ques.jpg,stim_02/e.jpg,stim_02/f.jpg,2,9,j,1,4,34,23,j,1,1.23296761916,02,P01,02,60.0207176545,A,PLT_transfer_02,2014_Jan_27_1839,
ques.jpg,stim_02/c.jpg,stim_02/b.jpg,1,10,j,1,5,35,9,j,1,1.0163665282,02,P01,02,60.0207176545,A,PLT_transfer_02,2014_Jan_27_1839,
ques.jpg,stim_02/b.jpg,stim_02/d.jpg,2,11,f,1,6,36,25,f,1,1.08299790002,02,P01,02,60.0207176545,A,PLT_transfer_02,2014_Jan_27_1839,
ques.jpg,stim_02/c.jpg,stim_02/a.jpg,1,2,f,1,7,37,1,f,1,0.733124330177,02,P01,02,60.0207176545,A,PLT_transfer_02,2014_Jan_27_1839,
ques.jpg,stim_02/e.jpg,stim_02/c.jpg,1,7,f,1,8,38,6,j,0,0.549873563832,02,P01,02,60.0207176545,A,PLT_transfer_02,2014_Jan_27_1839,
ques.jpg,stim_02/a.jpg,stim_02/c.jpg,2,2,j,1,9,39,16,j,1,0.833094501942,02,P01,02,60.0207176545,A,PLT_transfer_02,2014_Jan_27_1839,
ques.jpg,stim_02/e.jpg,stim_02/d.jpg,1,14,j,1,10,40,13,j,1,1.14968190584,02,P01,02,60.0207176545,A,PLT_transfer_02,2014_Jan_27_1839,
ques.jpg,stim_02/c.jpg,stim_02/f.jpg,2,8,j,1,11,41,22,f,0,1.0330531009,02,P01,02,60.0207176545,A,PLT_transfer_02,2014_Jan_27_1839,
ques.jpg,stim_02/b.jpg,stim_02/c.jpg,2,10,f,1,12,42,24,f,1,0.783099156025,02,P01,02,60.0207176545,A,PLT_transfer_02,2014_Jan_27_1839,
ques.jpg,stim_02/d.jpg,stim_02/c.jpg,1,6,f,1,13,43,5,f,1,0.699806471356,02,P01,02,60.0207176545,A,PLT_transfer_02,2014_Jan_27_1839,
ques.jpg,stim_02/a.jpg,stim_02/f.jpg,2,5,j,1,14,44,19,j,1,0.849774028112,02,P01,02,60.0207176545,A,PLT_transfer_02,2014_Jan_27_1839,
ques.jpg,stim_02/f.jpg,stim_02/c.jpg,1,8,f,1,15,45,7,f,1,1.166317628,02,P01,02,60.0207176545,A,PLT_transfer_02,2014_Jan_27_1839,
ques.jpg,stim_02/c.jpg,stim_02/e.jpg,2,7,j,1,16,46,21,j,1,0.649815720875,02,P01,02,60.0207176545,A,PLT_transfer_02,2014_Jan_27_1839,
ques.jpg,stim_02/a.jpg,stim_02/b.jpg,2,1,j,1,17,47,15,j,1,0.683150286275,02,P01,02,60.0207176545,A,PLT_transfer_02,2014_Jan_27_1839,
ques.jpg,stim_02/f.jpg,stim_02/d.jpg,1,15,j,1,18,48,14,j,1,1.46619537374,02,P01,02,60.0207176545,A,PLT_transfer_02,2014_Jan_27_1839,
ques.jpg,stim_02/b.jpg,stim_02/e.jpg,2,12,f,1,19,49,26,f,1,0.816441273219,02,P01,02,60.0207176545,A,PLT_transfer_02,2014_Jan_27_1839,
ques.jpg,stim_02/d.jpg,stim_02/e.jpg,2,14,f,1,20,50,28,f,1,1.18299150912,02,P01,02,60.0207176545,A,PLT_transfer_02,2014_Jan_27_1839,
ques.jpg,stim_02/e.jpg,stim_02/b.jpg,1,12,j,1,21,51,11,j,1,0.649841898025,02,P01,02,60.0207176545,A,PLT_transfer_02,2014_Jan_27_1839,
ques.jpg,stim_02/c.jpg,stim_02/d.jpg,2,6,j,1,22,52,20,j,1,1.09966175118,02,P01,02,60.0207176545,A,PLT_transfer_02,2014_Jan_27_1839,
ques.jpg,stim_02/d.jpg,stim_02/b.jpg,1,11,j,1,23,53,10,j,1,1.01637202889,02,P01,02,60.0207176545,A,PLT_transfer_02,2014_Jan_27_1839,
ques.jpg,stim_02/a.jpg,stim_02/d.jpg,2,3,j,1,24,54,17,j,1,0.633171424382,02,P01,02,60.0207176545,A,PLT_transfer_02,2014_Jan_27_1839,
ques.jpg,stim_02/e.jpg,stim_02/a.jpg,1,4,f,1,25,55,3,f,1,0.716511146114,02,P01,02,60.0207176545,A,PLT_transfer_02,2014_Jan_27_1839,
ques.jpg,stim_02/f.jpg,stim_02/e.jpg,1,9,f,1,26,56,8,f,1,0.949773225114,02,P01,02,60.0207176545,A,PLT_transfer_02,2014_Jan_27_1839,
ques.jpg,stim_02/f.jpg,stim_02/a.jpg,1,5,f,1,27,57,4,f,1,0.616541067582,02,P01,02,60.0207176545,A,PLT_transfer_02,2014_Jan_27_1839,
ques.jpg,stim_02/f.jpg,stim_02/b.jpg,1,13,j,1,28,58,12,j,1,0.64982937185,02,P01,02,60.0207176545,A,PLT_transfer_02,2014_Jan_27_1839,
ques.jpg,stim_02/b.jpg,stim_02/f.jpg,2,13,f,1,29,59,27,f,1,0.799791412879,02,P01,02,60.0207176545,A,PLT_transfer_02,2014_Jan_27_1839,
ques.jpg,stim_02/c.jpg,stim_02/a.jpg,1,2,f,2,0,60,1,f,1,0.533203947324,02,P01,02,60.0207176545,A,PLT_transfer_02,2014_Jan_27_1839,
ques.jpg,stim_02/b.jpg,stim_02/a.jpg,1,1,f,2,1,61,0,f,1,0.466533971421,02,P01,02,60.0207176545,A,PLT_transfer_02,2014_Jan_27_1839,
ques.jpg,stim_02/a.jpg,stim_02/e.jpg,2,4,j,2,2,62,18,j,1,0.74976514701,02,P01,02,60.0207176545,A,PLT_transfer_02,2014_Jan_27_1839,
ques.jpg,stim_02/a.jpg,stim_02/d.jpg,2,3,j,2,3,63,17,j,1,0.549866899245,02,P01,02,60.0207176545,A,PLT_transfer_02,2014_Jan_27_1839,
ques.jpg,stim_02/c.jpg,stim_02/b.jpg,1,10,j,2,4,64,9,f,0,0.649832785344,02,P01,02,60.0207176545,A,PLT_transfer_02,2014_Jan_27_1839,
ques.jpg,stim_02/d.jpg,stim_02/a.jpg,1,3,f,2,5,65,2,f,1,0.466558298966,02,P01,02,60.0207176545,A,PLT_transfer_02,2014_Jan_27_1839,
ques.jpg,stim_02/f.jpg,stim_02/e.jpg,1,9,f,2,6,66,8,f,1,0.849728690278,02,P01,02,60.0207176545,A,PLT_transfer_02,2014_Jan_27_1839,
ques.jpg,stim_02/b.jpg,stim_02/e.jpg,2,12,f,2,7,67,26,f,1,0.899753467443,02,P01,02,60.0207176545,A,PLT_transfer_02,2014_Jan_27_1839,
ques.jpg,stim_02/f.jpg,stim_02/d.jpg,1,15,j,2,8,68,14,j,1,0.683162502679,02,P01,02,60.0207176545,A,PLT_transfer_02,2014_Jan_27_1839,
ques.jpg,stim_02/e.jpg,stim_02/a.jpg,1,4,f,2,9,69,3,f,1,0.616541184874,02,P01,02,60.0207176545,A,PLT_transfer_02,2014_Jan_27_1839,
ques.jpg,stim_02/b.jpg,stim_02/d.jpg,2,11,f,2,10,70,25,f,1,0.749806945034,02,P01,02,60.0207176545,A,PLT_transfer_02,2014_Jan_27_1839,
ques.jpg,stim_02/a.jpg,stim_02/f.jpg,2,5,j,2,11,71,19,j,1,0.783108521332,02,P01,02,60.0207176545,A,PLT_transfer_02,2014_Jan_27_1839,
ques.jpg,stim_02/e.jpg,stim_02/f.jpg,2,9,j,2,12,72,23,f,0,1.09968268027,02,P01,02,60.0207176545,A,PLT_transfer_02,2014_Jan_27_1839,
ques.jpg,stim_02/d.jpg,stim_02/f.jpg,2,15,f,2,13,73,29,f,1,0.766466170682,02,P01,02,60.0207176545,A,PLT_transfer_02,2014_Jan_27_1839,
ques.jpg,stim_02/d.jpg,stim_02/e.jpg,2,14,f,2,14,74,28,f,1,0.599813809618,02,P01,02,60.0207176545,A,PLT_transfer_02,2014_Jan_27_1839,
ques.jpg,stim_02/d.jpg,stim_02/b.jpg,1,11,j,2,15,75,10,j,1,0.633157929798,02,P01,02,60.0207176545,A,PLT_transfer_02,2014_Jan_27_1839,
ques.jpg,stim_02/c.jpg,stim_02/e.jpg,2,7,j,2,16,76,21,j,1,0.966371227392,02,P01,02,60.0207176545,A,PLT_transfer_02,2014_Jan_27_1839,
ques.jpg,stim_02/c.jpg,stim_02/d.jpg,2,6,j,2,17,77,20,j,1,0.84973410375,02,P01,02,60.0207176545,A,PLT_transfer_02,2014_Jan_27_1839,
ques.jpg,stim_02/d.jpg,stim_02/c.jpg,1,6,f,2,18,78,5,f,1,1.06635107724,02,P01,02,60.0207176545,A,PLT_transfer_02,2014_Jan_27_1839,
ques.jpg,stim_02/a.jpg,stim_02/b.jpg,2,1,j,2,19,79,15,j,1,0.516535882678,02,P01,02,60.0207176545,A,PLT_transfer_02,2014_Jan_27_1839,
ques.jpg,stim_02/e.jpg,stim_02/c.jpg,1,7,f,2,20,80,6,f,1,0.766470519505,02,P01,02,60.0207176545,A,PLT_transfer_02,2014_Jan_27_1839,
ques.jpg,stim_02/f.jpg,stim_02/c.jpg,1,8,f,2,21,81,7,f,1,1.1496875539,02,P01,02,60.0207176545,A,PLT_transfer_02,2014_Jan_27_1839,
ques.jpg,stim_02/e.jpg,stim_02/d.jpg,1,14,j,2,22,82,13,j,1,0.533214181794,02,P01,02,60.0207176545,A,PLT_transfer_02,2014_Jan_27_1839,
ques.jpg,stim_02/f.jpg,stim_02/a.jpg,1,5,f,2,23,83,4,j,0,0.566505252948,02,P01,02,60.0207176545,A,PLT_transfer_02,2014_Jan_27_1839,
ques.jpg,stim_02/b.jpg,stim_02/c.jpg,2,10,f,2,24,84,24,f,1,1.03299310158,02,P01,02,60.0207176545,A,PLT_transfer_02,2014_Jan_27_1839,
ques.jpg,stim_02/a.jpg,stim_02/c.jpg,2,2,j,2,25,85,16,j,1,0.649857164017,02,P01,02,60.0207176545,A,PLT_transfer_02,2014_Jan_27_1839,
ques.jpg,stim_02/e.jpg,stim_02/b.jpg,1,12,j,2,26,86,11,j,1,0.933110339357,02,P01,02,60.0207176545,A,PLT_transfer_02,2014_Jan_27_1839,
ques.jpg,stim_02/c.jpg,stim_02/f.jpg,2,8,j,2,27,87,22,j,1,1.14967639914,02,P01,02,60.0207176545,A,PLT_transfer_02,2014_Jan_27_1839,
ques.jpg,stim_02/f.jpg,stim_02/b.jpg,1,13,j,2,28,88,12,j,1,1.04967777957,02,P01,02,60.0207176545,A,PLT_transfer_02,2014_Jan_27_1839,
ques.jpg,stim_02/b.jpg,stim_02/f.jpg,2,13,f,2,29,89,27,f,1,0.633172988275,02,P01,02,60.0207176545,A,PLT_transfer_02,2014_Jan_27_1839,
ques.jpg,stim_02/d.jpg,stim_02/e.jpg,2,14,f,3,0,90,28,f,1,0.816509525081,02,P01,02,60.0207176545,A,PLT_transfer_02,2014_Jan_27_1839,
ques.jpg,stim_02/e.jpg,stim_02/a.jpg,1,4,f,3,1,91,3,f,1,0.649835606365,02,P01,02,60.0207176545,A,PLT_transfer_02,2014_Jan_27_1839,
ques.jpg,stim_02/b.jpg,stim_02/f.jpg,2,13,f,3,2,92,27,f,1,0.983057060258,02,P01,02,60.0207176545,A,PLT_transfer_02,2014_Jan_27_1839,
ques.jpg,stim_02/f.jpg,stim_02/a.jpg,1,5,f,3,3,93,4,f,1,0.483202613505,02,P01,02,60.0207176545,A,PLT_transfer_02,2014_Jan_27_1839,
ques.jpg,stim_02/f.jpg,stim_02/e.jpg,1,9,f,3,4,94,8,f,1,0.7497884881,02,P01,02,60.0207176545,A,PLT_transfer_02,2014_Jan_27_1839,
ques.jpg,stim_02/b.jpg,stim_02/e.jpg,2,12,f,3,5,95,26,f,1,0.866436137938,02,P01,02,60.0207176545,A,PLT_transfer_02,2014_Jan_27_1839,
ques.jpg,stim_02/c.jpg,stim_02/a.jpg,1,2,f,3,6,96,1,j,0,0.89975255016,02,P01,02,60.0207176545,A,PLT_transfer_02,2014_Jan_27_1839,
ques.jpg,stim_02/d.jpg,stim_02/a.jpg,1,3,f,3,7,97,2,f,1,0.533172840908,02,P01,02,60.0207176545,A,PLT_transfer_02,2014_Jan_27_1839,
ques.jpg,stim_02/c.jpg,stim_02/d.jpg,2,6,j,3,8,98,20,j,1,1.19964712278,02,P01,02,60.0207176545,A,PLT_transfer_02,2014_Jan_27_1839,
ques.jpg,stim_02/d.jpg,stim_02/c.jpg,1,6,f,3,9,99,5,f,1,0.649830950779,02,P01,02,60.0207176545,A,PLT_transfer_02,2014_Jan_27_1839,
ques.jpg,stim_02/c.jpg,stim_02/b.jpg,1,10,j,3,10,100,9,j,1,0.633170810856,02,P01,02,60.0207176545,A,PLT_transfer_02,2014_Jan_27_1839,
ques.jpg,stim_02/a.jpg,stim_02/e.jpg,2,4,j,3,11,101,18,j,1,0.549863383496,02,P01,02,60.0207176545,A,PLT_transfer_02,2014_Jan_27_1839,
ques.jpg,stim_02/c.jpg,stim_02/f.jpg,2,8,j,3,12,102,22,j,1,1.14965154228,02,P01,02,60.0207176545,A,PLT_transfer_02,2014_Jan_27_1839,
ques.jpg,stim_02/e.jpg,stim_02/d.jpg,1,14,j,3,13,103,13,j,1,0.699765202648,02,P01,02,60.0207176545,A,PLT_transfer_02,2014_Jan_27_1839,
ques.jpg,stim_02/e.jpg,stim_02/b.jpg,1,12,j,3,14,104,11,j,1,0.783138069872,02,P01,02,60.0207176545,A,PLT_transfer_02,2014_Jan_27_1839,
ques.jpg,stim_02/d.jpg,stim_02/f.jpg,2,15,f,3,15,105,29,f,1,0.749782406965,02,P01,02,60.0207176545,A,PLT_transfer_02,2014_Jan_27_1839,
ques.jpg,stim_02/b.jpg,stim_02/a.jpg,1,1,f,3,16,106,0,f,1,0.533195923354,02,P01,02,60.0207176545,A,PLT_transfer_02,2014_Jan_27_1839,
ques.jpg,stim_02/b.jpg,stim_02/d.jpg,2,11,f,3,17,107,25,f,1,0.83311676936,02,P01,02,60.0207176545,A,PLT_transfer_02,2014_Jan_27_1839,
ques.jpg,stim_02/f.jpg,stim_02/b.jpg,1,13,j,3,18,108,12,j,1,0.716515922,02,P01,02,60.0207176545,A,PLT_transfer_02,2014_Jan_27_1839,
ques.jpg,stim_02/a.jpg,stim_02/c.jpg,2,2,j,3,19,109,16,j,1,0.84975651252,02,P01,02,60.0207176545,A,PLT_transfer_02,2014_Jan_27_1839,
ques.jpg,stim_02/e.jpg,stim_02/c.jpg,1,7,f,3,20,110,6,f,1,1.11634269689,02,P01,02,60.0207176545,A,PLT_transfer_02,2014_Jan_27_1839,
ques.jpg,stim_02/b.jpg,stim_02/c.jpg,2,10,f,3,21,111,24,f,1,0.366603805221,02,P01,02,60.0207176545,A,PLT_transfer_02,2014_Jan_27_1839,
ques.jpg,stim_02/c.jpg,stim_02/e.jpg,2,7,j,3,22,112,21,f,0,0.749756464401,02,P01,02,60.0207176545,A,PLT_transfer_02,2014_Jan_27_1839,
ques.jpg,stim_02/a.jpg,stim_02/d.jpg,2,3,j,3,23,113,17,j,1,0.566531093258,02,P01,02,60.0207176545,A,PLT_transfer_02,2014_Jan_27_1839,
ques.jpg,stim_02/e.jpg,stim_02/f.jpg,2,9,j,3,24,114,23,j,1,0.866436610114,02,P01,02,60.0207176545,A,PLT_transfer_02,2014_Jan_27_1839,
ques.jpg,stim_02/d.jpg,stim_02/b.jpg,1,11,j,3,25,115,10,j,1,0.633165755273,02,P01,02,60.0207176545,A,PLT_transfer_02,2014_Jan_27_1839,
ques.jpg,stim_02/f.jpg,stim_02/d.jpg,1,15,j,3,26,116,14,j,1,0.583178394229,02,P01,02,60.0207176545,A,PLT_transfer_02,2014_Jan_27_1839,
ques.jpg,stim_02/a.jpg,stim_02/f.jpg,2,5,j,3,27,117,19,j,1,0.633184512957,02,P01,02,60.0207176545,A,PLT_transfer_02,2014_Jan_27_1839,
ques.jpg,stim_02/f.jpg,stim_02/c.jpg,1,8,f,3,28,118,7,f,1,0.766463292519,02,P01,02,60.0207176545,A,PLT_transfer_02,2014_Jan_27_1839,
ques.jpg,stim_02/a.jpg,stim_02/b.jpg,2,1,j,3,29,119,15,j,1,0.899787722695,02,P01,02,60.0207176545,A,PLT_transfer_02,2014_Jan_27_1839,
ques.jpg,stim_02/e.jpg,stim_02/b.jpg,1,12,j,4,0,120,11,j,1,0.86641692011,02,P01,02,60.0207176545,A,PLT_transfer_02,2014_Jan_27_1839,
ques.jpg,stim_02/f.jpg,stim_02/d.jpg,1,15,j,4,1,121,14,j,1,0.499859697823,02,P01,02,60.0207176545,A,PLT_transfer_02,2014_Jan_27_1839,
ques.jpg,stim_02/d.jpg,stim_02/c.jpg,1,6,f,4,2,122,5,f,1,0.616494189915,02,P01,02,60.0207176545,A,PLT_transfer_02,2014_Jan_27_1839,
ques.jpg,stim_02/e.jpg,stim_02/a.jpg,1,4,f,4,3,123,3,f,1,0.449887097514,02,P01,02,60.0207176545,A,PLT_transfer_02,2014_Jan_27_1839,
ques.jpg,stim_02/e.jpg,stim_02/c.jpg,1,7,f,4,4,124,6,f,1,0.633192840683,02,P01,02,60.0207176545,A,PLT_transfer_02,2014_Jan_27_1839,
ques.jpg,stim_02/b.jpg,stim_02/c.jpg,2,10,f,4,5,125,24,f,1,0.433289826055,02,P01,02,60.0207176545,A,PLT_transfer_02,2014_Jan_27_1839,
ques.jpg,stim_02/d.jpg,stim_02/f.jpg,2,15,f,4,6,126,29,f,1,0.516506388274,02,P01,02,60.0207176545,A,PLT_transfer_02,2014_Jan_27_1839,
ques.jpg,stim_02/a.jpg,stim_02/e.jpg,2,4,j,4,7,127,18,j,1,0.666497607922,02,P01,02,60.0207176545,A,PLT_transfer_02,2014_Jan_27_1839,
ques.jpg,stim_02/b.jpg,stim_02/e.jpg,2,12,f,4,8,128,26,f,1,0.733143620185,02,P01,02,60.0207176545,A,PLT_transfer_02,2014_Jan_27_1839,
ques.jpg,stim_02/b.jpg,stim_02/d.jpg,2,11,f,4,9,129,25,f,1,1.11635800799,02,P01,02,60.0207176545,A,PLT_transfer_02,2014_Jan_27_1839,
ques.jpg,stim_02/a.jpg,stim_02/f.jpg,2,5,j,4,10,130,19,j,1,0.749798415808,02,P01,02,60.0207176545,A,PLT_transfer_02,2014_Jan_27_1839,
ques.jpg,stim_02/d.jpg,stim_02/e.jpg,2,14,f,4,11,131,28,f,1,0.633180618264,02,P01,02,60.0207176545,A,PLT_transfer_02,2014_Jan_27_1839,
ques.jpg,stim_02/f.jpg,stim_02/e.jpg,1,9,f,4,12,132,8,f,1,0.716461260963,02,P01,02,60.0207176545,A,PLT_transfer_02,2014_Jan_27_1839,
ques.jpg,stim_02/b.jpg,stim_02/f.jpg,2,13,f,4,13,133,27,f,1,0.899765921436,02,P01,02,60.0207176545,A,PLT_transfer_02,2014_Jan_27_1839,
ques.jpg,stim_02/d.jpg,stim_02/b.jpg,1,11,j,4,14,134,10,j,1,0.699853881347,02,P01,02,60.0207176545,A,PLT_transfer_02,2014_Jan_27_1839,
ques.jpg,stim_02/f.jpg,stim_02/a.jpg,1,5,f,4,15,135,4,f,1,0.599895159077,02,P01,02,60.0207176545,A,PLT_transfer_02,2014_Jan_27_1839,
ques.jpg,stim_02/c.jpg,stim_02/b.jpg,1,10,j,4,16,136,9,f,0,0.466572352943,02,P01,02,60.0207176545,A,PLT_transfer_02,2014_Jan_27_1839,
ques.jpg,stim_02/b.jpg,stim_02/a.jpg,1,1,f,4,17,137,0,f,1,0.583189139972,02,P01,02,60.0207176545,A,PLT_transfer_02,2014_Jan_27_1839,
ques.jpg,stim_02/a.jpg,stim_02/b.jpg,2,1,j,4,18,138,15,j,1,0.866398872194,02,P01,02,60.0207176545,A,PLT_transfer_02,2014_Jan_27_1839,
ques.jpg,stim_02/a.jpg,stim_02/d.jpg,2,3,j,4,19,139,17,j,1,0.799770116879,02,P01,02,60.0207176545,A,PLT_transfer_02,2014_Jan_27_1839,
ques.jpg,stim_02/e.jpg,stim_02/f.jpg,2,9,j,4,20,140,23,j,1,0.899771058221,02,P01,02,60.0207176545,A,PLT_transfer_02,2014_Jan_27_1839,
ques.jpg,stim_02/c.jpg,stim_02/a.jpg,1,2,f,4,21,141,1,f,1,0.633173286015,02,P01,02,60.0207176545,A,PLT_transfer_02,2014_Jan_27_1839,
ques.jpg,stim_02/a.jpg,stim_02/c.jpg,2,2,j,4,22,142,16,j,1,0.66652621211,02,P01,02,60.0207176545,A,PLT_transfer_02,2014_Jan_27_1839,
ques.jpg,stim_02/c.jpg,stim_02/e.jpg,2,7,j,4,23,143,21,j,1,0.983094094428,02,P01,02,60.0207176545,A,PLT_transfer_02,2014_Jan_27_1839,
ques.jpg,stim_02/f.jpg,stim_02/c.jpg,1,8,f,4,24,144,7,j,0,0.749835880047,02,P01,02,60.0207176545,A,PLT_transfer_02,2014_Jan_27_1839,
ques.jpg,stim_02/e.jpg,stim_02/d.jpg,1,14,j,4,25,145,13,j,1,0.583180313004,02,P01,02,60.0207176545,A,PLT_transfer_02,2014_Jan_27_1839,
ques.jpg,stim_02/c.jpg,stim_02/f.jpg,2,8,j,4,26,146,22,j,1,1.01638435958,02,P01,02,60.0207176545,A,PLT_transfer_02,2014_Jan_27_1839,
ques.jpg,stim_02/f.jpg,stim_02/b.jpg,1,13,j,4,27,147,12,j,1,0.633160023008,02,P01,02,60.0207176545,A,PLT_transfer_02,2014_Jan_27_1839,
ques.jpg,stim_02/c.jpg,stim_02/d.jpg,2,6,j,4,28,148,20,j,1,0.799782811472,02,P01,02,60.0207176545,A,PLT_transfer_02,2014_Jan_27_1839,
ques.jpg,stim_02/d.jpg,stim_02/a.jpg,1,3,f,4,29,149,2,f,1,0.466524524912,02,P01,02,60.0207176545,A,PLT_transfer_02,2014_Jan_27_1839,
ques.jpg,stim_02/e.jpg,stim_02/d.jpg,1,14,j,5,0,150,13,j,1,0.566517108453,02,P01,02,60.0207176545,A,PLT_transfer_02,2014_Jan_27_1839,
ques.jpg,stim_02/e.jpg,stim_02/f.jpg,2,9,j,5,1,151,23,j,1,0.799762913952,02,P01,02,60.0207176545,A,PLT_transfer_02,2014_Jan_27_1839,
ques.jpg,stim_02/c.jpg,stim_02/a.jpg,1,2,f,5,2,152,1,f,1,0.749770521385,02,P01,02,60.0207176545,A,PLT_transfer_02,2014_Jan_27_1839,
ques.jpg,stim_02/e.jpg,stim_02/a.jpg,1,4,f,5,3,153,3,f,1,0.483214983289,02,P01,02,60.0207176545,A,PLT_transfer_02,2014_Jan_27_1839,
ques.jpg,stim_02/f.jpg,stim_02/d.jpg,1,15,j,5,4,154,14,j,1,0.716486559926,02,P01,02,60.0207176545,A,PLT_transfer_02,2014_Jan_27_1839,
ques.jpg,stim_02/a.jpg,stim_02/b.jpg,2,1,j,5,5,155,15,j,1,0.566569868761,02,P01,02,60.0207176545,A,PLT_transfer_02,2014_Jan_27_1839,
ques.jpg,stim_02/a.jpg,stim_02/e.jpg,2,4,j,5,6,156,18,j,1,0.766452850531,02,P01,02,60.0207176545,A,PLT_transfer_02,2014_Jan_27_1839,
ques.jpg,stim_02/a.jpg,stim_02/f.jpg,2,5,j,5,7,157,19,j,1,0.466595429374,02,P01,02,60.0207176545,A,PLT_transfer_02,2014_Jan_27_1839,
ques.jpg,stim_02/f.jpg,stim_02/b.jpg,1,13,j,5,8,158,12,j,1,0.916455065544,02,P01,02,60.0207176545,A,PLT_transfer_02,2014_Jan_27_1839,
ques.jpg,stim_02/c.jpg,stim_02/e.jpg,2,7,j,5,9,159,21,j,1,0.966405100695,02,P01,02,60.0207176545,A,PLT_transfer_02,2014_Jan_27_1839,
ques.jpg,stim_02/b.jpg,stim_02/c.jpg,2,10,f,5,10,160,24,f,1,0.69982403206,02,P01,02,60.0207176545,A,PLT_transfer_02,2014_Jan_27_1839,
ques.jpg,stim_02/a.jpg,stim_02/c.jpg,2,2,j,5,11,161,16,j,1,0.799819911806,02,P01,02,60.0207176545,A,PLT_transfer_02,2014_Jan_27_1839,
ques.jpg,stim_02/c.jpg,stim_02/d.jpg,2,6,j,5,12,162,20,j,1,0.616513576163,02,P01,02,60.0207176545,A,PLT_transfer_02,2014_Jan_27_1839,
ques.jpg,stim_02/e.jpg,stim_02/b.jpg,1,12,j,5,13,163,11,j,1,0.616498042504,02,P01,02,60.0207176545,A,PLT_transfer_02,2014_Jan_27_1839,
ques.jpg,stim_02/d.jpg,stim_02/c.jpg,1,6,f,5,14,164,5,f,1,0.799803421766,02,P01,02,60.0207176545,A,PLT_transfer_02,2014_Jan_27_1839,
ques.jpg,stim_02/b.jpg,stim_02/d.jpg,2,11,f,5,15,165,25,f,1,0.983059475269,02,P01,02,60.0207176545,A,PLT_transfer_02,2014_Jan_27_1839,
ques.jpg,stim_02/b.jpg,stim_02/a.jpg,1,1,f,5,16,166,0,f,1,0.766425527532,02,P01,02,60.0207176545,A,PLT_transfer_02,2014_Jan_27_1839,
ques.jpg,stim_02/f.jpg,stim_02/c.jpg,1,8,f,5,17,167,7,f,1,0.899742667563,02,P01,02,60.0207176545,A,PLT_transfer_02,2014_Jan_27_1839,
ques.jpg,stim_02/d.jpg,stim_02/e.jpg,2,14,f,5,18,168,28,j,0,0.816434337959,02,P01,02,60.0207176545,A,PLT_transfer_02,2014_Jan_27_1839,
ques.jpg,stim_02/d.jpg,stim_02/b.jpg,1,11,j,5,19,169,10,j,1,1.03305867678,02,P01,02,60.0207176545,A,PLT_transfer_02,2014_Jan_27_1839,
ques.jpg,stim_02/e.jpg,stim_02/c.jpg,1,7,f,5,20,170,6,f,1,1.08297175295,02,P01,02,60.0207176545,A,PLT_transfer_02,2014_Jan_27_1839,
ques.jpg,stim_02/b.jpg,stim_02/f.jpg,2,13,f,5,21,171,27,f,1,0.84974065706,02,P01,02,60.0207176545,A,PLT_transfer_02,2014_Jan_27_1839,
ques.jpg,stim_02/f.jpg,stim_02/a.jpg,1,5,f,5,22,172,4,f,1,0.933063861686,02,P01,02,60.0207176545,A,PLT_transfer_02,2014_Jan_27_1839,
ques.jpg,stim_02/d.jpg,stim_02/f.jpg,2,15,f,5,23,173,29,f,1,0.733152347906,02,P01,02,60.0207176545,A,PLT_transfer_02,2014_Jan_27_1839,
ques.jpg,stim_02/c.jpg,stim_02/b.jpg,1,10,j,5,24,174,9,j,1,0.633182777638,02,P01,02,60.0207176545,A,PLT_transfer_02,2014_Jan_27_1839,
ques.jpg,stim_02/b.jpg,stim_02/e.jpg,2,12,f,5,25,175,26,f,1,0.866473235264,02,P01,02,60.0207176545,A,PLT_transfer_02,2014_Jan_27_1839,
ques.jpg,stim_02/f.jpg,stim_02/e.jpg,1,9,f,5,26,176,8,f,1,0.749799281964,02,P01,02,60.0207176545,A,PLT_transfer_02,2014_Jan_27_1839,
ques.jpg,stim_02/c.jpg,stim_02/f.jpg,2,8,j,5,27,177,22,f,0,0.633164122209,02,P01,02,60.0207176545,A,PLT_transfer_02,2014_Jan_27_1839,
ques.jpg,stim_02/a.jpg,stim_02/d.jpg,2,3,j,5,28,178,17,j,1,0.533179174671,02,P01,02,60.0207176545,A,PLT_transfer_02,2014_Jan_27_1839,
ques.jpg,stim_02/d.jpg,stim_02/a.jpg,1,3,f,5,29,179,2,f,1,0.483188697872,02,P01,02,60.0207176545,A,PLT_transfer_02,2014_Jan_27_1839,
