Fb3,Symbol2,Symbol1,PosCond,tID,Correct,trials.thisRepN,trials.thisTrialN,trials.thisN,trials.thisIndex,Response.keys,Response.corr,Response.rt,session,participant,version,frameRate,stimulation,expName,date,
ques.jpg,stim_02/e.jpg,stim_02/d.jpg,1,14,j,0,0,0,13,f,0,0.883096238374,02,P13,02,60.0133681705,A,PLT_transfer_02,2014_Feb_24_1139,
ques.jpg,stim_02/b.jpg,stim_02/f.jpg,2,13,f,0,1,1,27,f,1,1.23302800129,02,P13,02,60.0133681705,A,PLT_transfer_02,2014_Feb_24_1139,
ques.jpg,stim_02/a.jpg,stim_02/d.jpg,2,3,j,0,2,2,17,j,1,0.816450465786,02,P13,02,60.0133681705,A,PLT_transfer_02,2014_Feb_24_1139,
ques.jpg,stim_02/e.jpg,stim_02/c.jpg,1,7,f,0,3,3,6,j,0,0.599798858655,02,P13,02,60.0133681705,A,PLT_transfer_02,2014_Feb_24_1139,
ques.jpg,stim_02/c.jpg,stim_02/b.jpg,1,10,j,0,4,4,9,j,1,0.816448805648,02,P13,02,60.0133681705,A,PLT_transfer_02,2014_Feb_24_1139,
ques.jpg,stim_02/b.jpg,stim_02/e.jpg,2,12,f,0,5,5,26,f,1,0.916379485869,02,P13,02,60.0133681705,A,PLT_transfer_02,2014_Feb_24_1139,
ques.jpg,stim_02/c.jpg,stim_02/a.jpg,1,2,f,0,6,6,1,f,1,1.03306023864,02,P13,02,60.0133681705,A,PLT_transfer_02,2014_Feb_24_1139,
ques.jpg,stim_02/f.jpg,stim_02/a.jpg,1,5,f,0,7,7,4,f,1,0.649831029842,02,P13,02,60.0133681705,A,PLT_transfer_02,2014_Feb_24_1139,
ques.jpg,stim_02/b.jpg,stim_02/a.jpg,1,1,f,0,8,8,0,f,1,1.04972110586,02,P13,02,60.0133681705,A,PLT_transfer_02,2014_Feb_24_1139,
ques.jpg,stim_02/f.jpg,stim_02/b.jpg,1,13,j,0,9,9,12,j,1,0.899727990015,02,P13,02,60.0133681705,A,PLT_transfer_02,2014_Feb_24_1139,
ques.jpg,stim_02/d.jpg,stim_02/b.jpg,1,11,j,0,10,10,10,f,0,1.09984029293,02,P13,02,60.0133681705,A,PLT_transfer_02,2014_Feb_24_1139,
ques.jpg,stim_02/b.jpg,stim_02/d.jpg,2,11,f,0,11,11,25,j,0,0.816464781468,02,P13,02,60.0133681705,A,PLT_transfer_02,2014_Feb_24_1139,
ques.jpg,stim_02/a.jpg,stim_02/e.jpg,2,4,j,0,12,12,18,j,1,0.733116178074,02,P13,02,60.0133681705,A,PLT_transfer_02,2014_Feb_24_1139,
ques.jpg,stim_02/d.jpg,stim_02/f.jpg,2,15,f,0,13,13,29,j,0,0.899754341697,02,P13,02,60.0133681705,A,PLT_transfer_02,2014_Feb_24_1139,
ques.jpg,stim_02/f.jpg,stim_02/d.jpg,1,15,j,0,14,14,14,f,0,0.716499394741,02,P13,02,60.0133681705,A,PLT_transfer_02,2014_Feb_24_1139,
ques.jpg,stim_02/a.jpg,stim_02/f.jpg,2,5,j,0,15,15,19,f,0,0.799803291704,02,P13,02,60.0133681705,A,PLT_transfer_02,2014_Feb_24_1139,
ques.jpg,stim_02/f.jpg,stim_02/c.jpg,1,8,f,0,16,16,7,f,1,0.86641166307,02,P13,02,60.0133681705,A,PLT_transfer_02,2014_Feb_24_1139,
ques.jpg,stim_02/c.jpg,stim_02/d.jpg,2,6,j,0,17,17,20,j,1,1.26616779122,02,P13,02,60.0133681705,A,PLT_transfer_02,2014_Feb_24_1139,
ques.jpg,stim_02/a.jpg,stim_02/b.jpg,2,1,j,0,18,18,15,j,1,0.783112424719,02,P13,02,60.0133681705,A,PLT_transfer_02,2014_Feb_24_1139,
ques.jpg,stim_02/d.jpg,stim_02/c.jpg,1,6,f,0,19,19,5,f,1,1.14967330471,02,P13,02,60.0133681705,A,PLT_transfer_02,2014_Feb_24_1139,
ques.jpg,stim_02/e.jpg,stim_02/f.jpg,2,9,j,0,20,20,23,f,0,1.06633959745,02,P13,02,60.0133681705,A,PLT_transfer_02,2014_Feb_24_1139,
ques.jpg,stim_02/f.jpg,stim_02/e.jpg,1,9,f,0,21,21,8,f,1,0.783151828934,02,P13,02,60.0133681705,A,PLT_transfer_02,2014_Feb_24_1139,
ques.jpg,stim_02/c.jpg,stim_02/f.jpg,2,8,j,0,22,22,22,j,1,0.733117435208,02,P13,02,60.0133681705,A,PLT_transfer_02,2014_Feb_24_1139,
ques.jpg,stim_02/a.jpg,stim_02/c.jpg,2,2,j,0,23,23,16,j,1,0.666491815851,02,P13,02,60.0133681705,A,PLT_transfer_02,2014_Feb_24_1139,
ques.jpg,stim_02/b.jpg,stim_02/c.jpg,2,10,f,0,24,24,24,f,1,0.966385308381,02,P13,02,60.0133681705,A,PLT_transfer_02,2014_Feb_24_1139,
ques.jpg,stim_02/e.jpg,stim_02/a.jpg,1,4,f,0,25,25,3,j,0,0.916433473432,02,P13,02,60.0133681705,A,PLT_transfer_02,2014_Feb_24_1139,
ques.jpg,stim_02/c.jpg,stim_02/e.jpg,2,7,j,0,26,26,21,j,1,1.03303583883,02,P13,02,60.0133681705,A,PLT_transfer_02,2014_Feb_24_1139,
ques.jpg,stim_02/e.jpg,stim_02/b.jpg,1,12,j,0,27,27,11,j,1,0.649800145864,02,P13,02,60.0133681705,A,PLT_transfer_02,2014_Feb_24_1139,
ques.jpg,stim_02/d.jpg,stim_02/a.jpg,1,3,f,0,28,28,2,f,1,0.68318010842,02,P13,02,60.0133681705,A,PLT_transfer_02,2014_Feb_24_1139,
ques.jpg,stim_02/d.jpg,stim_02/e.jpg,2,14,f,0,29,29,28,f,1,0.666506224765,02,P13,02,60.0133681705,A,PLT_transfer_02,2014_Feb_24_1139,
ques.jpg,stim_02/c.jpg,stim_02/f.jpg,2,8,j,1,0,30,22,j,1,0.783106638296,02,P13,02,60.0133681705,A,PLT_transfer_02,2014_Feb_24_1139,
ques.jpg,stim_02/a.jpg,stim_02/f.jpg,2,5,j,1,1,31,19,j,1,0.783145714694,02,P13,02,60.0133681705,A,PLT_transfer_02,2014_Feb_24_1139,
ques.jpg,stim_02/b.jpg,stim_02/c.jpg,2,10,f,1,2,32,24,f,1,0.616512474342,02,P13,02,60.0133681705,A,PLT_transfer_02,2014_Feb_24_1139,
ques.jpg,stim_02/c.jpg,stim_02/d.jpg,2,6,j,1,3,33,20,j,1,1.03303556515,02,P13,02,60.0133681705,A,PLT_transfer_02,2014_Feb_24_1139,
ques.jpg,stim_02/b.jpg,stim_02/f.jpg,2,13,f,1,4,34,27,f,1,1.04974605905,02,P13,02,60.0133681705,A,PLT_transfer_02,2014_Feb_24_1139,
ques.jpg,stim_02/c.jpg,stim_02/e.jpg,2,7,j,1,5,35,21,f,0,0.866445181615,02,P13,02,60.0133681705,A,PLT_transfer_02,2014_Feb_24_1139,
ques.jpg,stim_02/a.jpg,stim_02/c.jpg,2,2,j,1,6,36,16,j,1,0.715443162082,02,P13,02,60.0133681705,A,PLT_transfer_02,2014_Feb_24_1139,
ques.jpg,stim_02/e.jpg,stim_02/a.jpg,1,4,f,1,7,37,3,j,0,0.933069182939,02,P13,02,60.0133681705,A,PLT_transfer_02,2014_Feb_24_1139,
ques.jpg,stim_02/a.jpg,stim_02/e.jpg,2,4,j,1,8,38,18,f,0,0.799833844858,02,P13,02,60.0133681705,A,PLT_transfer_02,2014_Feb_24_1139,
ques.jpg,stim_02/a.jpg,stim_02/b.jpg,2,1,j,1,9,39,15,j,1,0.616498549635,02,P13,02,60.0133681705,A,PLT_transfer_02,2014_Feb_24_1139,
ques.jpg,stim_02/f.jpg,stim_02/e.jpg,1,9,f,1,10,40,8,f,1,1.08303515913,02,P13,02,60.0133681705,A,PLT_transfer_02,2014_Feb_24_1139,
ques.jpg,stim_02/b.jpg,stim_02/d.jpg,2,11,f,1,11,41,25,j,0,1.09976319877,02,P13,02,60.0133681705,A,PLT_transfer_02,2014_Feb_24_1139,
ques.jpg,stim_02/d.jpg,stim_02/a.jpg,1,3,f,1,12,42,2,f,1,0.733114818685,02,P13,02,60.0133681705,A,PLT_transfer_02,2014_Feb_24_1139,
ques.jpg,stim_02/e.jpg,stim_02/d.jpg,1,14,j,1,13,43,13,j,1,0.783152186826,02,P13,02,60.0133681705,A,PLT_transfer_02,2014_Feb_24_1139,
ques.jpg,stim_02/e.jpg,stim_02/c.jpg,1,7,f,1,14,44,6,j,0,0.599844419215,02,P13,02,60.0133681705,A,PLT_transfer_02,2014_Feb_24_1139,
ques.jpg,stim_02/a.jpg,stim_02/d.jpg,2,3,j,1,15,45,17,j,1,0.683148445501,02,P13,02,60.0133681705,A,PLT_transfer_02,2014_Feb_24_1139,
ques.jpg,stim_02/d.jpg,stim_02/c.jpg,1,6,f,1,16,46,5,f,1,0.916413166819,02,P13,02,60.0133681705,A,PLT_transfer_02,2014_Feb_24_1139,
ques.jpg,stim_02/f.jpg,stim_02/c.jpg,1,8,f,1,17,47,7,f,1,0.833081447508,02,P13,02,60.0133681705,A,PLT_transfer_02,2014_Feb_24_1139,
ques.jpg,stim_02/c.jpg,stim_02/b.jpg,1,10,j,1,18,48,9,j,1,0.966387524906,02,P13,02,60.0133681705,A,PLT_transfer_02,2014_Feb_24_1139,
ques.jpg,stim_02/f.jpg,stim_02/a.jpg,1,5,f,1,19,49,4,f,1,0.849755544695,02,P13,02,60.0133681705,A,PLT_transfer_02,2014_Feb_24_1139,
ques.jpg,stim_02/e.jpg,stim_02/f.jpg,2,9,j,1,20,50,23,f,0,0.883074313727,02,P13,02,60.0133681705,A,PLT_transfer_02,2014_Feb_24_1139,
ques.jpg,stim_02/f.jpg,stim_02/d.jpg,1,15,j,1,21,51,14,j,1,0.683206947316,02,P13,02,60.0133681705,A,PLT_transfer_02,2014_Feb_24_1139,
ques.jpg,stim_02/d.jpg,stim_02/f.jpg,2,15,f,1,22,52,29,f,1,0.749800269171,02,P13,02,60.0133681705,A,PLT_transfer_02,2014_Feb_24_1139,
ques.jpg,stim_02/d.jpg,stim_02/b.jpg,1,11,j,1,23,53,10,j,1,0.883104818761,02,P13,02,60.0133681705,A,PLT_transfer_02,2014_Feb_24_1139,
ques.jpg,stim_02/b.jpg,stim_02/a.jpg,1,1,f,1,24,54,0,f,1,1.03303609447,02,P13,02,60.0133681705,A,PLT_transfer_02,2014_Feb_24_1139,
ques.jpg,stim_02/b.jpg,stim_02/e.jpg,2,12,f,1,25,55,26,f,1,0.633141789911,02,P13,02,60.0133681705,A,PLT_transfer_02,2014_Feb_24_1139,
ques.jpg,stim_02/d.jpg,stim_02/e.jpg,2,14,f,1,26,56,28,f,1,0.81641798182,02,P13,02,60.0133681705,A,PLT_transfer_02,2014_Feb_24_1139,
ques.jpg,stim_02/f.jpg,stim_02/b.jpg,1,13,j,1,27,57,12,f,0,1.24974781242,02,P13,02,60.0133681705,A,PLT_transfer_02,2014_Feb_24_1139,
ques.jpg,stim_02/c.jpg,stim_02/a.jpg,1,2,f,1,28,58,1,f,1,0.766445722964,02,P13,02,60.0133681705,A,PLT_transfer_02,2014_Feb_24_1139,
ques.jpg,stim_02/e.jpg,stim_02/b.jpg,1,12,j,1,29,59,11,j,1,0.949707493929,02,P13,02,60.0133681705,A,PLT_transfer_02,2014_Feb_24_1139,
ques.jpg,stim_02/c.jpg,stim_02/d.jpg,2,6,j,2,0,60,20,j,1,1.53288469109,02,P13,02,60.0133681705,A,PLT_transfer_02,2014_Feb_24_1139,
ques.jpg,stim_02/e.jpg,stim_02/f.jpg,2,9,j,2,1,61,23,j,1,0.833080205412,02,P13,02,60.0133681705,A,PLT_transfer_02,2014_Feb_24_1139,
ques.jpg,stim_02/a.jpg,stim_02/b.jpg,2,1,j,2,2,62,15,j,1,1.44955379283,02,P13,02,60.0133681705,A,PLT_transfer_02,2014_Feb_24_1139,
ques.jpg,stim_02/b.jpg,stim_02/a.jpg,1,1,f,2,3,63,0,f,1,1.08302256675,02,P13,02,60.0133681705,A,PLT_transfer_02,2014_Feb_24_1139,
ques.jpg,stim_02/c.jpg,stim_02/b.jpg,1,10,j,2,4,64,9,j,1,0.983055273269,02,P13,02,60.0133681705,A,PLT_transfer_02,2014_Feb_24_1139,
ques.jpg,stim_02/c.jpg,stim_02/e.jpg,2,7,j,2,5,65,21,j,1,0.766456510853,02,P13,02,60.0133681705,A,PLT_transfer_02,2014_Feb_24_1139,
ques.jpg,stim_02/a.jpg,stim_02/e.jpg,2,4,j,2,6,66,18,j,1,0.799793045165,02,P13,02,60.0133681705,A,PLT_transfer_02,2014_Feb_24_1139,
ques.jpg,stim_02/a.jpg,stim_02/c.jpg,2,2,j,2,7,67,16,j,1,0.616522083292,02,P13,02,60.0133681705,A,PLT_transfer_02,2014_Feb_24_1139,
ques.jpg,stim_02/a.jpg,stim_02/f.jpg,2,5,j,2,8,68,19,j,1,0.966404772897,02,P13,02,60.0133681705,A,PLT_transfer_02,2014_Feb_24_1139,
ques.jpg,stim_02/f.jpg,stim_02/e.jpg,1,9,f,2,9,69,8,f,1,0.799770125037,02,P13,02,60.0133681705,A,PLT_transfer_02,2014_Feb_24_1139,
ques.jpg,stim_02/f.jpg,stim_02/d.jpg,1,15,j,2,10,70,14,j,1,1.31631579311,02,P13,02,60.0133681705,A,PLT_transfer_02,2014_Feb_24_1139,
ques.jpg,stim_02/d.jpg,stim_02/b.jpg,1,11,j,2,11,71,10,f,0,0.866445518454,02,P13,02,60.0133681705,A,PLT_transfer_02,2014_Feb_24_1139,
ques.jpg,stim_02/e.jpg,stim_02/d.jpg,1,14,j,2,12,72,13,j,1,0.883125510335,02,P13,02,60.0133681705,A,PLT_transfer_02,2014_Feb_24_1139,
ques.jpg,stim_02/e.jpg,stim_02/a.jpg,1,4,f,2,13,73,3,j,0,0.549887694077,02,P13,02,60.0133681705,A,PLT_transfer_02,2014_Feb_24_1139,
ques.jpg,stim_02/f.jpg,stim_02/a.jpg,1,5,f,2,14,74,4,f,1,0.649837923023,02,P13,02,60.0133681705,A,PLT_transfer_02,2014_Feb_24_1139,
ques.jpg,stim_02/b.jpg,stim_02/d.jpg,2,11,f,2,15,75,25,j,0,1.09967300697,02,P13,02,60.0133681705,A,PLT_transfer_02,2014_Feb_24_1139,
ques.jpg,stim_02/d.jpg,stim_02/f.jpg,2,15,f,2,16,76,29,f,1,1.04969753912,02,P13,02,60.0133681705,A,PLT_transfer_02,2014_Feb_24_1139,
ques.jpg,stim_02/e.jpg,stim_02/b.jpg,1,12,j,2,17,77,11,j,1,0.583228068962,02,P13,02,60.0133681705,A,PLT_transfer_02,2014_Feb_24_1139,
ques.jpg,stim_02/d.jpg,stim_02/e.jpg,2,14,f,2,18,78,28,f,1,1.1330003203,02,P13,02,60.0133681705,A,PLT_transfer_02,2014_Feb_24_1139,
ques.jpg,stim_02/f.jpg,stim_02/b.jpg,1,13,j,2,19,79,12,j,1,0.899748702641,02,P13,02,60.0133681705,A,PLT_transfer_02,2014_Feb_24_1139,
ques.jpg,stim_02/a.jpg,stim_02/d.jpg,2,3,j,2,20,80,17,j,1,0.616451756002,02,P13,02,60.0133681705,A,PLT_transfer_02,2014_Feb_24_1139,
ques.jpg,stim_02/f.jpg,stim_02/c.jpg,1,8,f,2,21,81,7,f,1,0.849741355328,02,P13,02,60.0133681705,A,PLT_transfer_02,2014_Feb_24_1139,
ques.jpg,stim_02/e.jpg,stim_02/c.jpg,1,7,f,2,22,82,6,j,0,0.766527060699,02,P13,02,60.0133681705,A,PLT_transfer_02,2014_Feb_24_1139,
ques.jpg,stim_02/b.jpg,stim_02/c.jpg,2,10,f,2,23,83,24,f,1,1.01639766318,02,P13,02,60.0133681705,A,PLT_transfer_02,2014_Feb_24_1139,
ques.jpg,stim_02/d.jpg,stim_02/a.jpg,1,3,f,2,24,84,2,f,1,0.649886373787,02,P13,02,60.0133681705,A,PLT_transfer_02,2014_Feb_24_1139,
ques.jpg,stim_02/b.jpg,stim_02/e.jpg,2,12,f,2,25,85,26,f,1,0.849766200254,02,P13,02,60.0133681705,A,PLT_transfer_02,2014_Feb_24_1139,
ques.jpg,stim_02/d.jpg,stim_02/c.jpg,1,6,f,2,26,86,5,f,1,1.29960558793,02,P13,02,60.0133681705,A,PLT_transfer_02,2014_Feb_24_1139,
ques.jpg,stim_02/c.jpg,stim_02/f.jpg,2,8,j,2,27,87,22,j,1,0.666510684882,02,P13,02,60.0133681705,A,PLT_transfer_02,2014_Feb_24_1139,
ques.jpg,stim_02/b.jpg,stim_02/f.jpg,2,13,f,2,28,88,27,f,1,0.833120490824,02,P13,02,60.0133681705,A,PLT_transfer_02,2014_Feb_24_1139,
ques.jpg,stim_02/c.jpg,stim_02/a.jpg,1,2,f,2,29,89,1,j,0,0.816498251893,02,P13,02,60.0133681705,A,PLT_transfer_02,2014_Feb_24_1139,
ques.jpg,stim_02/d.jpg,stim_02/c.jpg,1,6,f,3,0,90,5,f,1,1.11634386809,02,P13,02,60.0133681705,A,PLT_transfer_02,2014_Feb_24_1139,
ques.jpg,stim_02/e.jpg,stim_02/c.jpg,1,7,f,3,1,91,6,f,1,1.5495337599,02,P13,02,60.0133681705,A,PLT_transfer_02,2014_Feb_24_1139,
ques.jpg,stim_02/d.jpg,stim_02/e.jpg,2,14,f,3,2,92,28,j,0,0.749756344689,02,P13,02,60.0133681705,A,PLT_transfer_02,2014_Feb_24_1139,
ques.jpg,stim_02/b.jpg,stim_02/f.jpg,2,13,f,3,3,93,27,f,1,1.24961990361,02,P13,02,60.0133681705,A,PLT_transfer_02,2014_Feb_24_1139,
ques.jpg,stim_02/e.jpg,stim_02/f.jpg,2,9,j,3,4,94,23,j,1,0.733141558334,02,P13,02,60.0133681705,A,PLT_transfer_02,2014_Feb_24_1139,
ques.jpg,stim_02/f.jpg,stim_02/e.jpg,1,9,f,3,5,95,8,f,1,0.849749463538,02,P13,02,60.0133681705,A,PLT_transfer_02,2014_Feb_24_1139,
ques.jpg,stim_02/f.jpg,stim_02/a.jpg,1,5,f,3,6,96,4,f,1,0.883098788731,02,P13,02,60.0133681705,A,PLT_transfer_02,2014_Feb_24_1139,
ques.jpg,stim_02/f.jpg,stim_02/c.jpg,1,8,f,3,7,97,7,f,1,0.833093525612,02,P13,02,60.0133681705,A,PLT_transfer_02,2014_Feb_24_1139,
ques.jpg,stim_02/e.jpg,stim_02/d.jpg,1,14,j,3,8,98,13,j,1,1.11637370546,02,P13,02,60.0133681705,A,PLT_transfer_02,2014_Feb_24_1139,
ques.jpg,stim_02/a.jpg,stim_02/f.jpg,2,5,j,3,9,99,19,j,1,0.633172273893,02,P13,02,60.0133681705,A,PLT_transfer_02,2014_Feb_24_1139,
ques.jpg,stim_02/a.jpg,stim_02/d.jpg,2,3,j,3,10,100,17,j,1,0.549869104744,02,P13,02,60.0133681705,A,PLT_transfer_02,2014_Feb_24_1139,
ques.jpg,stim_02/a.jpg,stim_02/b.jpg,2,1,j,3,11,101,15,j,1,0.533137041075,02,P13,02,60.0133681705,A,PLT_transfer_02,2014_Feb_24_1139,
ques.jpg,stim_02/b.jpg,stim_02/e.jpg,2,12,f,3,12,102,26,f,1,0.766465304772,02,P13,02,60.0133681705,A,PLT_transfer_02,2014_Feb_24_1139,
ques.jpg,stim_02/c.jpg,stim_02/e.jpg,2,7,j,3,13,103,21,f,0,1.13306331832,02,P13,02,60.0133681705,A,PLT_transfer_02,2014_Feb_24_1139,
ques.jpg,stim_02/c.jpg,stim_02/b.jpg,1,10,j,3,14,104,9,j,1,1.19964358463,02,P13,02,60.0133681705,A,PLT_transfer_02,2014_Feb_24_1139,
ques.jpg,stim_02/a.jpg,stim_02/c.jpg,2,2,j,3,15,105,16,f,0,0.849783544485,02,P13,02,60.0133681705,A,PLT_transfer_02,2014_Feb_24_1139,
ques.jpg,stim_02/b.jpg,stim_02/a.jpg,1,1,f,3,16,106,0,f,1,0.899738444072,02,P13,02,60.0133681705,A,PLT_transfer_02,2014_Feb_24_1139,
ques.jpg,stim_02/f.jpg,stim_02/d.jpg,1,15,j,3,17,107,14,j,1,1.01633988917,02,P13,02,60.0133681705,A,PLT_transfer_02,2014_Feb_24_1139,
ques.jpg,stim_02/d.jpg,stim_02/f.jpg,2,15,f,3,18,108,29,j,0,1.18299625416,02,P13,02,60.0133681705,A,PLT_transfer_02,2014_Feb_24_1139,
ques.jpg,stim_02/c.jpg,stim_02/a.jpg,1,2,f,3,19,109,1,f,1,1.1330243141,02,P13,02,60.0133681705,A,PLT_transfer_02,2014_Feb_24_1139,
ques.jpg,stim_02/a.jpg,stim_02/e.jpg,2,4,j,3,20,110,18,j,1,0.51652859753,02,P13,02,60.0133681705,A,PLT_transfer_02,2014_Feb_24_1139,
ques.jpg,stim_02/b.jpg,stim_02/d.jpg,2,11,f,3,21,111,25,j,0,1.13299072939,02,P13,02,60.0133681705,A,PLT_transfer_02,2014_Feb_24_1139,
ques.jpg,stim_02/d.jpg,stim_02/b.jpg,1,11,j,3,22,112,10,f,0,0.61650623078,02,P13,02,60.0133681705,A,PLT_transfer_02,2014_Feb_24_1139,
ques.jpg,stim_02/b.jpg,stim_02/c.jpg,2,10,f,3,23,113,24,j,0,0.649845453794,02,P13,02,60.0133681705,A,PLT_transfer_02,2014_Feb_24_1139,
ques.jpg,stim_02/c.jpg,stim_02/d.jpg,2,6,j,3,24,114,20,j,1,0.933093164714,02,P13,02,60.0133681705,A,PLT_transfer_02,2014_Feb_24_1139,
ques.jpg,stim_02/e.jpg,stim_02/b.jpg,1,12,j,3,25,115,11,j,1,0.749796070706,02,P13,02,60.0133681705,A,PLT_transfer_02,2014_Feb_24_1139,
ques.jpg,stim_02/f.jpg,stim_02/b.jpg,1,13,j,3,26,116,12,f,0,1.63281181946,02,P13,02,60.0133681705,A,PLT_transfer_02,2014_Feb_24_1139,
ques.jpg,stim_02/c.jpg,stim_02/f.jpg,2,8,j,3,27,117,22,j,1,0.999711126984,02,P13,02,60.0133681705,A,PLT_transfer_02,2014_Feb_24_1139,
ques.jpg,stim_02/d.jpg,stim_02/a.jpg,1,3,f,3,28,118,2,f,1,0.666486582807,02,P13,02,60.0133681705,A,PLT_transfer_02,2014_Feb_24_1139,
ques.jpg,stim_02/e.jpg,stim_02/a.jpg,1,4,f,3,29,119,3,f,1,0.649855943941,02,P13,02,60.0133681705,A,PLT_transfer_02,2014_Feb_24_1139,
ques.jpg,stim_02/d.jpg,stim_02/b.jpg,1,11,j,4,0,120,10,f,0,1.14967652273,02,P13,02,60.0133681705,A,PLT_transfer_02,2014_Feb_24_1139,
ques.jpg,stim_02/e.jpg,stim_02/f.jpg,2,9,j,4,1,121,23,j,1,0.5998505515,02,P13,02,60.0133681705,A,PLT_transfer_02,2014_Feb_24_1139,
ques.jpg,stim_02/a.jpg,stim_02/e.jpg,2,4,j,4,2,122,18,j,1,1.06636840325,02,P13,02,60.0133681705,A,PLT_transfer_02,2014_Feb_24_1139,
ques.jpg,stim_02/f.jpg,stim_02/d.jpg,1,15,j,4,3,123,14,f,0,1.16630954053,02,P13,02,60.0133681705,A,PLT_transfer_02,2014_Feb_24_1139,
ques.jpg,stim_02/c.jpg,stim_02/e.jpg,2,7,j,4,4,124,21,f,0,0.78312294494,02,P13,02,60.0133681705,A,PLT_transfer_02,2014_Feb_24_1139,
ques.jpg,stim_02/b.jpg,stim_02/d.jpg,2,11,f,4,5,125,25,j,0,1.29964226434,02,P13,02,60.0133681705,A,PLT_transfer_02,2014_Feb_24_1139,
ques.jpg,stim_02/d.jpg,stim_02/e.jpg,2,14,f,4,6,126,28,f,1,1.28293242908,02,P13,02,60.0133681705,A,PLT_transfer_02,2014_Feb_24_1139,
ques.jpg,stim_02/d.jpg,stim_02/a.jpg,1,3,f,4,7,127,2,f,1,0.716464270194,02,P13,02,60.0133681705,A,PLT_transfer_02,2014_Feb_24_1139,
ques.jpg,stim_02/e.jpg,stim_02/b.jpg,1,12,j,4,8,128,11,j,1,0.749781544499,02,P13,02,60.0133681705,A,PLT_transfer_02,2014_Feb_24_1139,
ques.jpg,stim_02/e.jpg,stim_02/a.jpg,1,4,f,4,9,129,3,f,1,0.899730474207,02,P13,02,60.0133681705,A,PLT_transfer_02,2014_Feb_24_1139,
ques.jpg,stim_02/f.jpg,stim_02/e.jpg,1,9,f,4,10,130,8,f,1,0.599827646409,02,P13,02,60.0133681705,A,PLT_transfer_02,2014_Feb_24_1139,
ques.jpg,stim_02/b.jpg,stim_02/e.jpg,2,12,f,4,11,131,26,f,1,1.03303704784,02,P13,02,60.0133681705,A,PLT_transfer_02,2014_Feb_24_1139,
ques.jpg,stim_02/e.jpg,stim_02/d.jpg,1,14,j,4,12,132,13,j,1,1.16630469846,02,P13,02,60.0133681705,A,PLT_transfer_02,2014_Feb_24_1139,
ques.jpg,stim_02/b.jpg,stim_02/f.jpg,2,13,f,4,13,133,27,j,0,1.04971205029,02,P13,02,60.0133681705,A,PLT_transfer_02,2014_Feb_24_1139,
ques.jpg,stim_02/f.jpg,stim_02/c.jpg,1,8,f,4,14,134,7,f,1,1.31630384132,02,P13,02,60.0133681705,A,PLT_transfer_02,2014_Feb_24_1139,
ques.jpg,stim_02/a.jpg,stim_02/c.jpg,2,2,j,4,15,135,16,j,1,0.683145609431,02,P13,02,60.0133681705,A,PLT_transfer_02,2014_Feb_24_1139,
ques.jpg,stim_02/b.jpg,stim_02/a.jpg,1,1,f,4,16,136,0,f,1,0.91644153653,02,P13,02,60.0133681705,A,PLT_transfer_02,2014_Feb_24_1139,
ques.jpg,stim_02/b.jpg,stim_02/c.jpg,2,10,f,4,17,137,24,f,1,0.766455226652,02,P13,02,60.0133681705,A,PLT_transfer_02,2014_Feb_24_1139,
ques.jpg,stim_02/c.jpg,stim_02/f.jpg,2,8,j,4,18,138,22,j,1,1.09967408967,02,P13,02,60.0133681705,A,PLT_transfer_02,2014_Feb_24_1139,
ques.jpg,stim_02/c.jpg,stim_02/a.jpg,1,2,f,4,19,139,1,f,1,0.76647671822,02,P13,02,60.0133681705,A,PLT_transfer_02,2014_Feb_24_1139,
ques.jpg,stim_02/a.jpg,stim_02/d.jpg,2,3,j,4,20,140,17,j,1,0.649825974241,02,P13,02,60.0133681705,A,PLT_transfer_02,2014_Feb_24_1139,
ques.jpg,stim_02/f.jpg,stim_02/a.jpg,1,5,f,4,21,141,4,f,1,0.61652574943,02,P13,02,60.0133681705,A,PLT_transfer_02,2014_Feb_24_1139,
ques.jpg,stim_02/c.jpg,stim_02/b.jpg,1,10,j,4,22,142,9,j,1,1.34965098608,02,P13,02,60.0133681705,A,PLT_transfer_02,2014_Feb_24_1139,
ques.jpg,stim_02/f.jpg,stim_02/b.jpg,1,13,j,4,23,143,12,f,0,1.19965693491,02,P13,02,60.0133681705,A,PLT_transfer_02,2014_Feb_24_1139,
ques.jpg,stim_02/a.jpg,stim_02/f.jpg,2,5,j,4,24,144,19,j,1,0.96641009015,02,P13,02,60.0133681705,A,PLT_transfer_02,2014_Feb_24_1139,
ques.jpg,stim_02/d.jpg,stim_02/f.jpg,2,15,f,4,25,145,29,f,1,0.799747385358,02,P13,02,60.0133681705,A,PLT_transfer_02,2014_Feb_24_1139,
ques.jpg,stim_02/a.jpg,stim_02/b.jpg,2,1,j,4,26,146,15,j,1,0.600215490109,02,P13,02,60.0133681705,A,PLT_transfer_02,2014_Feb_24_1139,
ques.jpg,stim_02/c.jpg,stim_02/d.jpg,2,6,j,4,27,147,20,j,1,0.816459416094,02,P13,02,60.0133681705,A,PLT_transfer_02,2014_Feb_24_1139,
ques.jpg,stim_02/d.jpg,stim_02/c.jpg,1,6,f,4,28,148,5,f,1,1.01637032203,02,P13,02,60.0133681705,A,PLT_transfer_02,2014_Feb_24_1139,
ques.jpg,stim_02/e.jpg,stim_02/c.jpg,1,7,f,4,29,149,6,j,0,0.966365567176,02,P13,02,60.0133681705,A,PLT_transfer_02,2014_Feb_24_1139,
ques.jpg,stim_02/b.jpg,stim_02/d.jpg,2,11,f,5,0,150,25,j,0,1.14962984639,02,P13,02,60.0133681705,A,PLT_transfer_02,2014_Feb_24_1139,
ques.jpg,stim_02/b.jpg,stim_02/e.jpg,2,12,f,5,1,151,26,f,1,0.949725746423,02,P13,02,60.0133681705,A,PLT_transfer_02,2014_Feb_24_1139,
ques.jpg,stim_02/c.jpg,stim_02/e.jpg,2,7,j,5,2,152,21,f,0,1.2329466816,02,P13,02,60.0133681705,A,PLT_transfer_02,2014_Feb_24_1139,
ques.jpg,stim_02/b.jpg,stim_02/f.jpg,2,13,f,5,3,153,27,f,1,1.23298350238,02,P13,02,60.0133681705,A,PLT_transfer_02,2014_Feb_24_1139,
ques.jpg,stim_02/e.jpg,stim_02/b.jpg,1,12,j,5,4,154,11,j,1,0.583210282629,02,P13,02,60.0133681705,A,PLT_transfer_02,2014_Feb_24_1139,
ques.jpg,stim_02/d.jpg,stim_02/f.jpg,2,15,f,5,5,155,29,f,1,1.29962138631,02,P13,02,60.0133681705,A,PLT_transfer_02,2014_Feb_24_1139,
ques.jpg,stim_02/e.jpg,stim_02/f.jpg,2,9,j,5,6,156,23,j,1,1.06637397613,02,P13,02,60.0133681705,A,PLT_transfer_02,2014_Feb_24_1139,
ques.jpg,stim_02/f.jpg,stim_02/a.jpg,1,5,f,5,7,157,4,f,1,1.2663083255,02,P13,02,60.0133681705,A,PLT_transfer_02,2014_Feb_24_1139,
ques.jpg,stim_02/e.jpg,stim_02/d.jpg,1,14,j,5,8,158,13,j,1,0.616478637003,02,P13,02,60.0133681705,A,PLT_transfer_02,2014_Feb_24_1139,
ques.jpg,stim_02/a.jpg,stim_02/c.jpg,2,2,j,5,9,159,16,j,1,0.633147194381,02,P13,02,60.0133681705,A,PLT_transfer_02,2014_Feb_24_1139,
ques.jpg,stim_02/c.jpg,stim_02/b.jpg,1,10,j,5,10,160,9,j,1,0.866461404049,02,P13,02,60.0133681705,A,PLT_transfer_02,2014_Feb_24_1139,
ques.jpg,stim_02/f.jpg,stim_02/b.jpg,1,13,j,5,11,161,12,f,0,0.933054268765,02,P13,02,60.0133681705,A,PLT_transfer_02,2014_Feb_24_1139,
ques.jpg,stim_02/e.jpg,stim_02/c.jpg,1,7,f,5,12,162,6,j,0,0.799815438982,02,P13,02,60.0133681705,A,PLT_transfer_02,2014_Feb_24_1139,
ques.jpg,stim_02/a.jpg,stim_02/f.jpg,2,5,j,5,13,163,19,j,1,0.616526332885,02,P13,02,60.0133681705,A,PLT_transfer_02,2014_Feb_24_1139,
ques.jpg,stim_02/f.jpg,stim_02/e.jpg,1,9,f,5,14,164,8,f,1,0.933069573913,02,P13,02,60.0133681705,A,PLT_transfer_02,2014_Feb_24_1139,
ques.jpg,stim_02/c.jpg,stim_02/f.jpg,2,8,j,5,15,165,22,f,0,1.16638994895,02,P13,02,60.0133681705,A,PLT_transfer_02,2014_Feb_24_1139,
ques.jpg,stim_02/b.jpg,stim_02/a.jpg,1,1,f,5,16,166,0,f,1,0.699681370817,02,P13,02,60.0133681705,A,PLT_transfer_02,2014_Feb_24_1139,
ques.jpg,stim_02/e.jpg,stim_02/a.jpg,1,4,f,5,17,167,3,j,0,0.716476898669,02,P13,02,60.0133681705,A,PLT_transfer_02,2014_Feb_24_1139,
ques.jpg,stim_02/b.jpg,stim_02/c.jpg,2,10,f,5,18,168,24,f,1,1.51622662085,02,P13,02,60.0133681705,A,PLT_transfer_02,2014_Feb_24_1139,
ques.jpg,stim_02/c.jpg,stim_02/a.jpg,1,2,f,5,19,169,1,f,1,0.966427762197,02,P13,02,60.0133681705,A,PLT_transfer_02,2014_Feb_24_1139,
ques.jpg,stim_02/a.jpg,stim_02/b.jpg,2,1,j,5,20,170,15,j,1,1.14968424899,02,P13,02,60.0133681705,A,PLT_transfer_02,2014_Feb_24_1139,
ques.jpg,stim_02/a.jpg,stim_02/d.jpg,2,3,j,5,21,171,17,j,1,0.616513794633,02,P13,02,60.0133681705,A,PLT_transfer_02,2014_Feb_24_1139,
ques.jpg,stim_02/c.jpg,stim_02/d.jpg,2,6,j,5,22,172,20,j,1,1.04972319005,02,P13,02,60.0133681705,A,PLT_transfer_02,2014_Feb_24_1139,
ques.jpg,stim_02/d.jpg,stim_02/c.jpg,1,6,f,5,23,173,5,f,1,0.866437870392,02,P13,02,60.0133681705,A,PLT_transfer_02,2014_Feb_24_1139,
ques.jpg,stim_02/f.jpg,stim_02/d.jpg,1,15,j,5,24,174,14,None,0,,02,P13,02,60.0133681705,A,PLT_transfer_02,2014_Feb_24_1139,
ques.jpg,stim_02/a.jpg,stim_02/e.jpg,2,4,j,5,25,175,18,j,1,1.11635309509,02,P13,02,60.0133681705,A,PLT_transfer_02,2014_Feb_24_1139,
ques.jpg,stim_02/d.jpg,stim_02/e.jpg,2,14,f,5,26,176,28,f,1,1.54959774137,02,P13,02,60.0133681705,A,PLT_transfer_02,2014_Feb_24_1139,
ques.jpg,stim_02/f.jpg,stim_02/c.jpg,1,8,f,5,27,177,7,f,1,0.949736853107,02,P13,02,60.0133681705,A,PLT_transfer_02,2014_Feb_24_1139,
ques.jpg,stim_02/d.jpg,stim_02/a.jpg,1,3,f,5,28,178,2,None,0,,02,P13,02,60.0133681705,A,PLT_transfer_02,2014_Feb_24_1139,
ques.jpg,stim_02/d.jpg,stim_02/b.jpg,1,11,j,5,29,179,10,j,1,0.766444231246,02,P13,02,60.0133681705,A,PLT_transfer_02,2014_Feb_24_1139,
