Fb3,Symbol2,Symbol1,PosCond,tID,Correct,trials.thisRepN,trials.thisTrialN,trials.thisN,trials.thisIndex,Response.keys,Response.corr,Response.rt,session,participant,version,frameRate,stimulation,expName,date,
ques.jpg,stim_02/b.jpg,stim_02/e.jpg,2,12,f,0,0,0,26,f,1,0.816491713596,03,P16,02,60.0154403677,A,PLT_transfer_02,2014_Mrz_10_1645,
ques.jpg,stim_02/f.jpg,stim_02/e.jpg,1,9,f,0,1,1,8,f,1,1.01637928737,03,P16,02,60.0154403677,A,PLT_transfer_02,2014_Mrz_10_1645,
ques.jpg,stim_02/a.jpg,stim_02/e.jpg,2,4,j,0,2,2,18,j,1,0.949729403539,03,P16,02,60.0154403677,A,PLT_transfer_02,2014_Mrz_10_1645,
ques.jpg,stim_02/d.jpg,stim_02/b.jpg,1,11,j,0,3,3,10,f,0,0.583176655815,03,P16,02,60.0154403677,A,PLT_transfer_02,2014_Mrz_10_1645,
ques.jpg,stim_02/c.jpg,stim_02/d.jpg,2,6,j,0,4,4,20,j,1,0.699824253952,03,P16,02,60.0154403677,A,PLT_transfer_02,2014_Mrz_10_1645,
ques.jpg,stim_02/c.jpg,stim_02/f.jpg,2,8,j,0,5,5,22,f,0,1.0830292855,03,P16,02,60.0154403677,A,PLT_transfer_02,2014_Mrz_10_1645,
ques.jpg,stim_02/c.jpg,stim_02/e.jpg,2,7,j,0,6,6,21,j,1,0.899795270712,03,P16,02,60.0154403677,A,PLT_transfer_02,2014_Mrz_10_1645,
ques.jpg,stim_02/a.jpg,stim_02/f.jpg,2,5,j,0,7,7,19,j,1,0.883088981287,03,P16,02,60.0154403677,A,PLT_transfer_02,2014_Mrz_10_1645,
ques.jpg,stim_02/f.jpg,stim_02/d.jpg,1,15,j,0,8,8,14,j,1,0.599837447839,03,P16,02,60.0154403677,A,PLT_transfer_02,2014_Mrz_10_1645,
ques.jpg,stim_02/a.jpg,stim_02/c.jpg,2,2,j,0,9,9,16,j,1,0.599871288185,03,P16,02,60.0154403677,A,PLT_transfer_02,2014_Mrz_10_1645,
ques.jpg,stim_02/d.jpg,stim_02/f.jpg,2,15,f,0,10,10,29,f,1,0.600004754851,03,P16,02,60.0154403677,A,PLT_transfer_02,2014_Mrz_10_1645,
ques.jpg,stim_02/e.jpg,stim_02/d.jpg,1,14,j,0,11,11,13,j,1,0.449920361501,03,P16,02,60.0154403677,A,PLT_transfer_02,2014_Mrz_10_1645,
ques.jpg,stim_02/d.jpg,stim_02/a.jpg,1,3,f,0,12,12,2,f,1,0.583206237547,03,P16,02,60.0154403677,A,PLT_transfer_02,2014_Mrz_10_1645,
ques.jpg,stim_02/d.jpg,stim_02/e.jpg,2,14,f,0,13,13,28,f,1,0.566543986888,03,P16,02,60.0154403677,A,PLT_transfer_02,2014_Mrz_10_1645,
ques.jpg,stim_02/c.jpg,stim_02/b.jpg,1,10,j,0,14,14,9,j,1,0.616507653325,03,P16,02,60.0154403677,A,PLT_transfer_02,2014_Mrz_10_1645,
ques.jpg,stim_02/b.jpg,stim_02/f.jpg,2,13,f,0,15,15,27,f,1,1.13301792017,03,P16,02,60.0154403677,A,PLT_transfer_02,2014_Mrz_10_1645,
ques.jpg,stim_02/f.jpg,stim_02/b.jpg,1,13,j,0,16,16,12,j,1,1.54953478846,03,P16,02,60.0154403677,A,PLT_transfer_02,2014_Mrz_10_1645,
ques.jpg,stim_02/f.jpg,stim_02/a.jpg,1,5,f,0,17,17,4,j,0,0.733125317855,03,P16,02,60.0154403677,A,PLT_transfer_02,2014_Mrz_10_1645,
ques.jpg,stim_02/e.jpg,stim_02/a.jpg,1,4,f,0,18,18,3,j,0,1.08300215788,03,P16,02,60.0154403677,A,PLT_transfer_02,2014_Mrz_10_1645,
ques.jpg,stim_02/a.jpg,stim_02/b.jpg,2,1,j,0,19,19,15,j,1,0.599886632432,03,P16,02,60.0154403677,A,PLT_transfer_02,2014_Mrz_10_1645,
ques.jpg,stim_02/e.jpg,stim_02/b.jpg,1,12,j,0,20,20,11,j,1,0.499886626416,03,P16,02,60.0154403677,A,PLT_transfer_02,2014_Mrz_10_1645,
ques.jpg,stim_02/e.jpg,stim_02/f.jpg,2,9,j,0,21,21,23,j,1,0.849738522267,03,P16,02,60.0154403677,A,PLT_transfer_02,2014_Mrz_10_1645,
ques.jpg,stim_02/b.jpg,stim_02/d.jpg,2,11,f,0,22,22,25,j,0,0.566530014061,03,P16,02,60.0154403677,A,PLT_transfer_02,2014_Mrz_10_1645,
ques.jpg,stim_02/e.jpg,stim_02/c.jpg,1,7,f,0,23,23,6,j,0,0.483210493156,03,P16,02,60.0154403677,A,PLT_transfer_02,2014_Mrz_10_1645,
ques.jpg,stim_02/b.jpg,stim_02/a.jpg,1,1,f,0,24,24,0,f,1,1.066343429,03,P16,02,60.0154403677,A,PLT_transfer_02,2014_Mrz_10_1645,
ques.jpg,stim_02/b.jpg,stim_02/c.jpg,2,10,f,0,25,25,24,f,1,0.749779905413,03,P16,02,60.0154403677,A,PLT_transfer_02,2014_Mrz_10_1645,
ques.jpg,stim_02/f.jpg,stim_02/c.jpg,1,8,f,0,26,26,7,f,1,1.14963346441,03,P16,02,60.0154403677,A,PLT_transfer_02,2014_Mrz_10_1645,
ques.jpg,stim_02/a.jpg,stim_02/d.jpg,2,3,j,0,27,27,17,j,1,0.699797718815,03,P16,02,60.0154403677,A,PLT_transfer_02,2014_Mrz_10_1645,
ques.jpg,stim_02/d.jpg,stim_02/c.jpg,1,6,f,0,28,28,5,f,1,0.683159107075,03,P16,02,60.0154403677,A,PLT_transfer_02,2014_Mrz_10_1645,
ques.jpg,stim_02/c.jpg,stim_02/a.jpg,1,2,f,0,29,29,1,f,1,0.916414441996,03,P16,02,60.0154403677,A,PLT_transfer_02,2014_Mrz_10_1645,
ques.jpg,stim_02/d.jpg,stim_02/b.jpg,1,11,j,1,0,30,10,f,0,0.699793135391,03,P16,02,60.0154403677,A,PLT_transfer_02,2014_Mrz_10_1645,
ques.jpg,stim_02/d.jpg,stim_02/e.jpg,2,14,f,1,1,31,28,f,1,0.783119453237,03,P16,02,60.0154403677,A,PLT_transfer_02,2014_Mrz_10_1645,
ques.jpg,stim_02/e.jpg,stim_02/d.jpg,1,14,j,1,2,32,13,j,1,1.33293940948,03,P16,02,60.0154403677,A,PLT_transfer_02,2014_Mrz_10_1645,
ques.jpg,stim_02/b.jpg,stim_02/e.jpg,2,12,f,1,3,33,26,f,1,0.999724768986,03,P16,02,60.0154403677,A,PLT_transfer_02,2014_Mrz_10_1645,
ques.jpg,stim_02/b.jpg,stim_02/d.jpg,2,11,f,1,4,34,25,j,0,0.583180944503,03,P16,02,60.0154403677,A,PLT_transfer_02,2014_Mrz_10_1645,
ques.jpg,stim_02/f.jpg,stim_02/e.jpg,1,9,f,1,5,35,8,f,1,0.566506769122,03,P16,02,60.0154403677,A,PLT_transfer_02,2014_Mrz_10_1645,
ques.jpg,stim_02/a.jpg,stim_02/e.jpg,2,4,j,1,6,36,18,j,1,0.649837471899,03,P16,02,60.0154403677,A,PLT_transfer_02,2014_Mrz_10_1645,
ques.jpg,stim_02/e.jpg,stim_02/f.jpg,2,9,j,1,7,37,23,j,1,0.666493647415,03,P16,02,60.0154403677,A,PLT_transfer_02,2014_Mrz_10_1645,
ques.jpg,stim_02/e.jpg,stim_02/c.jpg,1,7,f,1,8,38,6,j,0,0.549858951437,03,P16,02,60.0154403677,A,PLT_transfer_02,2014_Mrz_10_1645,
ques.jpg,stim_02/b.jpg,stim_02/c.jpg,2,10,f,1,9,39,24,f,1,0.749765024324,03,P16,02,60.0154403677,A,PLT_transfer_02,2014_Mrz_10_1645,
ques.jpg,stim_02/e.jpg,stim_02/a.jpg,1,4,f,1,10,40,3,j,0,0.466536576416,03,P16,02,60.0154403677,A,PLT_transfer_02,2014_Mrz_10_1645,
ques.jpg,stim_02/f.jpg,stim_02/a.jpg,1,5,f,1,11,41,4,f,1,0.583269575418,03,P16,02,60.0154403677,A,PLT_transfer_02,2014_Mrz_10_1645,
ques.jpg,stim_02/c.jpg,stim_02/b.jpg,1,10,j,1,12,42,9,j,1,0.649793899292,03,P16,02,60.0154403677,A,PLT_transfer_02,2014_Mrz_10_1645,
ques.jpg,stim_02/a.jpg,stim_02/b.jpg,2,1,j,1,13,43,15,j,1,0.683167404755,03,P16,02,60.0154403677,A,PLT_transfer_02,2014_Mrz_10_1645,
ques.jpg,stim_02/c.jpg,stim_02/d.jpg,2,6,j,1,14,44,20,j,1,0.599843547041,03,P16,02,60.0154403677,A,PLT_transfer_02,2014_Mrz_10_1645,
ques.jpg,stim_02/c.jpg,stim_02/f.jpg,2,8,j,1,15,45,22,j,1,0.666423888542,03,P16,02,60.0154403677,A,PLT_transfer_02,2014_Mrz_10_1645,
ques.jpg,stim_02/a.jpg,stim_02/d.jpg,2,3,j,1,16,46,17,j,1,0.54985051541,03,P16,02,60.0154403677,A,PLT_transfer_02,2014_Mrz_10_1645,
ques.jpg,stim_02/f.jpg,stim_02/c.jpg,1,8,f,1,17,47,7,f,1,0.999721232172,03,P16,02,60.0154403677,A,PLT_transfer_02,2014_Mrz_10_1645,
ques.jpg,stim_02/f.jpg,stim_02/b.jpg,1,13,j,1,18,48,12,j,1,0.449941374876,03,P16,02,60.0154403677,A,PLT_transfer_02,2014_Mrz_10_1645,
ques.jpg,stim_02/c.jpg,stim_02/a.jpg,1,2,f,1,19,49,1,f,1,0.666543015466,03,P16,02,60.0154403677,A,PLT_transfer_02,2014_Mrz_10_1645,
ques.jpg,stim_02/d.jpg,stim_02/a.jpg,1,3,f,1,20,50,2,f,1,0.633191963969,03,P16,02,60.0154403677,A,PLT_transfer_02,2014_Mrz_10_1645,
ques.jpg,stim_02/d.jpg,stim_02/f.jpg,2,15,f,1,21,51,29,f,1,0.666497500019,03,P16,02,60.0154403677,A,PLT_transfer_02,2014_Mrz_10_1645,
ques.jpg,stim_02/f.jpg,stim_02/d.jpg,1,15,j,1,22,52,14,j,1,0.49982877422,03,P16,02,60.0154403677,A,PLT_transfer_02,2014_Mrz_10_1645,
ques.jpg,stim_02/a.jpg,stim_02/f.jpg,2,5,j,1,23,53,19,f,0,0.566539626019,03,P16,02,60.0154403677,A,PLT_transfer_02,2014_Mrz_10_1645,
ques.jpg,stim_02/b.jpg,stim_02/a.jpg,1,1,f,1,24,54,0,j,0,0.499859925865,03,P16,02,60.0154403677,A,PLT_transfer_02,2014_Mrz_10_1645,
ques.jpg,stim_02/c.jpg,stim_02/e.jpg,2,7,j,1,25,55,21,j,1,0.749808272119,03,P16,02,60.0154403677,A,PLT_transfer_02,2014_Mrz_10_1645,
ques.jpg,stim_02/d.jpg,stim_02/c.jpg,1,6,f,1,26,56,5,f,1,0.633168550612,03,P16,02,60.0154403677,A,PLT_transfer_02,2014_Mrz_10_1645,
ques.jpg,stim_02/a.jpg,stim_02/c.jpg,2,2,j,1,27,57,16,f,0,1.49954898986,03,P16,02,60.0154403677,A,PLT_transfer_02,2014_Mrz_10_1645,
ques.jpg,stim_02/b.jpg,stim_02/f.jpg,2,13,f,1,28,58,27,f,1,1.44955757325,03,P16,02,60.0154403677,A,PLT_transfer_02,2014_Mrz_10_1645,
ques.jpg,stim_02/e.jpg,stim_02/b.jpg,1,12,j,1,29,59,11,j,1,0.583155543191,03,P16,02,60.0154403677,A,PLT_transfer_02,2014_Mrz_10_1645,
ques.jpg,stim_02/a.jpg,stim_02/d.jpg,2,3,j,2,0,60,17,j,1,0.666497800768,03,P16,02,60.0154403677,A,PLT_transfer_02,2014_Mrz_10_1645,
ques.jpg,stim_02/e.jpg,stim_02/a.jpg,1,4,f,2,1,61,3,j,0,0.616495969203,03,P16,02,60.0154403677,A,PLT_transfer_02,2014_Mrz_10_1645,
ques.jpg,stim_02/e.jpg,stim_02/b.jpg,1,12,j,2,2,62,11,j,1,0.549867814529,03,P16,02,60.0154403677,A,PLT_transfer_02,2014_Mrz_10_1645,
ques.jpg,stim_02/b.jpg,stim_02/e.jpg,2,12,f,2,3,63,26,f,1,0.516524332899,03,P16,02,60.0154403677,A,PLT_transfer_02,2014_Mrz_10_1645,
ques.jpg,stim_02/b.jpg,stim_02/c.jpg,2,10,f,2,4,64,24,f,1,1.19962203592,03,P16,02,60.0154403677,A,PLT_transfer_02,2014_Mrz_10_1645,
ques.jpg,stim_02/b.jpg,stim_02/a.jpg,1,1,f,2,5,65,0,f,1,1.28292768024,03,P16,02,60.0154403677,A,PLT_transfer_02,2014_Mrz_10_1645,
ques.jpg,stim_02/d.jpg,stim_02/b.jpg,1,11,j,2,6,66,10,f,0,0.583179470832,03,P16,02,60.0154403677,A,PLT_transfer_02,2014_Mrz_10_1645,
ques.jpg,stim_02/e.jpg,stim_02/d.jpg,1,14,j,2,7,67,13,j,1,0.59890125638,03,P16,02,60.0154403677,A,PLT_transfer_02,2014_Mrz_10_1645,
ques.jpg,stim_02/c.jpg,stim_02/b.jpg,1,10,j,2,8,68,9,j,1,1.33293225464,03,P16,02,60.0154403677,A,PLT_transfer_02,2014_Mrz_10_1645,
ques.jpg,stim_02/a.jpg,stim_02/f.jpg,2,5,j,2,9,69,19,j,1,0.733135191465,03,P16,02,60.0154403677,A,PLT_transfer_02,2014_Mrz_10_1645,
ques.jpg,stim_02/a.jpg,stim_02/b.jpg,2,1,j,2,10,70,15,j,1,0.799740016993,03,P16,02,60.0154403677,A,PLT_transfer_02,2014_Mrz_10_1645,
ques.jpg,stim_02/d.jpg,stim_02/e.jpg,2,14,f,2,11,71,28,f,1,0.633149660529,03,P16,02,60.0154403677,A,PLT_transfer_02,2014_Mrz_10_1645,
ques.jpg,stim_02/c.jpg,stim_02/f.jpg,2,8,j,2,12,72,22,f,0,0.54993030729,03,P16,02,60.0154403677,A,PLT_transfer_02,2014_Mrz_10_1645,
ques.jpg,stim_02/d.jpg,stim_02/f.jpg,2,15,f,2,13,73,29,f,1,0.583169759626,03,P16,02,60.0154403677,A,PLT_transfer_02,2014_Mrz_10_1645,
ques.jpg,stim_02/e.jpg,stim_02/f.jpg,2,9,j,2,14,74,23,j,1,0.616506053339,03,P16,02,60.0154403677,A,PLT_transfer_02,2014_Mrz_10_1645,
ques.jpg,stim_02/a.jpg,stim_02/c.jpg,2,2,j,2,15,75,16,j,1,0.71649371358,03,P16,02,60.0154403677,A,PLT_transfer_02,2014_Mrz_10_1645,
ques.jpg,stim_02/c.jpg,stim_02/d.jpg,2,6,j,2,16,76,20,j,1,0.616514838233,03,P16,02,60.0154403677,A,PLT_transfer_02,2014_Mrz_10_1645,
ques.jpg,stim_02/d.jpg,stim_02/a.jpg,1,3,f,2,17,77,2,f,1,0.649851977054,03,P16,02,60.0154403677,A,PLT_transfer_02,2014_Mrz_10_1645,
ques.jpg,stim_02/f.jpg,stim_02/d.jpg,1,15,j,2,18,78,14,j,1,0.766467052128,03,P16,02,60.0154403677,A,PLT_transfer_02,2014_Mrz_10_1645,
ques.jpg,stim_02/c.jpg,stim_02/e.jpg,2,7,j,2,19,79,21,j,1,0.716461392019,03,P16,02,60.0154403677,A,PLT_transfer_02,2014_Mrz_10_1645,
ques.jpg,stim_02/b.jpg,stim_02/d.jpg,2,11,f,2,20,80,25,j,0,0.616499358652,03,P16,02,60.0154403677,A,PLT_transfer_02,2014_Mrz_10_1645,
ques.jpg,stim_02/d.jpg,stim_02/c.jpg,1,6,f,2,21,81,5,f,1,0.649831784724,03,P16,02,60.0154403677,A,PLT_transfer_02,2014_Mrz_10_1645,
ques.jpg,stim_02/f.jpg,stim_02/b.jpg,1,13,j,2,22,82,12,j,1,0.516583345989,03,P16,02,60.0154403677,A,PLT_transfer_02,2014_Mrz_10_1645,
ques.jpg,stim_02/a.jpg,stim_02/e.jpg,2,4,j,2,23,83,18,j,1,0.849774143053,03,P16,02,60.0154403677,A,PLT_transfer_02,2014_Mrz_10_1645,
ques.jpg,stim_02/f.jpg,stim_02/c.jpg,1,8,f,2,24,84,7,f,1,1.49955221089,03,P16,02,60.0154403677,A,PLT_transfer_02,2014_Mrz_10_1645,
ques.jpg,stim_02/c.jpg,stim_02/a.jpg,1,2,f,2,25,85,1,f,1,1.63284984624,03,P16,02,60.0154403677,A,PLT_transfer_02,2014_Mrz_10_1645,
ques.jpg,stim_02/f.jpg,stim_02/e.jpg,1,9,f,2,26,86,8,f,1,1.03288263397,03,P16,02,60.0154403677,A,PLT_transfer_02,2014_Mrz_10_1645,
ques.jpg,stim_02/e.jpg,stim_02/c.jpg,1,7,f,2,27,87,6,j,0,0.966372661858,03,P16,02,60.0154403677,A,PLT_transfer_02,2014_Mrz_10_1645,
ques.jpg,stim_02/b.jpg,stim_02/f.jpg,2,13,f,2,28,88,27,f,1,1.56625611236,03,P16,02,60.0154403677,A,PLT_transfer_02,2014_Mrz_10_1645,
ques.jpg,stim_02/f.jpg,stim_02/a.jpg,1,5,f,2,29,89,4,f,1,1.33297227239,03,P16,02,60.0154403677,A,PLT_transfer_02,2014_Mrz_10_1645,
ques.jpg,stim_02/f.jpg,stim_02/b.jpg,1,13,j,3,0,90,12,j,1,1.33292788776,03,P16,02,60.0154403677,A,PLT_transfer_02,2014_Mrz_10_1645,
ques.jpg,stim_02/f.jpg,stim_02/c.jpg,1,8,f,3,1,91,7,f,1,1.18298992338,03,P16,02,60.0154403677,A,PLT_transfer_02,2014_Mrz_10_1645,
ques.jpg,stim_02/b.jpg,stim_02/a.jpg,1,1,f,3,2,92,0,j,0,0.59984896354,03,P16,02,60.0154403677,A,PLT_transfer_02,2014_Mrz_10_1645,
ques.jpg,stim_02/c.jpg,stim_02/b.jpg,1,10,j,3,3,93,9,f,0,0.51651685025,03,P16,02,60.0154403677,A,PLT_transfer_02,2014_Mrz_10_1645,
ques.jpg,stim_02/d.jpg,stim_02/b.jpg,1,11,j,3,4,94,10,f,0,0.733186730926,03,P16,02,60.0154403677,A,PLT_transfer_02,2014_Mrz_10_1645,
ques.jpg,stim_02/a.jpg,stim_02/b.jpg,2,1,j,3,5,95,15,j,1,0.63316584086,03,P16,02,60.0154403677,A,PLT_transfer_02,2014_Mrz_10_1645,
ques.jpg,stim_02/d.jpg,stim_02/c.jpg,1,6,f,3,6,96,5,f,1,0.633162830354,03,P16,02,60.0154403677,A,PLT_transfer_02,2014_Mrz_10_1645,
ques.jpg,stim_02/a.jpg,stim_02/c.jpg,2,2,j,3,7,97,16,j,1,0.716477494154,03,P16,02,60.0154403677,A,PLT_transfer_02,2014_Mrz_10_1645,
ques.jpg,stim_02/f.jpg,stim_02/d.jpg,1,15,j,3,8,98,14,j,1,0.866427259945,03,P16,02,60.0154403677,A,PLT_transfer_02,2014_Mrz_10_1645,
ques.jpg,stim_02/f.jpg,stim_02/a.jpg,1,5,f,3,9,99,4,f,1,0.583185506877,03,P16,02,60.0154403677,A,PLT_transfer_02,2014_Mrz_10_1645,
ques.jpg,stim_02/a.jpg,stim_02/e.jpg,2,4,j,3,10,100,18,f,0,0.849773382155,03,P16,02,60.0154403677,A,PLT_transfer_02,2014_Mrz_10_1645,
ques.jpg,stim_02/c.jpg,stim_02/f.jpg,2,8,j,3,11,101,22,f,0,0.633179834738,03,P16,02,60.0154403677,A,PLT_transfer_02,2014_Mrz_10_1645,
ques.jpg,stim_02/e.jpg,stim_02/d.jpg,1,14,j,3,12,102,13,j,1,0.616496537621,03,P16,02,60.0154403677,A,PLT_transfer_02,2014_Mrz_10_1645,
ques.jpg,stim_02/a.jpg,stim_02/d.jpg,2,3,j,3,13,103,17,j,1,0.733205154849,03,P16,02,60.0154403677,A,PLT_transfer_02,2014_Mrz_10_1645,
ques.jpg,stim_02/c.jpg,stim_02/e.jpg,2,7,j,3,14,104,21,j,1,0.783132583965,03,P16,02,60.0154403677,A,PLT_transfer_02,2014_Mrz_10_1645,
ques.jpg,stim_02/c.jpg,stim_02/d.jpg,2,6,j,3,15,105,20,j,1,0.583162141638,03,P16,02,60.0154403677,A,PLT_transfer_02,2014_Mrz_10_1645,
ques.jpg,stim_02/e.jpg,stim_02/a.jpg,1,4,f,3,16,106,3,j,0,0.716490450448,03,P16,02,60.0154403677,A,PLT_transfer_02,2014_Mrz_10_1645,
ques.jpg,stim_02/d.jpg,stim_02/f.jpg,2,15,f,3,17,107,29,f,1,0.716449136473,03,P16,02,60.0154403677,A,PLT_transfer_02,2014_Mrz_10_1645,
ques.jpg,stim_02/d.jpg,stim_02/e.jpg,2,14,f,3,18,108,28,f,1,0.833089330155,03,P16,02,60.0154403677,A,PLT_transfer_02,2014_Mrz_10_1645,
ques.jpg,stim_02/a.jpg,stim_02/f.jpg,2,5,j,3,19,109,19,j,1,0.683149783836,03,P16,02,60.0154403677,A,PLT_transfer_02,2014_Mrz_10_1645,
ques.jpg,stim_02/e.jpg,stim_02/f.jpg,2,9,j,3,20,110,23,j,1,0.749793030129,03,P16,02,60.0154403677,A,PLT_transfer_02,2014_Mrz_10_1645,
ques.jpg,stim_02/b.jpg,stim_02/d.jpg,2,11,f,3,21,111,25,None,0,,03,P16,02,60.0154403677,A,PLT_transfer_02,2014_Mrz_10_1645,
ques.jpg,stim_02/e.jpg,stim_02/c.jpg,1,7,f,3,22,112,6,j,0,0.649850509393,03,P16,02,60.0154403677,A,PLT_transfer_02,2014_Mrz_10_1645,
ques.jpg,stim_02/b.jpg,stim_02/f.jpg,2,13,f,3,23,113,27,f,1,1.16632691483,03,P16,02,60.0154403677,A,PLT_transfer_02,2014_Mrz_10_1645,
ques.jpg,stim_02/d.jpg,stim_02/a.jpg,1,3,f,3,24,114,2,f,1,0.599803535311,03,P16,02,60.0154403677,A,PLT_transfer_02,2014_Mrz_10_1645,
ques.jpg,stim_02/f.jpg,stim_02/e.jpg,1,9,f,3,25,115,8,f,1,0.983055531913,03,P16,02,60.0154403677,A,PLT_transfer_02,2014_Mrz_10_1645,
ques.jpg,stim_02/e.jpg,stim_02/b.jpg,1,12,j,3,26,116,11,j,1,0.599862665695,03,P16,02,60.0154403677,A,PLT_transfer_02,2014_Mrz_10_1645,
ques.jpg,stim_02/b.jpg,stim_02/c.jpg,2,10,f,3,27,117,24,f,1,1.03300056391,03,P16,02,60.0154403677,A,PLT_transfer_02,2014_Mrz_10_1645,
ques.jpg,stim_02/c.jpg,stim_02/a.jpg,1,2,f,3,28,118,1,f,1,1.09969033917,03,P16,02,60.0154403677,A,PLT_transfer_02,2014_Mrz_10_1645,
ques.jpg,stim_02/b.jpg,stim_02/e.jpg,2,12,f,3,29,119,26,f,1,0.666521562995,03,P16,02,60.0154403677,A,PLT_transfer_02,2014_Mrz_10_1645,
ques.jpg,stim_02/a.jpg,stim_02/b.jpg,2,1,j,4,0,120,15,j,1,0.666513584109,03,P16,02,60.0154403677,A,PLT_transfer_02,2014_Mrz_10_1645,
ques.jpg,stim_02/c.jpg,stim_02/f.jpg,2,8,j,4,1,121,22,j,1,0.783079480605,03,P16,02,60.0154403677,A,PLT_transfer_02,2014_Mrz_10_1645,
ques.jpg,stim_02/d.jpg,stim_02/a.jpg,1,3,f,4,2,122,2,f,1,0.849774849814,03,P16,02,60.0154403677,A,PLT_transfer_02,2014_Mrz_10_1645,
ques.jpg,stim_02/e.jpg,stim_02/f.jpg,2,9,j,4,3,123,23,j,1,0.533184944474,03,P16,02,60.0154403677,A,PLT_transfer_02,2014_Mrz_10_1645,
ques.jpg,stim_02/c.jpg,stim_02/b.jpg,1,10,j,4,4,124,9,j,1,0.916414014933,03,P16,02,60.0154403677,A,PLT_transfer_02,2014_Mrz_10_1645,
ques.jpg,stim_02/a.jpg,stim_02/c.jpg,2,2,j,4,5,125,16,j,1,0.683161765701,03,P16,02,60.0154403677,A,PLT_transfer_02,2014_Mrz_10_1645,
ques.jpg,stim_02/c.jpg,stim_02/a.jpg,1,2,f,4,6,126,1,f,1,1.14960972023,03,P16,02,60.0154403677,A,PLT_transfer_02,2014_Mrz_10_1645,
ques.jpg,stim_02/f.jpg,stim_02/d.jpg,1,15,j,4,7,127,14,j,1,1.26628794069,03,P16,02,60.0154403677,A,PLT_transfer_02,2014_Mrz_10_1645,
ques.jpg,stim_02/c.jpg,stim_02/e.jpg,2,7,j,4,8,128,21,f,0,0.733197630094,03,P16,02,60.0154403677,A,PLT_transfer_02,2014_Mrz_10_1645,
ques.jpg,stim_02/e.jpg,stim_02/c.jpg,1,7,f,4,9,129,6,j,0,0.633182980579,03,P16,02,60.0154403677,A,PLT_transfer_02,2014_Mrz_10_1645,
ques.jpg,stim_02/a.jpg,stim_02/f.jpg,2,5,j,4,10,130,19,j,1,0.799797869189,03,P16,02,60.0154403677,A,PLT_transfer_02,2014_Mrz_10_1645,
ques.jpg,stim_02/e.jpg,stim_02/a.jpg,1,4,f,4,11,131,3,j,0,0.716447734978,03,P16,02,60.0154403677,A,PLT_transfer_02,2014_Mrz_10_1645,
ques.jpg,stim_02/e.jpg,stim_02/b.jpg,1,12,j,4,12,132,11,j,1,1.03307984151,03,P16,02,60.0154403677,A,PLT_transfer_02,2014_Mrz_10_1645,
ques.jpg,stim_02/d.jpg,stim_02/e.jpg,2,14,f,4,13,133,28,f,1,0.633176562582,03,P16,02,60.0154403677,A,PLT_transfer_02,2014_Mrz_10_1645,
ques.jpg,stim_02/c.jpg,stim_02/d.jpg,2,6,j,4,14,134,20,j,1,0.716495620334,03,P16,02,60.0154403677,A,PLT_transfer_02,2014_Mrz_10_1645,
ques.jpg,stim_02/b.jpg,stim_02/d.jpg,2,11,f,4,15,135,25,j,0,0.999682955766,03,P16,02,60.0154403677,A,PLT_transfer_02,2014_Mrz_10_1645,
ques.jpg,stim_02/f.jpg,stim_02/b.jpg,1,13,j,4,16,136,12,j,1,1.03305354697,03,P16,02,60.0154403677,A,PLT_transfer_02,2014_Mrz_10_1645,
ques.jpg,stim_02/f.jpg,stim_02/a.jpg,1,5,f,4,17,137,4,j,0,0.816395563943,03,P16,02,60.0154403677,A,PLT_transfer_02,2014_Mrz_10_1645,
ques.jpg,stim_02/d.jpg,stim_02/f.jpg,2,15,f,4,18,138,29,f,1,1.51626607319,03,P16,02,60.0154403677,A,PLT_transfer_02,2014_Mrz_10_1645,
ques.jpg,stim_02/a.jpg,stim_02/e.jpg,2,4,j,4,19,139,18,j,1,1.06633877941,03,P16,02,60.0154403677,A,PLT_transfer_02,2014_Mrz_10_1645,
ques.jpg,stim_02/b.jpg,stim_02/f.jpg,2,13,f,4,20,140,27,f,1,0.649848680838,03,P16,02,60.0154403677,A,PLT_transfer_02,2014_Mrz_10_1645,
ques.jpg,stim_02/d.jpg,stim_02/b.jpg,1,11,j,4,21,141,10,f,0,1.24964185532,03,P16,02,60.0154403677,A,PLT_transfer_02,2014_Mrz_10_1645,
ques.jpg,stim_02/d.jpg,stim_02/c.jpg,1,6,f,4,22,142,5,f,1,0.633159552184,03,P16,02,60.0154403677,A,PLT_transfer_02,2014_Mrz_10_1645,
ques.jpg,stim_02/a.jpg,stim_02/d.jpg,2,3,j,4,23,143,17,j,1,1.13301561943,03,P16,02,60.0154403677,A,PLT_transfer_02,2014_Mrz_10_1645,
ques.jpg,stim_02/f.jpg,stim_02/c.jpg,1,8,f,4,24,144,7,None,0,,03,P16,02,60.0154403677,A,PLT_transfer_02,2014_Mrz_10_1645,
ques.jpg,stim_02/b.jpg,stim_02/c.jpg,2,10,f,4,25,145,24,f,1,0.816450781573,03,P16,02,60.0154403677,A,PLT_transfer_02,2014_Mrz_10_1645,
ques.jpg,stim_02/b.jpg,stim_02/a.jpg,1,1,f,4,26,146,0,f,1,0.833114830715,03,P16,02,60.0154403677,A,PLT_transfer_02,2014_Mrz_10_1645,
ques.jpg,stim_02/b.jpg,stim_02/e.jpg,2,12,f,4,27,147,26,f,1,0.599858458207,03,P16,02,60.0154403677,A,PLT_transfer_02,2014_Mrz_10_1645,
ques.jpg,stim_02/f.jpg,stim_02/e.jpg,1,9,f,4,28,148,8,f,1,0.983048253773,03,P16,02,60.0154403677,A,PLT_transfer_02,2014_Mrz_10_1645,
ques.jpg,stim_02/e.jpg,stim_02/d.jpg,1,14,j,4,29,149,13,j,1,0.816441184652,03,P16,02,60.0154403677,A,PLT_transfer_02,2014_Mrz_10_1645,
ques.jpg,stim_02/d.jpg,stim_02/b.jpg,1,11,j,5,0,150,10,f,0,1.09965218607,03,P16,02,60.0154403677,A,PLT_transfer_02,2014_Mrz_10_1645,
ques.jpg,stim_02/b.jpg,stim_02/e.jpg,2,12,f,5,1,151,26,f,1,0.683184126434,03,P16,02,60.0154403677,A,PLT_transfer_02,2014_Mrz_10_1645,
ques.jpg,stim_02/f.jpg,stim_02/c.jpg,1,8,f,5,2,152,7,None,0,,03,P16,02,60.0154403677,A,PLT_transfer_02,2014_Mrz_10_1645,
ques.jpg,stim_02/e.jpg,stim_02/a.jpg,1,4,f,5,3,153,3,j,0,0.649828987753,03,P16,02,60.0154403677,A,PLT_transfer_02,2014_Mrz_10_1645,
ques.jpg,stim_02/a.jpg,stim_02/e.jpg,2,4,j,5,4,154,18,j,1,0.849794744401,03,P16,02,60.0154403677,A,PLT_transfer_02,2014_Mrz_10_1645,
ques.jpg,stim_02/e.jpg,stim_02/d.jpg,1,14,j,5,5,155,13,j,1,1.09969660379,03,P16,02,60.0154403677,A,PLT_transfer_02,2014_Mrz_10_1645,
ques.jpg,stim_02/d.jpg,stim_02/a.jpg,1,3,f,5,6,156,2,f,1,1.43290547289,03,P16,02,60.0154403677,A,PLT_transfer_02,2014_Mrz_10_1645,
ques.jpg,stim_02/c.jpg,stim_02/f.jpg,2,8,j,5,7,157,22,j,1,1.23293688619,03,P16,02,60.0154403677,A,PLT_transfer_02,2014_Mrz_10_1645,
ques.jpg,stim_02/c.jpg,stim_02/a.jpg,1,2,f,5,8,158,1,None,0,,03,P16,02,60.0154403677,A,PLT_transfer_02,2014_Mrz_10_1645,
ques.jpg,stim_02/d.jpg,stim_02/e.jpg,2,14,f,5,9,159,28,f,1,0.583142397425,03,P16,02,60.0154403677,A,PLT_transfer_02,2014_Mrz_10_1645,
ques.jpg,stim_02/d.jpg,stim_02/f.jpg,2,15,f,5,10,160,29,j,0,0.716482573815,03,P16,02,60.0154403677,A,PLT_transfer_02,2014_Mrz_10_1645,
ques.jpg,stim_02/e.jpg,stim_02/b.jpg,1,12,j,5,11,161,11,j,1,0.83311699912,03,P16,02,60.0154403677,A,PLT_transfer_02,2014_Mrz_10_1645,
ques.jpg,stim_02/f.jpg,stim_02/e.jpg,1,9,f,5,12,162,8,f,1,0.999733764407,03,P16,02,60.0154403677,A,PLT_transfer_02,2014_Mrz_10_1645,
ques.jpg,stim_02/d.jpg,stim_02/c.jpg,1,6,f,5,13,163,5,f,1,0.916390953453,03,P16,02,60.0154403677,A,PLT_transfer_02,2014_Mrz_10_1645,
ques.jpg,stim_02/a.jpg,stim_02/c.jpg,2,2,j,5,14,164,16,j,1,0.716451214652,03,P16,02,60.0154403677,A,PLT_transfer_02,2014_Mrz_10_1645,
ques.jpg,stim_02/a.jpg,stim_02/d.jpg,2,3,j,5,15,165,17,j,1,0.649790663228,03,P16,02,60.0154403677,A,PLT_transfer_02,2014_Mrz_10_1645,
ques.jpg,stim_02/c.jpg,stim_02/b.jpg,1,10,j,5,16,166,9,j,1,1.31629490004,03,P16,02,60.0154403677,A,PLT_transfer_02,2014_Mrz_10_1645,
ques.jpg,stim_02/f.jpg,stim_02/b.jpg,1,13,j,5,17,167,12,j,1,1.44956983782,03,P16,02,60.0154403677,A,PLT_transfer_02,2014_Mrz_10_1645,
ques.jpg,stim_02/b.jpg,stim_02/d.jpg,2,11,f,5,18,168,25,j,0,0.849770392704,03,P16,02,60.0154403677,A,PLT_transfer_02,2014_Mrz_10_1645,
ques.jpg,stim_02/a.jpg,stim_02/f.jpg,2,5,j,5,19,169,19,j,1,0.766491250441,03,P16,02,60.0154403677,A,PLT_transfer_02,2014_Mrz_10_1645,
ques.jpg,stim_02/c.jpg,stim_02/e.jpg,2,7,j,5,20,170,21,f,0,0.99970577364,03,P16,02,60.0154403677,A,PLT_transfer_02,2014_Mrz_10_1645,
ques.jpg,stim_02/b.jpg,stim_02/c.jpg,2,10,f,5,21,171,24,f,1,1.43290701273,03,P16,02,60.0154403677,A,PLT_transfer_02,2014_Mrz_10_1645,
ques.jpg,stim_02/e.jpg,stim_02/f.jpg,2,9,j,5,22,172,23,j,1,0.499867555884,03,P16,02,60.0154403677,A,PLT_transfer_02,2014_Mrz_10_1645,
ques.jpg,stim_02/f.jpg,stim_02/a.jpg,1,5,f,5,23,173,4,f,1,0.966394267713,03,P16,02,60.0154403677,A,PLT_transfer_02,2014_Mrz_10_1645,
ques.jpg,stim_02/c.jpg,stim_02/d.jpg,2,6,j,5,24,174,20,j,1,0.599854888311,03,P16,02,60.0154403677,A,PLT_transfer_02,2014_Mrz_10_1645,
ques.jpg,stim_02/f.jpg,stim_02/d.jpg,1,15,j,5,25,175,14,j,1,1.18293422155,03,P16,02,60.0154403677,A,PLT_transfer_02,2014_Mrz_10_1645,
ques.jpg,stim_02/b.jpg,stim_02/a.jpg,1,1,f,5,26,176,0,f,1,0.799802548852,03,P16,02,60.0154403677,A,PLT_transfer_02,2014_Mrz_10_1645,
ques.jpg,stim_02/b.jpg,stim_02/f.jpg,2,13,f,5,27,177,27,j,0,0.799845823714,03,P16,02,60.0154403677,A,PLT_transfer_02,2014_Mrz_10_1645,
ques.jpg,stim_02/a.jpg,stim_02/b.jpg,2,1,j,5,28,178,15,j,1,0.583028927602,03,P16,02,60.0154403677,A,PLT_transfer_02,2014_Mrz_10_1645,
ques.jpg,stim_02/e.jpg,stim_02/c.jpg,1,7,f,5,29,179,6,j,0,0.849759692032,03,P16,02,60.0154403677,A,PLT_transfer_02,2014_Mrz_10_1645,
