Fb3,Symbol2,Symbol1,PosCond,tID,Correct,trials.thisRepN,trials.thisTrialN,trials.thisN,trials.thisIndex,Response.keys,Response.corr,Response.rt,session,participant,version,frameRate,stimulation,expName,date,
ques.jpg,stim_01/c.jpg,stim_01/d.jpg,2,6,j,0,0,0,20,j,1,0.883084308072,02,P21,01,60.0188487752,A,PLT_transfer_01,2014_Mrz_07_1301,
ques.jpg,stim_01/b.jpg,stim_01/a.jpg,1,1,f,0,1,1,0,f,1,1.04967974647,02,P21,01,60.0188487752,A,PLT_transfer_01,2014_Mrz_07_1301,
ques.jpg,stim_01/b.jpg,stim_01/d.jpg,2,11,f,0,2,2,25,f,1,1.01634930734,02,P21,01,60.0188487752,A,PLT_transfer_01,2014_Mrz_07_1301,
ques.jpg,stim_01/c.jpg,stim_01/f.jpg,2,8,j,0,3,3,22,j,1,0.833110267178,02,P21,01,60.0188487752,A,PLT_transfer_01,2014_Mrz_07_1301,
ques.jpg,stim_01/b.jpg,stim_01/e.jpg,2,12,f,0,4,4,26,f,1,1.11636057338,02,P21,01,60.0188487752,A,PLT_transfer_01,2014_Mrz_07_1301,
ques.jpg,stim_01/e.jpg,stim_01/f.jpg,2,9,j,0,5,5,23,j,1,0.849769113882,02,P21,01,60.0188487752,A,PLT_transfer_01,2014_Mrz_07_1301,
ques.jpg,stim_01/c.jpg,stim_01/b.jpg,1,10,j,0,6,6,9,j,1,0.866411948737,02,P21,01,60.0188487752,A,PLT_transfer_01,2014_Mrz_07_1301,
ques.jpg,stim_01/f.jpg,stim_01/b.jpg,1,13,j,0,7,7,12,f,0,1.3662453431,02,P21,01,60.0188487752,A,PLT_transfer_01,2014_Mrz_07_1301,
ques.jpg,stim_01/d.jpg,stim_01/f.jpg,2,15,f,0,8,8,29,j,0,1.3829419608,02,P21,01,60.0188487752,A,PLT_transfer_01,2014_Mrz_07_1301,
ques.jpg,stim_01/a.jpg,stim_01/f.jpg,2,5,j,0,9,9,19,j,1,1.23298717984,02,P21,01,60.0188487752,A,PLT_transfer_01,2014_Mrz_07_1301,
ques.jpg,stim_01/e.jpg,stim_01/a.jpg,1,4,f,0,10,10,3,f,1,1.48301287429,02,P21,01,60.0188487752,A,PLT_transfer_01,2014_Mrz_07_1301,
ques.jpg,stim_01/c.jpg,stim_01/a.jpg,1,2,f,0,11,11,1,j,0,0.833083518608,02,P21,01,60.0188487752,A,PLT_transfer_01,2014_Mrz_07_1301,
ques.jpg,stim_01/f.jpg,stim_01/d.jpg,1,15,j,0,12,12,14,f,0,1.33291016117,02,P21,01,60.0188487752,A,PLT_transfer_01,2014_Mrz_07_1301,
ques.jpg,stim_01/a.jpg,stim_01/d.jpg,2,3,j,0,13,13,17,j,1,1.19965808506,02,P21,01,60.0188487752,A,PLT_transfer_01,2014_Mrz_07_1301,
ques.jpg,stim_01/c.jpg,stim_01/e.jpg,2,7,j,0,14,14,21,f,0,0.816440924351,02,P21,01,60.0188487752,A,PLT_transfer_01,2014_Mrz_07_1301,
ques.jpg,stim_01/e.jpg,stim_01/c.jpg,1,7,f,0,15,15,6,f,1,0.733130426348,02,P21,01,60.0188487752,A,PLT_transfer_01,2014_Mrz_07_1301,
ques.jpg,stim_01/d.jpg,stim_01/e.jpg,2,14,f,0,16,16,28,f,1,1.21637381233,02,P21,01,60.0188487752,A,PLT_transfer_01,2014_Mrz_07_1301,
ques.jpg,stim_01/e.jpg,stim_01/d.jpg,1,14,j,0,17,17,13,j,1,1.1663359917,02,P21,01,60.0188487752,A,PLT_transfer_01,2014_Mrz_07_1301,
ques.jpg,stim_01/a.jpg,stim_01/c.jpg,2,2,j,0,18,18,16,f,0,0.716501949226,02,P21,01,60.0188487752,A,PLT_transfer_01,2014_Mrz_07_1301,
ques.jpg,stim_01/f.jpg,stim_01/c.jpg,1,8,f,0,19,19,7,f,1,0.699826167374,02,P21,01,60.0188487752,A,PLT_transfer_01,2014_Mrz_07_1301,
ques.jpg,stim_01/a.jpg,stim_01/e.jpg,2,4,j,0,20,20,18,f,0,1.26629623275,02,P21,01,60.0188487752,A,PLT_transfer_01,2014_Mrz_07_1301,
ques.jpg,stim_01/b.jpg,stim_01/c.jpg,2,10,f,0,21,21,24,f,1,0.849759288429,02,P21,01,60.0188487752,A,PLT_transfer_01,2014_Mrz_07_1301,
ques.jpg,stim_01/d.jpg,stim_01/c.jpg,1,6,f,0,22,22,5,f,1,0.983069060123,02,P21,01,60.0188487752,A,PLT_transfer_01,2014_Mrz_07_1301,
ques.jpg,stim_01/f.jpg,stim_01/e.jpg,1,9,f,0,23,23,8,f,1,1.31613019101,02,P21,01,60.0188487752,A,PLT_transfer_01,2014_Mrz_07_1301,
ques.jpg,stim_01/d.jpg,stim_01/b.jpg,1,11,j,0,24,24,10,f,0,1.66617180408,02,P21,01,60.0188487752,A,PLT_transfer_01,2014_Mrz_07_1301,
ques.jpg,stim_01/f.jpg,stim_01/a.jpg,1,5,f,0,25,25,4,f,1,1.41628633963,02,P21,01,60.0188487752,A,PLT_transfer_01,2014_Mrz_07_1301,
ques.jpg,stim_01/d.jpg,stim_01/a.jpg,1,3,f,0,26,26,2,f,1,1.2829747875,02,P21,01,60.0188487752,A,PLT_transfer_01,2014_Mrz_07_1301,
ques.jpg,stim_01/b.jpg,stim_01/f.jpg,2,13,f,0,27,27,27,j,0,1.01637455517,02,P21,01,60.0188487752,A,PLT_transfer_01,2014_Mrz_07_1301,
ques.jpg,stim_01/e.jpg,stim_01/b.jpg,1,12,j,0,28,28,11,j,1,1.18299462788,02,P21,01,60.0188487752,A,PLT_transfer_01,2014_Mrz_07_1301,
ques.jpg,stim_01/a.jpg,stim_01/b.jpg,2,1,j,0,29,29,15,j,1,1.48285967301,02,P21,01,60.0188487752,A,PLT_transfer_01,2014_Mrz_07_1301,
ques.jpg,stim_01/b.jpg,stim_01/d.jpg,2,11,f,1,0,30,25,j,0,0.816431168068,02,P21,01,60.0188487752,A,PLT_transfer_01,2014_Mrz_07_1301,
ques.jpg,stim_01/f.jpg,stim_01/e.jpg,1,9,f,1,1,31,8,f,1,1.16636436732,02,P21,01,60.0188487752,A,PLT_transfer_01,2014_Mrz_07_1301,
ques.jpg,stim_01/f.jpg,stim_01/d.jpg,1,15,j,1,2,32,14,None,0,,02,P21,01,60.0188487752,A,PLT_transfer_01,2014_Mrz_07_1301,
ques.jpg,stim_01/c.jpg,stim_01/a.jpg,1,2,f,1,3,33,1,f,1,0.699838227389,02,P21,01,60.0188487752,A,PLT_transfer_01,2014_Mrz_07_1301,
ques.jpg,stim_01/c.jpg,stim_01/f.jpg,2,8,j,1,4,34,22,j,1,0.93306208727,02,P21,01,60.0188487752,A,PLT_transfer_01,2014_Mrz_07_1301,
ques.jpg,stim_01/c.jpg,stim_01/b.jpg,1,10,j,1,5,35,9,j,1,0.666494919231,02,P21,01,60.0188487752,A,PLT_transfer_01,2014_Mrz_07_1301,
ques.jpg,stim_01/e.jpg,stim_01/f.jpg,2,9,j,1,6,36,23,j,1,0.949738894675,02,P21,01,60.0188487752,A,PLT_transfer_01,2014_Mrz_07_1301,
ques.jpg,stim_01/a.jpg,stim_01/b.jpg,2,1,j,1,7,37,15,j,1,1.14965220392,02,P21,01,60.0188487752,A,PLT_transfer_01,2014_Mrz_07_1301,
ques.jpg,stim_01/a.jpg,stim_01/d.jpg,2,3,j,1,8,38,17,j,1,0.733138690917,02,P21,01,60.0188487752,A,PLT_transfer_01,2014_Mrz_07_1301,
ques.jpg,stim_01/e.jpg,stim_01/c.jpg,1,7,f,1,9,39,6,f,1,0.683152959929,02,P21,01,60.0188487752,A,PLT_transfer_01,2014_Mrz_07_1301,
ques.jpg,stim_01/d.jpg,stim_01/e.jpg,2,14,f,1,10,40,28,f,1,0.883074840509,02,P21,01,60.0188487752,A,PLT_transfer_01,2014_Mrz_07_1301,
ques.jpg,stim_01/a.jpg,stim_01/c.jpg,2,2,j,1,11,41,16,f,0,0.799776682217,02,P21,01,60.0188487752,A,PLT_transfer_01,2014_Mrz_07_1301,
ques.jpg,stim_01/b.jpg,stim_01/e.jpg,2,12,f,1,12,42,26,f,1,0.949614084053,02,P21,01,60.0188487752,A,PLT_transfer_01,2014_Mrz_07_1301,
ques.jpg,stim_01/e.jpg,stim_01/a.jpg,1,4,f,1,13,43,3,j,0,0.633174371718,02,P21,01,60.0188487752,A,PLT_transfer_01,2014_Mrz_07_1301,
ques.jpg,stim_01/b.jpg,stim_01/a.jpg,1,1,f,1,14,44,0,f,1,0.76648969523,02,P21,01,60.0188487752,A,PLT_transfer_01,2014_Mrz_07_1301,
ques.jpg,stim_01/d.jpg,stim_01/b.jpg,1,11,j,1,15,45,10,f,0,1.08302098548,02,P21,01,60.0188487752,A,PLT_transfer_01,2014_Mrz_07_1301,
ques.jpg,stim_01/d.jpg,stim_01/f.jpg,2,15,f,1,16,46,29,j,0,0.799772558956,02,P21,01,60.0188487752,A,PLT_transfer_01,2014_Mrz_07_1301,
ques.jpg,stim_01/c.jpg,stim_01/d.jpg,2,6,j,1,17,47,20,j,1,0.883084175743,02,P21,01,60.0188487752,A,PLT_transfer_01,2014_Mrz_07_1301,
ques.jpg,stim_01/f.jpg,stim_01/c.jpg,1,8,f,1,18,48,7,f,1,0.849762566588,02,P21,01,60.0188487752,A,PLT_transfer_01,2014_Mrz_07_1301,
ques.jpg,stim_01/d.jpg,stim_01/c.jpg,1,6,f,1,19,49,5,f,1,0.816438849186,02,P21,01,60.0188487752,A,PLT_transfer_01,2014_Mrz_07_1301,
ques.jpg,stim_01/b.jpg,stim_01/c.jpg,2,10,f,1,20,50,24,f,1,0.783086476469,02,P21,01,60.0188487752,A,PLT_transfer_01,2014_Mrz_07_1301,
ques.jpg,stim_01/d.jpg,stim_01/a.jpg,1,3,f,1,21,51,2,f,1,1.53287840212,02,P21,01,60.0188487752,A,PLT_transfer_01,2014_Mrz_07_1301,
ques.jpg,stim_01/b.jpg,stim_01/f.jpg,2,13,f,1,22,52,27,j,0,0.733110140864,02,P21,01,60.0188487752,A,PLT_transfer_01,2014_Mrz_07_1301,
ques.jpg,stim_01/a.jpg,stim_01/f.jpg,2,5,j,1,23,53,19,j,1,0.833103906347,02,P21,01,60.0188487752,A,PLT_transfer_01,2014_Mrz_07_1301,
ques.jpg,stim_01/f.jpg,stim_01/a.jpg,1,5,f,1,24,54,4,f,1,0.783122145238,02,P21,01,60.0188487752,A,PLT_transfer_01,2014_Mrz_07_1301,
ques.jpg,stim_01/e.jpg,stim_01/d.jpg,1,14,j,1,25,55,13,j,1,0.849748380282,02,P21,01,60.0188487752,A,PLT_transfer_01,2014_Mrz_07_1301,
ques.jpg,stim_01/a.jpg,stim_01/e.jpg,2,4,j,1,26,56,18,f,0,0.833071548817,02,P21,01,60.0188487752,A,PLT_transfer_01,2014_Mrz_07_1301,
ques.jpg,stim_01/f.jpg,stim_01/b.jpg,1,13,j,1,27,57,12,None,0,,02,P21,01,60.0188487752,A,PLT_transfer_01,2014_Mrz_07_1301,
ques.jpg,stim_01/c.jpg,stim_01/e.jpg,2,7,j,1,28,58,21,j,1,1.34958224381,02,P21,01,60.0188487752,A,PLT_transfer_01,2014_Mrz_07_1301,
ques.jpg,stim_01/e.jpg,stim_01/b.jpg,1,12,j,1,29,59,11,j,1,1.2329806927,02,P21,01,60.0188487752,A,PLT_transfer_01,2014_Mrz_07_1301,
ques.jpg,stim_01/f.jpg,stim_01/b.jpg,1,13,j,2,0,60,12,f,0,1.01636666353,02,P21,01,60.0188487752,A,PLT_transfer_01,2014_Mrz_07_1301,
ques.jpg,stim_01/f.jpg,stim_01/a.jpg,1,5,f,2,1,61,4,f,1,0.983049084409,02,P21,01,60.0188487752,A,PLT_transfer_01,2014_Mrz_07_1301,
ques.jpg,stim_01/e.jpg,stim_01/c.jpg,1,7,f,2,2,62,6,j,0,0.749831498142,02,P21,01,60.0188487752,A,PLT_transfer_01,2014_Mrz_07_1301,
ques.jpg,stim_01/c.jpg,stim_01/a.jpg,1,2,f,2,3,63,1,j,0,0.616501744718,02,P21,01,60.0188487752,A,PLT_transfer_01,2014_Mrz_07_1301,
ques.jpg,stim_01/f.jpg,stim_01/e.jpg,1,9,f,2,4,64,8,f,1,1.18297496194,02,P21,01,60.0188487752,A,PLT_transfer_01,2014_Mrz_07_1301,
ques.jpg,stim_01/c.jpg,stim_01/e.jpg,2,7,j,2,5,65,21,j,1,0.71647946226,02,P21,01,60.0188487752,A,PLT_transfer_01,2014_Mrz_07_1301,
ques.jpg,stim_01/a.jpg,stim_01/f.jpg,2,5,j,2,6,66,19,j,1,1.16632616625,02,P21,01,60.0188487752,A,PLT_transfer_01,2014_Mrz_07_1301,
ques.jpg,stim_01/c.jpg,stim_01/b.jpg,1,10,j,2,7,67,9,j,1,0.633166356771,02,P21,01,60.0188487752,A,PLT_transfer_01,2014_Mrz_07_1301,
ques.jpg,stim_01/b.jpg,stim_01/f.jpg,2,13,f,2,8,68,27,j,0,1.16634958252,02,P21,01,60.0188487752,A,PLT_transfer_01,2014_Mrz_07_1301,
ques.jpg,stim_01/a.jpg,stim_01/b.jpg,2,1,j,2,9,69,15,j,1,0.999710045377,02,P21,01,60.0188487752,A,PLT_transfer_01,2014_Mrz_07_1301,
ques.jpg,stim_01/e.jpg,stim_01/b.jpg,1,12,j,2,10,70,11,j,1,1.2329835438,02,P21,01,60.0188487752,A,PLT_transfer_01,2014_Mrz_07_1301,
ques.jpg,stim_01/a.jpg,stim_01/d.jpg,2,3,j,2,11,71,17,j,1,1.49959034146,02,P21,01,60.0188487752,A,PLT_transfer_01,2014_Mrz_07_1301,
ques.jpg,stim_01/c.jpg,stim_01/f.jpg,2,8,j,2,12,72,22,j,1,1.38292744368,02,P21,01,60.0188487752,A,PLT_transfer_01,2014_Mrz_07_1301,
ques.jpg,stim_01/e.jpg,stim_01/f.jpg,2,9,j,2,13,73,23,j,1,1.58285965797,02,P21,01,60.0188487752,A,PLT_transfer_01,2014_Mrz_07_1301,
ques.jpg,stim_01/f.jpg,stim_01/d.jpg,1,15,j,2,14,74,14,f,0,0.949706967214,02,P21,01,60.0188487752,A,PLT_transfer_01,2014_Mrz_07_1301,
ques.jpg,stim_01/b.jpg,stim_01/e.jpg,2,12,f,2,15,75,26,f,1,1.0996980395,02,P21,01,60.0188487752,A,PLT_transfer_01,2014_Mrz_07_1301,
ques.jpg,stim_01/d.jpg,stim_01/f.jpg,2,15,f,2,16,76,29,j,0,0.833068002992,02,P21,01,60.0188487752,A,PLT_transfer_01,2014_Mrz_07_1301,
ques.jpg,stim_01/b.jpg,stim_01/c.jpg,2,10,f,2,17,77,24,f,1,0.816402359371,02,P21,01,60.0188487752,A,PLT_transfer_01,2014_Mrz_07_1301,
ques.jpg,stim_01/d.jpg,stim_01/b.jpg,1,11,j,2,18,78,10,j,1,0.799823520789,02,P21,01,60.0188487752,A,PLT_transfer_01,2014_Mrz_07_1301,
ques.jpg,stim_01/d.jpg,stim_01/e.jpg,2,14,f,2,19,79,28,f,1,0.816491549343,02,P21,01,60.0188487752,A,PLT_transfer_01,2014_Mrz_07_1301,
ques.jpg,stim_01/d.jpg,stim_01/c.jpg,1,6,f,2,20,80,5,f,1,0.883072127757,02,P21,01,60.0188487752,A,PLT_transfer_01,2014_Mrz_07_1301,
ques.jpg,stim_01/a.jpg,stim_01/e.jpg,2,4,j,2,21,81,18,f,0,1.24959497149,02,P21,01,60.0188487752,A,PLT_transfer_01,2014_Mrz_07_1301,
ques.jpg,stim_01/c.jpg,stim_01/d.jpg,2,6,j,2,22,82,20,j,1,1.46623224249,02,P21,01,60.0188487752,A,PLT_transfer_01,2014_Mrz_07_1301,
ques.jpg,stim_01/e.jpg,stim_01/a.jpg,1,4,f,2,23,83,3,f,1,1.48287485179,02,P21,01,60.0188487752,A,PLT_transfer_01,2014_Mrz_07_1301,
ques.jpg,stim_01/d.jpg,stim_01/a.jpg,1,3,f,2,24,84,2,f,1,1.23296890636,02,P21,01,60.0188487752,A,PLT_transfer_01,2014_Mrz_07_1301,
ques.jpg,stim_01/b.jpg,stim_01/a.jpg,1,1,f,2,25,85,0,f,1,1.04969039297,02,P21,01,60.0188487752,A,PLT_transfer_01,2014_Mrz_07_1301,
ques.jpg,stim_01/f.jpg,stim_01/c.jpg,1,8,f,2,26,86,7,f,1,0.783090148607,02,P21,01,60.0188487752,A,PLT_transfer_01,2014_Mrz_07_1301,
ques.jpg,stim_01/e.jpg,stim_01/d.jpg,1,14,j,2,27,87,13,None,0,,02,P21,01,60.0188487752,A,PLT_transfer_01,2014_Mrz_07_1301,
ques.jpg,stim_01/a.jpg,stim_01/c.jpg,2,2,j,2,28,88,16,f,0,0.633146967515,02,P21,01,60.0188487752,A,PLT_transfer_01,2014_Mrz_07_1301,
ques.jpg,stim_01/b.jpg,stim_01/d.jpg,2,11,f,2,29,89,25,f,1,1.08302721398,02,P21,01,60.0188487752,A,PLT_transfer_01,2014_Mrz_07_1301,
ques.jpg,stim_01/d.jpg,stim_01/e.jpg,2,14,f,3,0,90,28,f,1,0.916408067578,02,P21,01,60.0188487752,A,PLT_transfer_01,2014_Mrz_07_1301,
ques.jpg,stim_01/a.jpg,stim_01/b.jpg,2,1,j,3,1,91,15,j,1,1.36627109318,02,P21,01,60.0188487752,A,PLT_transfer_01,2014_Mrz_07_1301,
ques.jpg,stim_01/a.jpg,stim_01/d.jpg,2,3,j,3,2,92,17,j,1,1.11632600535,02,P21,01,60.0188487752,A,PLT_transfer_01,2014_Mrz_07_1301,
ques.jpg,stim_01/f.jpg,stim_01/b.jpg,1,13,j,3,3,93,12,None,0,,02,P21,01,60.0188487752,A,PLT_transfer_01,2014_Mrz_07_1301,
ques.jpg,stim_01/e.jpg,stim_01/b.jpg,1,12,j,3,4,94,11,j,1,0.749782073135,02,P21,01,60.0188487752,A,PLT_transfer_01,2014_Mrz_07_1301,
ques.jpg,stim_01/b.jpg,stim_01/a.jpg,1,1,f,3,5,95,0,f,1,0.949721592615,02,P21,01,60.0188487752,A,PLT_transfer_01,2014_Mrz_07_1301,
ques.jpg,stim_01/f.jpg,stim_01/e.jpg,1,9,f,3,6,96,8,f,1,1.39958214005,02,P21,01,60.0188487752,A,PLT_transfer_01,2014_Mrz_07_1301,
ques.jpg,stim_01/f.jpg,stim_01/c.jpg,1,8,f,3,7,97,7,f,1,0.666479117905,02,P21,01,60.0188487752,A,PLT_transfer_01,2014_Mrz_07_1301,
ques.jpg,stim_01/b.jpg,stim_01/e.jpg,2,12,f,3,8,98,26,f,1,1.13299657823,02,P21,01,60.0188487752,A,PLT_transfer_01,2014_Mrz_07_1301,
ques.jpg,stim_01/c.jpg,stim_01/f.jpg,2,8,j,3,9,99,22,j,1,0.866432459785,02,P21,01,60.0188487752,A,PLT_transfer_01,2014_Mrz_07_1301,
ques.jpg,stim_01/d.jpg,stim_01/a.jpg,1,3,f,3,10,100,2,f,1,0.949699875566,02,P21,01,60.0188487752,A,PLT_transfer_01,2014_Mrz_07_1301,
ques.jpg,stim_01/a.jpg,stim_01/c.jpg,2,2,j,3,11,101,16,f,0,0.933080805855,02,P21,01,60.0188487752,A,PLT_transfer_01,2014_Mrz_07_1301,
ques.jpg,stim_01/c.jpg,stim_01/d.jpg,2,6,j,3,12,102,20,j,1,0.899747127663,02,P21,01,60.0188487752,A,PLT_transfer_01,2014_Mrz_07_1301,
ques.jpg,stim_01/e.jpg,stim_01/a.jpg,1,4,f,3,13,103,3,None,0,,02,P21,01,60.0188487752,A,PLT_transfer_01,2014_Mrz_07_1301,
ques.jpg,stim_01/d.jpg,stim_01/b.jpg,1,11,j,3,14,104,10,f,0,1.01637375819,02,P21,01,60.0188487752,A,PLT_transfer_01,2014_Mrz_07_1301,
ques.jpg,stim_01/b.jpg,stim_01/d.jpg,2,11,f,3,15,105,25,f,1,1.43290263644,02,P21,01,60.0188487752,A,PLT_transfer_01,2014_Mrz_07_1301,
ques.jpg,stim_01/f.jpg,stim_01/a.jpg,1,5,f,3,16,106,4,f,1,1.09968166976,02,P21,01,60.0188487752,A,PLT_transfer_01,2014_Mrz_07_1301,
ques.jpg,stim_01/a.jpg,stim_01/f.jpg,2,5,j,3,17,107,19,j,1,0.916355132837,02,P21,01,60.0188487752,A,PLT_transfer_01,2014_Mrz_07_1301,
ques.jpg,stim_01/b.jpg,stim_01/f.jpg,2,13,f,3,18,108,27,f,1,1.13300823525,02,P21,01,60.0188487752,A,PLT_transfer_01,2014_Mrz_07_1301,
ques.jpg,stim_01/c.jpg,stim_01/e.jpg,2,7,j,3,19,109,21,j,1,1.19963262068,02,P21,01,60.0188487752,A,PLT_transfer_01,2014_Mrz_07_1301,
ques.jpg,stim_01/a.jpg,stim_01/e.jpg,2,4,j,3,20,110,18,j,1,0.999715067876,02,P21,01,60.0188487752,A,PLT_transfer_01,2014_Mrz_07_1301,
ques.jpg,stim_01/b.jpg,stim_01/c.jpg,2,10,f,3,21,111,24,f,1,0.716478671293,02,P21,01,60.0188487752,A,PLT_transfer_01,2014_Mrz_07_1301,
ques.jpg,stim_01/d.jpg,stim_01/f.jpg,2,15,f,3,22,112,29,f,1,1.53287213152,02,P21,01,60.0188487752,A,PLT_transfer_01,2014_Mrz_07_1301,
ques.jpg,stim_01/c.jpg,stim_01/b.jpg,1,10,j,3,23,113,9,j,1,1.11634559911,02,P21,01,60.0188487752,A,PLT_transfer_01,2014_Mrz_07_1301,
ques.jpg,stim_01/d.jpg,stim_01/c.jpg,1,6,f,3,24,114,5,f,1,0.749800551122,02,P21,01,60.0188487752,A,PLT_transfer_01,2014_Mrz_07_1301,
ques.jpg,stim_01/e.jpg,stim_01/f.jpg,2,9,j,3,25,115,23,j,1,1.5495371586,02,P21,01,60.0188487752,A,PLT_transfer_01,2014_Mrz_07_1301,
ques.jpg,stim_01/e.jpg,stim_01/d.jpg,1,14,j,3,26,116,13,j,1,0.983062726362,02,P21,01,60.0188487752,A,PLT_transfer_01,2014_Mrz_07_1301,
ques.jpg,stim_01/f.jpg,stim_01/d.jpg,1,15,j,3,27,117,14,f,0,1.46618413176,02,P21,01,60.0188487752,A,PLT_transfer_01,2014_Mrz_07_1301,
ques.jpg,stim_01/e.jpg,stim_01/c.jpg,1,7,f,3,28,118,6,f,1,1.13300017218,02,P21,01,60.0188487752,A,PLT_transfer_01,2014_Mrz_07_1301,
ques.jpg,stim_01/c.jpg,stim_01/a.jpg,1,2,f,3,29,119,1,j,0,1.21635405014,02,P21,01,60.0188487752,A,PLT_transfer_01,2014_Mrz_07_1301,
ques.jpg,stim_01/c.jpg,stim_01/f.jpg,2,8,j,4,0,120,22,j,1,1.26628978771,02,P21,01,60.0188487752,A,PLT_transfer_01,2014_Mrz_07_1301,
ques.jpg,stim_01/e.jpg,stim_01/c.jpg,1,7,f,4,1,121,6,f,1,0.849753062936,02,P21,01,60.0188487752,A,PLT_transfer_01,2014_Mrz_07_1301,
ques.jpg,stim_01/d.jpg,stim_01/a.jpg,1,3,f,4,2,122,2,f,1,1.41626904058,02,P21,01,60.0188487752,A,PLT_transfer_01,2014_Mrz_07_1301,
ques.jpg,stim_01/b.jpg,stim_01/d.jpg,2,11,f,4,3,123,25,j,0,1.68283800408,02,P21,01,60.0188487752,A,PLT_transfer_01,2014_Mrz_07_1301,
ques.jpg,stim_01/b.jpg,stim_01/e.jpg,2,12,f,4,4,124,26,f,1,0.599872142795,02,P21,01,60.0188487752,A,PLT_transfer_01,2014_Mrz_07_1301,
ques.jpg,stim_01/d.jpg,stim_01/c.jpg,1,6,f,4,5,125,5,f,1,0.799787770815,02,P21,01,60.0188487752,A,PLT_transfer_01,2014_Mrz_07_1301,
ques.jpg,stim_01/f.jpg,stim_01/d.jpg,1,15,j,4,6,126,14,f,0,1.44959752484,02,P21,01,60.0188487752,A,PLT_transfer_01,2014_Mrz_07_1301,
ques.jpg,stim_01/d.jpg,stim_01/e.jpg,2,14,f,4,7,127,28,f,1,0.616500845479,02,P21,01,60.0188487752,A,PLT_transfer_01,2014_Mrz_07_1301,
ques.jpg,stim_01/a.jpg,stim_01/e.jpg,2,4,j,4,8,128,18,f,0,1.21632097683,02,P21,01,60.0188487752,A,PLT_transfer_01,2014_Mrz_07_1301,
ques.jpg,stim_01/c.jpg,stim_01/e.jpg,2,7,j,4,9,129,21,j,1,1.13301037056,02,P21,01,60.0188487752,A,PLT_transfer_01,2014_Mrz_07_1301,
ques.jpg,stim_01/b.jpg,stim_01/f.jpg,2,13,f,4,10,130,27,f,1,1.09966339628,02,P21,01,60.0188487752,A,PLT_transfer_01,2014_Mrz_07_1301,
ques.jpg,stim_01/c.jpg,stim_01/b.jpg,1,10,j,4,11,131,9,j,1,0.799773683757,02,P21,01,60.0188487752,A,PLT_transfer_01,2014_Mrz_07_1301,
ques.jpg,stim_01/b.jpg,stim_01/a.jpg,1,1,f,4,12,132,0,f,1,1.36614081796,02,P21,01,60.0188487752,A,PLT_transfer_01,2014_Mrz_07_1301,
ques.jpg,stim_01/f.jpg,stim_01/b.jpg,1,13,j,4,13,133,12,None,0,,02,P21,01,60.0188487752,A,PLT_transfer_01,2014_Mrz_07_1301,
ques.jpg,stim_01/a.jpg,stim_01/d.jpg,2,3,j,4,14,134,17,j,1,0.649798003782,02,P21,01,60.0188487752,A,PLT_transfer_01,2014_Mrz_07_1301,
ques.jpg,stim_01/c.jpg,stim_01/a.jpg,1,2,f,4,15,135,1,f,1,0.533229507939,02,P21,01,60.0188487752,A,PLT_transfer_01,2014_Mrz_07_1301,
ques.jpg,stim_01/e.jpg,stim_01/a.jpg,1,4,f,4,16,136,3,f,1,1.29959609779,02,P21,01,60.0188487752,A,PLT_transfer_01,2014_Mrz_07_1301,
ques.jpg,stim_01/a.jpg,stim_01/f.jpg,2,5,j,4,17,137,19,j,1,0.983027250068,02,P21,01,60.0188487752,A,PLT_transfer_01,2014_Mrz_07_1301,
ques.jpg,stim_01/a.jpg,stim_01/c.jpg,2,2,j,4,18,138,16,f,0,0.933075810422,02,P21,01,60.0188487752,A,PLT_transfer_01,2014_Mrz_07_1301,
ques.jpg,stim_01/f.jpg,stim_01/e.jpg,1,9,f,4,19,139,8,f,1,1.18299095273,02,P21,01,60.0188487752,A,PLT_transfer_01,2014_Mrz_07_1301,
ques.jpg,stim_01/d.jpg,stim_01/b.jpg,1,11,j,4,20,140,10,f,0,1.03302261403,02,P21,01,60.0188487752,A,PLT_transfer_01,2014_Mrz_07_1301,
ques.jpg,stim_01/f.jpg,stim_01/c.jpg,1,8,f,4,21,141,7,f,1,0.633172401815,02,P21,01,60.0188487752,A,PLT_transfer_01,2014_Mrz_07_1301,
ques.jpg,stim_01/e.jpg,stim_01/d.jpg,1,14,j,4,22,142,13,None,0,,02,P21,01,60.0188487752,A,PLT_transfer_01,2014_Mrz_07_1301,
ques.jpg,stim_01/b.jpg,stim_01/c.jpg,2,10,f,4,23,143,24,f,1,0.566524416641,02,P21,01,60.0188487752,A,PLT_transfer_01,2014_Mrz_07_1301,
ques.jpg,stim_01/c.jpg,stim_01/d.jpg,2,6,j,4,24,144,20,j,1,0.883074293148,02,P21,01,60.0188487752,A,PLT_transfer_01,2014_Mrz_07_1301,
ques.jpg,stim_01/d.jpg,stim_01/f.jpg,2,15,f,4,25,145,29,f,1,1.08303370413,02,P21,01,60.0188487752,A,PLT_transfer_01,2014_Mrz_07_1301,
ques.jpg,stim_01/e.jpg,stim_01/f.jpg,2,9,j,4,26,146,23,j,1,0.583227581643,02,P21,01,60.0188487752,A,PLT_transfer_01,2014_Mrz_07_1301,
ques.jpg,stim_01/a.jpg,stim_01/b.jpg,2,1,j,4,27,147,15,j,1,0.866425518509,02,P21,01,60.0188487752,A,PLT_transfer_01,2014_Mrz_07_1301,
ques.jpg,stim_01/f.jpg,stim_01/a.jpg,1,5,f,4,28,148,4,f,1,0.7497810145,02,P21,01,60.0188487752,A,PLT_transfer_01,2014_Mrz_07_1301,
ques.jpg,stim_01/e.jpg,stim_01/b.jpg,1,12,j,4,29,149,11,j,1,0.816432897373,02,P21,01,60.0188487752,A,PLT_transfer_01,2014_Mrz_07_1301,
ques.jpg,stim_01/a.jpg,stim_01/c.jpg,2,2,j,5,0,150,16,f,0,0.549867954873,02,P21,01,60.0188487752,A,PLT_transfer_01,2014_Mrz_07_1301,
ques.jpg,stim_01/a.jpg,stim_01/f.jpg,2,5,j,5,1,151,19,j,1,0.716499988346,02,P21,01,60.0188487752,A,PLT_transfer_01,2014_Mrz_07_1301,
ques.jpg,stim_01/b.jpg,stim_01/f.jpg,2,13,f,5,2,152,27,j,0,1.33293844957,02,P21,01,60.0188487752,A,PLT_transfer_01,2014_Mrz_07_1301,
ques.jpg,stim_01/d.jpg,stim_01/f.jpg,2,15,f,5,3,153,29,f,1,1.54951484307,02,P21,01,60.0188487752,A,PLT_transfer_01,2014_Mrz_07_1301,
ques.jpg,stim_01/d.jpg,stim_01/e.jpg,2,14,f,5,4,154,28,f,1,0.54985926625,02,P21,01,60.0188487752,A,PLT_transfer_01,2014_Mrz_07_1301,
ques.jpg,stim_01/a.jpg,stim_01/b.jpg,2,1,j,5,5,155,15,j,1,0.733132203772,02,P21,01,60.0188487752,A,PLT_transfer_01,2014_Mrz_07_1301,
ques.jpg,stim_01/c.jpg,stim_01/b.jpg,1,10,j,5,6,156,9,j,1,0.766494603444,02,P21,01,60.0188487752,A,PLT_transfer_01,2014_Mrz_07_1301,
ques.jpg,stim_01/e.jpg,stim_01/a.jpg,1,4,f,5,7,157,3,f,1,0.616419044898,02,P21,01,60.0188487752,A,PLT_transfer_01,2014_Mrz_07_1301,
ques.jpg,stim_01/b.jpg,stim_01/a.jpg,1,1,f,5,8,158,0,f,1,0.783132012797,02,P21,01,60.0188487752,A,PLT_transfer_01,2014_Mrz_07_1301,
ques.jpg,stim_01/d.jpg,stim_01/b.jpg,1,11,j,5,9,159,10,None,0,,02,P21,01,60.0188487752,A,PLT_transfer_01,2014_Mrz_07_1301,
ques.jpg,stim_01/d.jpg,stim_01/a.jpg,1,3,f,5,10,160,2,f,1,0.633185255807,02,P21,01,60.0188487752,A,PLT_transfer_01,2014_Mrz_07_1301,
ques.jpg,stim_01/a.jpg,stim_01/e.jpg,2,4,j,5,11,161,18,j,1,0.666469536058,02,P21,01,60.0188487752,A,PLT_transfer_01,2014_Mrz_07_1301,
ques.jpg,stim_01/c.jpg,stim_01/a.jpg,1,2,f,5,12,162,1,f,1,0.483209702146,02,P21,01,60.0188487752,A,PLT_transfer_01,2014_Mrz_07_1301,
ques.jpg,stim_01/c.jpg,stim_01/f.jpg,2,8,j,5,13,163,22,j,1,0.699807358564,02,P21,01,60.0188487752,A,PLT_transfer_01,2014_Mrz_07_1301,
ques.jpg,stim_01/b.jpg,stim_01/e.jpg,2,12,f,5,14,164,26,f,1,0.683139176625,02,P21,01,60.0188487752,A,PLT_transfer_01,2014_Mrz_07_1301,
ques.jpg,stim_01/e.jpg,stim_01/c.jpg,1,7,f,5,15,165,6,f,1,0.549863756425,02,P21,01,60.0188487752,A,PLT_transfer_01,2014_Mrz_07_1301,
ques.jpg,stim_01/c.jpg,stim_01/d.jpg,2,6,j,5,16,166,20,j,1,0.466549613351,02,P21,01,60.0188487752,A,PLT_transfer_01,2014_Mrz_07_1301,
ques.jpg,stim_01/f.jpg,stim_01/a.jpg,1,5,f,5,17,167,4,f,1,0.549880481049,02,P21,01,60.0188487752,A,PLT_transfer_01,2014_Mrz_07_1301,
ques.jpg,stim_01/c.jpg,stim_01/e.jpg,2,7,j,5,18,168,21,j,1,0.483203882663,02,P21,01,60.0188487752,A,PLT_transfer_01,2014_Mrz_07_1301,
ques.jpg,stim_01/f.jpg,stim_01/c.jpg,1,8,f,5,19,169,7,f,1,0.366586933231,02,P21,01,60.0188487752,A,PLT_transfer_01,2014_Mrz_07_1301,
ques.jpg,stim_01/e.jpg,stim_01/f.jpg,2,9,j,5,20,170,23,j,1,0.549853657289,02,P21,01,60.0188487752,A,PLT_transfer_01,2014_Mrz_07_1301,
ques.jpg,stim_01/f.jpg,stim_01/d.jpg,1,15,j,5,21,171,14,j,1,0.699812242719,02,P21,01,60.0188487752,A,PLT_transfer_01,2014_Mrz_07_1301,
ques.jpg,stim_01/b.jpg,stim_01/d.jpg,2,11,f,5,22,172,25,j,0,1.1329979316,02,P21,01,60.0188487752,A,PLT_transfer_01,2014_Mrz_07_1301,
ques.jpg,stim_01/d.jpg,stim_01/c.jpg,1,6,f,5,23,173,5,f,1,0.433180627286,02,P21,01,60.0188487752,A,PLT_transfer_01,2014_Mrz_07_1301,
ques.jpg,stim_01/f.jpg,stim_01/b.jpg,1,13,j,5,24,174,12,j,1,0.949710257402,02,P21,01,60.0188487752,A,PLT_transfer_01,2014_Mrz_07_1301,
ques.jpg,stim_01/a.jpg,stim_01/d.jpg,2,3,j,5,25,175,17,j,1,0.733094507958,02,P21,01,60.0188487752,A,PLT_transfer_01,2014_Mrz_07_1301,
ques.jpg,stim_01/e.jpg,stim_01/d.jpg,1,14,j,5,26,176,13,j,1,0.816437574013,02,P21,01,60.0188487752,A,PLT_transfer_01,2014_Mrz_07_1301,
ques.jpg,stim_01/e.jpg,stim_01/b.jpg,1,12,j,5,27,177,11,j,1,0.733121328707,02,P21,01,60.0188487752,A,PLT_transfer_01,2014_Mrz_07_1301,
ques.jpg,stim_01/f.jpg,stim_01/e.jpg,1,9,f,5,28,178,8,f,1,0.566534407506,02,P21,01,60.0188487752,A,PLT_transfer_01,2014_Mrz_07_1301,
ques.jpg,stim_01/b.jpg,stim_01/c.jpg,2,10,f,5,29,179,24,f,1,0.533185712944,02,P21,01,60.0188487752,A,PLT_transfer_01,2014_Mrz_07_1301,
