Fb3,Symbol2,Symbol1,PosCond,tID,Correct,trials.thisRepN,trials.thisTrialN,trials.thisN,trials.thisIndex,Response.keys,Response.corr,Response.rt,session,participant,version,frameRate,stimulation,expName,date,
ques.jpg,stim_03/c.jpg,stim_03/a.jpg,1,2,f,0,0,0,1,f,1,0.883088268509,03,P30,03,60.0219622769,A,PLT_transfer_03,2014_Apr_01_1410,
ques.jpg,stim_03/a.jpg,stim_03/e.jpg,2,4,j,0,1,1,18,f,0,0.79975601988,03,P30,03,60.0219622769,A,PLT_transfer_03,2014_Apr_01_1410,
ques.jpg,stim_03/e.jpg,stim_03/c.jpg,1,7,f,0,2,2,6,f,1,1.06637130247,03,P30,03,60.0219622769,A,PLT_transfer_03,2014_Apr_01_1410,
ques.jpg,stim_03/b.jpg,stim_03/d.jpg,2,11,f,0,3,3,25,f,1,1.23294237487,03,P30,03,60.0219622769,A,PLT_transfer_03,2014_Apr_01_1410,
ques.jpg,stim_03/b.jpg,stim_03/e.jpg,2,12,f,0,4,4,26,f,1,0.966443623732,03,P30,03,60.0219622769,A,PLT_transfer_03,2014_Apr_01_1410,
ques.jpg,stim_03/a.jpg,stim_03/d.jpg,2,3,j,0,5,5,17,j,1,0.949679776844,03,P30,03,60.0219622769,A,PLT_transfer_03,2014_Apr_01_1410,
ques.jpg,stim_03/a.jpg,stim_03/b.jpg,2,1,j,0,6,6,15,j,1,1.0496985767,03,P30,03,60.0219622769,A,PLT_transfer_03,2014_Apr_01_1410,
ques.jpg,stim_03/e.jpg,stim_03/f.jpg,2,9,j,0,7,7,23,f,0,0.949730023083,03,P30,03,60.0219622769,A,PLT_transfer_03,2014_Apr_01_1410,
ques.jpg,stim_03/d.jpg,stim_03/c.jpg,1,6,f,0,8,8,5,j,0,0.899766479951,03,P30,03,60.0219622769,A,PLT_transfer_03,2014_Apr_01_1410,
ques.jpg,stim_03/d.jpg,stim_03/a.jpg,1,3,f,0,9,9,2,j,0,0.849766392734,03,P30,03,60.0219622769,A,PLT_transfer_03,2014_Apr_01_1410,
ques.jpg,stim_03/c.jpg,stim_03/f.jpg,2,8,j,0,10,10,22,f,0,0.966534023053,03,P30,03,60.0219622769,A,PLT_transfer_03,2014_Apr_01_1410,
ques.jpg,stim_03/b.jpg,stim_03/a.jpg,1,1,f,0,11,11,0,f,1,1.2829650935,03,P30,03,60.0219622769,A,PLT_transfer_03,2014_Apr_01_1410,
ques.jpg,stim_03/b.jpg,stim_03/c.jpg,2,10,f,0,12,12,24,f,1,0.799774804701,03,P30,03,60.0219622769,A,PLT_transfer_03,2014_Apr_01_1410,
ques.jpg,stim_03/f.jpg,stim_03/c.jpg,1,8,f,0,13,13,7,j,0,0.533171958105,03,P30,03,60.0219622769,A,PLT_transfer_03,2014_Apr_01_1410,
ques.jpg,stim_03/f.jpg,stim_03/a.jpg,1,5,f,0,14,14,4,j,0,0.599822777272,03,P30,03,60.0219622769,A,PLT_transfer_03,2014_Apr_01_1410,
ques.jpg,stim_03/c.jpg,stim_03/d.jpg,2,6,j,0,15,15,20,f,0,0.533186556492,03,P30,03,60.0219622769,A,PLT_transfer_03,2014_Apr_01_1410,
ques.jpg,stim_03/e.jpg,stim_03/b.jpg,1,12,j,0,16,16,11,j,1,0.416519352486,03,P30,03,60.0219622769,A,PLT_transfer_03,2014_Apr_01_1410,
ques.jpg,stim_03/d.jpg,stim_03/b.jpg,1,11,j,0,17,17,10,j,1,0.699778383621,03,P30,03,60.0219622769,A,PLT_transfer_03,2014_Apr_01_1410,
ques.jpg,stim_03/e.jpg,stim_03/a.jpg,1,4,f,0,18,18,3,j,0,0.733101790212,03,P30,03,60.0219622769,A,PLT_transfer_03,2014_Apr_01_1410,
ques.jpg,stim_03/b.jpg,stim_03/f.jpg,2,13,f,0,19,19,27,f,1,0.783111739009,03,P30,03,60.0219622769,A,PLT_transfer_03,2014_Apr_01_1410,
ques.jpg,stim_03/c.jpg,stim_03/b.jpg,1,10,j,0,20,20,9,j,1,0.76646731378,03,P30,03,60.0219622769,A,PLT_transfer_03,2014_Apr_01_1410,
ques.jpg,stim_03/f.jpg,stim_03/e.jpg,1,9,f,0,21,21,8,j,0,0.849819297599,03,P30,03,60.0219622769,A,PLT_transfer_03,2014_Apr_01_1410,
ques.jpg,stim_03/a.jpg,stim_03/c.jpg,2,2,j,0,22,22,16,f,0,0.816461605552,03,P30,03,60.0219622769,A,PLT_transfer_03,2014_Apr_01_1410,
ques.jpg,stim_03/d.jpg,stim_03/f.jpg,2,15,f,0,23,23,29,f,1,0.649838317006,03,P30,03,60.0219622769,A,PLT_transfer_03,2014_Apr_01_1410,
ques.jpg,stim_03/e.jpg,stim_03/d.jpg,1,14,j,0,24,24,13,j,1,0.699803842076,03,P30,03,60.0219622769,A,PLT_transfer_03,2014_Apr_01_1410,
ques.jpg,stim_03/a.jpg,stim_03/f.jpg,2,5,j,0,25,25,19,f,0,0.69981450365,03,P30,03,60.0219622769,A,PLT_transfer_03,2014_Apr_01_1410,
ques.jpg,stim_03/c.jpg,stim_03/e.jpg,2,7,j,0,26,26,21,j,1,0.649804452598,03,P30,03,60.0219622769,A,PLT_transfer_03,2014_Apr_01_1410,
ques.jpg,stim_03/f.jpg,stim_03/d.jpg,1,15,j,0,27,27,14,j,1,0.816397527838,03,P30,03,60.0219622769,A,PLT_transfer_03,2014_Apr_01_1410,
ques.jpg,stim_03/d.jpg,stim_03/e.jpg,2,14,f,0,28,28,28,j,0,0.766377365584,03,P30,03,60.0219622769,A,PLT_transfer_03,2014_Apr_01_1410,
ques.jpg,stim_03/f.jpg,stim_03/b.jpg,1,13,j,0,29,29,12,j,1,0.583237136563,03,P30,03,60.0219622769,A,PLT_transfer_03,2014_Apr_01_1410,
ques.jpg,stim_03/f.jpg,stim_03/a.jpg,1,5,f,1,0,30,4,j,0,0.749793400049,03,P30,03,60.0219622769,A,PLT_transfer_03,2014_Apr_01_1410,
ques.jpg,stim_03/b.jpg,stim_03/c.jpg,2,10,f,1,1,31,24,f,1,0.783120424659,03,P30,03,60.0219622769,A,PLT_transfer_03,2014_Apr_01_1410,
ques.jpg,stim_03/d.jpg,stim_03/b.jpg,1,11,j,1,2,32,10,j,1,0.899740429019,03,P30,03,60.0219622769,A,PLT_transfer_03,2014_Apr_01_1410,
ques.jpg,stim_03/a.jpg,stim_03/e.jpg,2,4,j,1,3,33,18,f,0,0.799758095051,03,P30,03,60.0219622769,A,PLT_transfer_03,2014_Apr_01_1410,
ques.jpg,stim_03/f.jpg,stim_03/e.jpg,1,9,f,1,4,34,8,j,0,0.883098427831,03,P30,03,60.0219622769,A,PLT_transfer_03,2014_Apr_01_1410,
ques.jpg,stim_03/f.jpg,stim_03/c.jpg,1,8,f,1,5,35,7,j,0,0.683140656085,03,P30,03,60.0219622769,A,PLT_transfer_03,2014_Apr_01_1410,
ques.jpg,stim_03/c.jpg,stim_03/f.jpg,2,8,j,1,6,36,22,f,0,0.749835038834,03,P30,03,60.0219622769,A,PLT_transfer_03,2014_Apr_01_1410,
ques.jpg,stim_03/d.jpg,stim_03/c.jpg,1,6,f,1,7,37,5,j,0,1.04970068797,03,P30,03,60.0219622769,A,PLT_transfer_03,2014_Apr_01_1410,
ques.jpg,stim_03/f.jpg,stim_03/d.jpg,1,15,j,1,8,38,14,j,1,0.64982430508,03,P30,03,60.0219622769,A,PLT_transfer_03,2014_Apr_01_1410,
ques.jpg,stim_03/b.jpg,stim_03/a.jpg,1,1,f,1,9,39,0,f,1,1.13301663296,03,P30,03,60.0219622769,A,PLT_transfer_03,2014_Apr_01_1410,
ques.jpg,stim_03/d.jpg,stim_03/e.jpg,2,14,f,1,10,40,28,j,0,0.716477403929,03,P30,03,60.0219622769,A,PLT_transfer_03,2014_Apr_01_1410,
ques.jpg,stim_03/b.jpg,stim_03/f.jpg,2,13,f,1,11,41,27,f,1,0.566602112766,03,P30,03,60.0219622769,A,PLT_transfer_03,2014_Apr_01_1410,
ques.jpg,stim_03/a.jpg,stim_03/b.jpg,2,1,j,1,12,42,15,j,1,0.583225987775,03,P30,03,60.0219622769,A,PLT_transfer_03,2014_Apr_01_1410,
ques.jpg,stim_03/d.jpg,stim_03/f.jpg,2,15,f,1,13,43,29,j,0,0.633182231712,03,P30,03,60.0219622769,A,PLT_transfer_03,2014_Apr_01_1410,
ques.jpg,stim_03/c.jpg,stim_03/b.jpg,1,10,j,1,14,44,9,j,1,0.849772630281,03,P30,03,60.0219622769,A,PLT_transfer_03,2014_Apr_01_1410,
ques.jpg,stim_03/e.jpg,stim_03/a.jpg,1,4,f,1,15,45,3,j,0,0.599883615912,03,P30,03,60.0219622769,A,PLT_transfer_03,2014_Apr_01_1410,
ques.jpg,stim_03/d.jpg,stim_03/a.jpg,1,3,f,1,16,46,2,j,0,0.666512540507,03,P30,03,60.0219622769,A,PLT_transfer_03,2014_Apr_01_1410,
ques.jpg,stim_03/e.jpg,stim_03/c.jpg,1,7,f,1,17,47,6,j,0,0.516565646875,03,P30,03,60.0219622769,A,PLT_transfer_03,2014_Apr_01_1410,
ques.jpg,stim_03/c.jpg,stim_03/d.jpg,2,6,j,1,18,48,20,f,0,0.683157440921,03,P30,03,60.0219622769,A,PLT_transfer_03,2014_Apr_01_1410,
ques.jpg,stim_03/c.jpg,stim_03/e.jpg,2,7,j,1,19,49,21,f,0,0.749804278164,03,P30,03,60.0219622769,A,PLT_transfer_03,2014_Apr_01_1410,
ques.jpg,stim_03/e.jpg,stim_03/f.jpg,2,9,j,1,20,50,23,j,1,0.466575580635,03,P30,03,60.0219622769,A,PLT_transfer_03,2014_Apr_01_1410,
ques.jpg,stim_03/b.jpg,stim_03/d.jpg,2,11,f,1,21,51,25,f,1,0.749759758198,03,P30,03,60.0219622769,A,PLT_transfer_03,2014_Apr_01_1410,
ques.jpg,stim_03/a.jpg,stim_03/d.jpg,2,3,j,1,22,52,17,f,0,0.649820903603,03,P30,03,60.0219622769,A,PLT_transfer_03,2014_Apr_01_1410,
ques.jpg,stim_03/e.jpg,stim_03/d.jpg,1,14,j,1,23,53,13,j,1,0.63316282434,03,P30,03,60.0219622769,A,PLT_transfer_03,2014_Apr_01_1410,
ques.jpg,stim_03/e.jpg,stim_03/b.jpg,1,12,j,1,24,54,11,j,1,0.583181374576,03,P30,03,60.0219622769,A,PLT_transfer_03,2014_Apr_01_1410,
ques.jpg,stim_03/a.jpg,stim_03/c.jpg,2,2,j,1,25,55,16,f,0,0.566520790069,03,P30,03,60.0219622769,A,PLT_transfer_03,2014_Apr_01_1410,
ques.jpg,stim_03/a.jpg,stim_03/f.jpg,2,5,j,1,26,56,19,f,0,0.666537409494,03,P30,03,60.0219622769,A,PLT_transfer_03,2014_Apr_01_1410,
ques.jpg,stim_03/b.jpg,stim_03/e.jpg,2,12,f,1,27,57,26,f,1,0.583319869776,03,P30,03,60.0219622769,A,PLT_transfer_03,2014_Apr_01_1410,
ques.jpg,stim_03/f.jpg,stim_03/b.jpg,1,13,j,1,28,58,12,j,1,0.533204087188,03,P30,03,60.0219622769,A,PLT_transfer_03,2014_Apr_01_1410,
ques.jpg,stim_03/c.jpg,stim_03/a.jpg,1,2,f,1,29,59,1,f,1,0.599854368013,03,P30,03,60.0219622769,A,PLT_transfer_03,2014_Apr_01_1410,
ques.jpg,stim_03/b.jpg,stim_03/e.jpg,2,12,f,2,0,60,26,f,1,0.716455629657,03,P30,03,60.0219622769,A,PLT_transfer_03,2014_Apr_01_1410,
ques.jpg,stim_03/a.jpg,stim_03/d.jpg,2,3,j,2,1,61,17,f,0,0.833103315013,03,P30,03,60.0219622769,A,PLT_transfer_03,2014_Apr_01_1410,
ques.jpg,stim_03/c.jpg,stim_03/a.jpg,1,2,f,2,2,62,1,f,1,0.566512835241,03,P30,03,60.0219622769,A,PLT_transfer_03,2014_Apr_01_1410,
ques.jpg,stim_03/c.jpg,stim_03/b.jpg,1,10,j,2,3,63,9,j,1,0.899737511748,03,P30,03,60.0219622769,A,PLT_transfer_03,2014_Apr_01_1410,
ques.jpg,stim_03/a.jpg,stim_03/b.jpg,2,1,j,2,4,64,15,j,1,0.783124006586,03,P30,03,60.0219622769,A,PLT_transfer_03,2014_Apr_01_1410,
ques.jpg,stim_03/d.jpg,stim_03/a.jpg,1,3,f,2,5,65,2,j,0,0.699802028556,03,P30,03,60.0219622769,A,PLT_transfer_03,2014_Apr_01_1410,
ques.jpg,stim_03/a.jpg,stim_03/e.jpg,2,4,j,2,6,66,18,f,0,0.783106361607,03,P30,03,60.0219622769,A,PLT_transfer_03,2014_Apr_01_1410,
ques.jpg,stim_03/c.jpg,stim_03/f.jpg,2,8,j,2,7,67,22,f,0,0.799790227141,03,P30,03,60.0219622769,A,PLT_transfer_03,2014_Apr_01_1410,
ques.jpg,stim_03/e.jpg,stim_03/d.jpg,1,14,j,2,8,68,13,j,1,0.58315632514,03,P30,03,60.0219622769,A,PLT_transfer_03,2014_Apr_01_1410,
ques.jpg,stim_03/f.jpg,stim_03/c.jpg,1,8,f,2,9,69,7,j,0,0.483173906962,03,P30,03,60.0219622769,A,PLT_transfer_03,2014_Apr_01_1410,
ques.jpg,stim_03/c.jpg,stim_03/e.jpg,2,7,j,2,10,70,21,f,0,0.566519662259,03,P30,03,60.0219622769,A,PLT_transfer_03,2014_Apr_01_1410,
ques.jpg,stim_03/d.jpg,stim_03/e.jpg,2,14,f,2,11,71,28,j,0,0.483219780302,03,P30,03,60.0219622769,A,PLT_transfer_03,2014_Apr_01_1410,
ques.jpg,stim_03/b.jpg,stim_03/d.jpg,2,11,f,2,12,72,25,f,1,0.816514600642,03,P30,03,60.0219622769,A,PLT_transfer_03,2014_Apr_01_1410,
ques.jpg,stim_03/b.jpg,stim_03/f.jpg,2,13,f,2,13,73,27,f,1,0.566517782573,03,P30,03,60.0219622769,A,PLT_transfer_03,2014_Apr_01_1410,
ques.jpg,stim_03/f.jpg,stim_03/b.jpg,1,13,j,2,14,74,12,j,1,0.516551785325,03,P30,03,60.0219622769,A,PLT_transfer_03,2014_Apr_01_1410,
ques.jpg,stim_03/e.jpg,stim_03/a.jpg,1,4,f,2,15,75,3,j,0,0.733171774648,03,P30,03,60.0219622769,A,PLT_transfer_03,2014_Apr_01_1410,
ques.jpg,stim_03/b.jpg,stim_03/a.jpg,1,1,f,2,16,76,0,f,1,0.533214333726,03,P30,03,60.0219622769,A,PLT_transfer_03,2014_Apr_01_1410,
ques.jpg,stim_03/d.jpg,stim_03/b.jpg,1,11,j,2,17,77,10,j,1,0.933043547041,03,P30,03,60.0219622769,A,PLT_transfer_03,2014_Apr_01_1410,
ques.jpg,stim_03/e.jpg,stim_03/b.jpg,1,12,j,2,18,78,11,j,1,0.633154168766,03,P30,03,60.0219622769,A,PLT_transfer_03,2014_Apr_01_1410,
ques.jpg,stim_03/d.jpg,stim_03/c.jpg,1,6,f,2,19,79,5,j,0,0.633198487229,03,P30,03,60.0219622769,A,PLT_transfer_03,2014_Apr_01_1410,
ques.jpg,stim_03/a.jpg,stim_03/c.jpg,2,2,j,2,20,80,16,f,0,0.449906469876,03,P30,03,60.0219622769,A,PLT_transfer_03,2014_Apr_01_1410,
ques.jpg,stim_03/f.jpg,stim_03/a.jpg,1,5,f,2,21,81,4,j,0,0.583161140142,03,P30,03,60.0219622769,A,PLT_transfer_03,2014_Apr_01_1410,
ques.jpg,stim_03/e.jpg,stim_03/c.jpg,1,7,f,2,22,82,6,j,0,0.733134352374,03,P30,03,60.0219622769,A,PLT_transfer_03,2014_Apr_01_1410,
ques.jpg,stim_03/c.jpg,stim_03/d.jpg,2,6,j,2,23,83,20,f,0,0.583193627115,03,P30,03,60.0219622769,A,PLT_transfer_03,2014_Apr_01_1410,
ques.jpg,stim_03/e.jpg,stim_03/f.jpg,2,9,j,2,24,84,23,f,0,0.649855348456,03,P30,03,60.0219622769,A,PLT_transfer_03,2014_Apr_01_1410,
ques.jpg,stim_03/a.jpg,stim_03/f.jpg,2,5,j,2,25,85,19,f,0,0.633160030376,03,P30,03,60.0219622769,A,PLT_transfer_03,2014_Apr_01_1410,
ques.jpg,stim_03/f.jpg,stim_03/d.jpg,1,15,j,2,26,86,14,j,1,0.466521764498,03,P30,03,60.0219622769,A,PLT_transfer_03,2014_Apr_01_1410,
ques.jpg,stim_03/d.jpg,stim_03/f.jpg,2,15,f,2,27,87,29,f,1,0.46657796558,03,P30,03,60.0219622769,A,PLT_transfer_03,2014_Apr_01_1410,
ques.jpg,stim_03/b.jpg,stim_03/c.jpg,2,10,f,2,28,88,24,f,1,0.616519722407,03,P30,03,60.0219622769,A,PLT_transfer_03,2014_Apr_01_1410,
ques.jpg,stim_03/f.jpg,stim_03/e.jpg,1,9,f,2,29,89,8,j,0,0.566514167563,03,P30,03,60.0219622769,A,PLT_transfer_03,2014_Apr_01_1410,
ques.jpg,stim_03/b.jpg,stim_03/c.jpg,2,10,f,3,0,90,24,f,1,0.66649220081,03,P30,03,60.0219622769,A,PLT_transfer_03,2014_Apr_01_1410,
ques.jpg,stim_03/a.jpg,stim_03/e.jpg,2,4,j,3,1,91,18,f,0,0.599857282276,03,P30,03,60.0219622769,A,PLT_transfer_03,2014_Apr_01_1410,
ques.jpg,stim_03/d.jpg,stim_03/f.jpg,2,15,f,3,2,92,29,j,0,0.699834614778,03,P30,03,60.0219622769,A,PLT_transfer_03,2014_Apr_01_1410,
ques.jpg,stim_03/f.jpg,stim_03/d.jpg,1,15,j,3,3,93,14,j,1,0.566519427673,03,P30,03,60.0219622769,A,PLT_transfer_03,2014_Apr_01_1410,
ques.jpg,stim_03/c.jpg,stim_03/e.jpg,2,7,j,3,4,94,21,f,0,0.733142914715,03,P30,03,60.0219622769,A,PLT_transfer_03,2014_Apr_01_1410,
ques.jpg,stim_03/a.jpg,stim_03/b.jpg,2,1,j,3,5,95,15,j,1,0.816471987428,03,P30,03,60.0219622769,A,PLT_transfer_03,2014_Apr_01_1410,
ques.jpg,stim_03/b.jpg,stim_03/a.jpg,1,1,f,3,6,96,0,f,1,0.666481220443,03,P30,03,60.0219622769,A,PLT_transfer_03,2014_Apr_01_1410,
ques.jpg,stim_03/e.jpg,stim_03/a.jpg,1,4,f,3,7,97,3,j,0,0.683140207969,03,P30,03,60.0219622769,A,PLT_transfer_03,2014_Apr_01_1410,
ques.jpg,stim_03/b.jpg,stim_03/e.jpg,2,12,f,3,8,98,26,f,1,0.699835255374,03,P30,03,60.0219622769,A,PLT_transfer_03,2014_Apr_01_1410,
ques.jpg,stim_03/c.jpg,stim_03/a.jpg,1,2,f,3,9,99,1,f,1,0.733087600845,03,P30,03,60.0219622769,A,PLT_transfer_03,2014_Apr_01_1410,
ques.jpg,stim_03/e.jpg,stim_03/c.jpg,1,7,f,3,10,100,6,j,0,0.483230905031,03,P30,03,60.0219622769,A,PLT_transfer_03,2014_Apr_01_1410,
ques.jpg,stim_03/a.jpg,stim_03/f.jpg,2,5,j,3,11,101,19,f,0,0.716438610236,03,P30,03,60.0219622769,A,PLT_transfer_03,2014_Apr_01_1410,
ques.jpg,stim_03/a.jpg,stim_03/d.jpg,2,3,j,3,12,102,17,f,0,0.833075369358,03,P30,03,60.0219622769,A,PLT_transfer_03,2014_Apr_01_1410,
ques.jpg,stim_03/e.jpg,stim_03/b.jpg,1,12,j,3,13,103,11,j,1,0.583248709409,03,P30,03,60.0219622769,A,PLT_transfer_03,2014_Apr_01_1410,
ques.jpg,stim_03/f.jpg,stim_03/c.jpg,1,8,f,3,14,104,7,j,0,0.449906620251,03,P30,03,60.0219622769,A,PLT_transfer_03,2014_Apr_01_1410,
ques.jpg,stim_03/c.jpg,stim_03/d.jpg,2,6,j,3,15,105,20,f,0,0.633201690213,03,P30,03,60.0219622769,A,PLT_transfer_03,2014_Apr_01_1410,
ques.jpg,stim_03/d.jpg,stim_03/e.jpg,2,14,f,3,16,106,28,j,0,0.549863291253,03,P30,03,60.0219622769,A,PLT_transfer_03,2014_Apr_01_1410,
ques.jpg,stim_03/e.jpg,stim_03/f.jpg,2,9,j,3,17,107,23,j,1,0.583183798619,03,P30,03,60.0219622769,A,PLT_transfer_03,2014_Apr_01_1410,
ques.jpg,stim_03/d.jpg,stim_03/c.jpg,1,6,f,3,18,108,5,j,0,0.616530777965,03,P30,03,60.0219622769,A,PLT_transfer_03,2014_Apr_01_1410,
ques.jpg,stim_03/f.jpg,stim_03/e.jpg,1,9,f,3,19,109,8,j,0,0.483233683957,03,P30,03,60.0219622769,A,PLT_transfer_03,2014_Apr_01_1410,
ques.jpg,stim_03/b.jpg,stim_03/f.jpg,2,13,f,3,20,110,27,f,1,0.599861721341,03,P30,03,60.0219622769,A,PLT_transfer_03,2014_Apr_01_1410,
ques.jpg,stim_03/c.jpg,stim_03/b.jpg,1,10,j,3,21,111,9,f,0,0.833109711957,03,P30,03,60.0219622769,A,PLT_transfer_03,2014_Apr_01_1410,
ques.jpg,stim_03/d.jpg,stim_03/b.jpg,1,11,j,3,22,112,10,j,1,0.48321573522,03,P30,03,60.0219622769,A,PLT_transfer_03,2014_Apr_01_1410,
ques.jpg,stim_03/a.jpg,stim_03/c.jpg,2,2,j,3,23,113,16,f,0,0.633166941601,03,P30,03,60.0219622769,A,PLT_transfer_03,2014_Apr_01_1410,
ques.jpg,stim_03/f.jpg,stim_03/b.jpg,1,13,j,3,24,114,12,j,1,0.43323351253,03,P30,03,60.0219622769,A,PLT_transfer_03,2014_Apr_01_1410,
ques.jpg,stim_03/f.jpg,stim_03/a.jpg,1,5,f,3,25,115,4,j,0,0.466542167352,03,P30,03,60.0219622769,A,PLT_transfer_03,2014_Apr_01_1410,
ques.jpg,stim_03/b.jpg,stim_03/d.jpg,2,11,f,3,26,116,25,f,1,0.549864788986,03,P30,03,60.0219622769,A,PLT_transfer_03,2014_Apr_01_1410,
ques.jpg,stim_03/e.jpg,stim_03/d.jpg,1,14,j,3,27,117,13,j,1,0.599786939947,03,P30,03,60.0219622769,A,PLT_transfer_03,2014_Apr_01_1410,
ques.jpg,stim_03/c.jpg,stim_03/f.jpg,2,8,j,3,28,118,22,f,0,0.599829832859,03,P30,03,60.0219622769,A,PLT_transfer_03,2014_Apr_01_1410,
ques.jpg,stim_03/d.jpg,stim_03/a.jpg,1,3,f,3,29,119,2,j,0,0.633137296712,03,P30,03,60.0219622769,A,PLT_transfer_03,2014_Apr_01_1410,
ques.jpg,stim_03/a.jpg,stim_03/c.jpg,2,2,j,4,0,120,16,f,0,0.533204255607,03,P30,03,60.0219622769,A,PLT_transfer_03,2014_Apr_01_1410,
ques.jpg,stim_03/d.jpg,stim_03/a.jpg,1,3,f,4,1,121,2,j,0,0.533172162615,03,P30,03,60.0219622769,A,PLT_transfer_03,2014_Apr_01_1410,
ques.jpg,stim_03/a.jpg,stim_03/d.jpg,2,3,j,4,2,122,17,f,0,0.616520011127,03,P30,03,60.0219622769,A,PLT_transfer_03,2014_Apr_01_1410,
ques.jpg,stim_03/a.jpg,stim_03/b.jpg,2,1,j,4,3,123,15,j,1,0.683144896655,03,P30,03,60.0219622769,A,PLT_transfer_03,2014_Apr_01_1410,
ques.jpg,stim_03/b.jpg,stim_03/a.jpg,1,1,f,4,4,124,0,f,1,0.549909970602,03,P30,03,60.0219622769,A,PLT_transfer_03,2014_Apr_01_1410,
ques.jpg,stim_03/f.jpg,stim_03/d.jpg,1,15,j,4,5,125,14,j,1,0.466556254464,03,P30,03,60.0219622769,A,PLT_transfer_03,2014_Apr_01_1410,
ques.jpg,stim_03/f.jpg,stim_03/c.jpg,1,8,f,4,6,126,7,j,0,0.533198309787,03,P30,03,60.0219622769,A,PLT_transfer_03,2014_Apr_01_1410,
ques.jpg,stim_03/d.jpg,stim_03/b.jpg,1,11,j,4,7,127,10,j,1,0.583174884399,03,P30,03,60.0219622769,A,PLT_transfer_03,2014_Apr_01_1410,
ques.jpg,stim_03/f.jpg,stim_03/e.jpg,1,9,f,4,8,128,8,j,0,0.499860271728,03,P30,03,60.0219622769,A,PLT_transfer_03,2014_Apr_01_1410,
ques.jpg,stim_03/b.jpg,stim_03/c.jpg,2,10,f,4,9,129,24,f,1,0.816467936332,03,P30,03,60.0219622769,A,PLT_transfer_03,2014_Apr_01_1410,
ques.jpg,stim_03/d.jpg,stim_03/c.jpg,1,6,f,4,10,130,5,j,0,0.599861796528,03,P30,03,60.0219622769,A,PLT_transfer_03,2014_Apr_01_1410,
ques.jpg,stim_03/f.jpg,stim_03/b.jpg,1,13,j,4,11,131,12,j,1,0.51648474222,03,P30,03,60.0219622769,A,PLT_transfer_03,2014_Apr_01_1410,
ques.jpg,stim_03/c.jpg,stim_03/e.jpg,2,7,j,4,12,132,21,f,0,0.616509993159,03,P30,03,60.0219622769,A,PLT_transfer_03,2014_Apr_01_1410,
ques.jpg,stim_03/e.jpg,stim_03/b.jpg,1,12,j,4,13,133,11,j,1,0.633156421381,03,P30,03,60.0219622769,A,PLT_transfer_03,2014_Apr_01_1410,
ques.jpg,stim_03/c.jpg,stim_03/b.jpg,1,10,j,4,14,134,9,f,0,0.549916911903,03,P30,03,60.0219622769,A,PLT_transfer_03,2014_Apr_01_1410,
ques.jpg,stim_03/e.jpg,stim_03/a.jpg,1,4,f,4,15,135,3,j,0,0.816475479131,03,P30,03,60.0219622769,A,PLT_transfer_03,2014_Apr_01_1410,
ques.jpg,stim_03/c.jpg,stim_03/f.jpg,2,8,j,4,16,136,22,f,0,0.683167335584,03,P30,03,60.0219622769,A,PLT_transfer_03,2014_Apr_01_1410,
ques.jpg,stim_03/a.jpg,stim_03/e.jpg,2,4,j,4,17,137,18,f,0,0.549868843092,03,P30,03,60.0219622769,A,PLT_transfer_03,2014_Apr_01_1410,
ques.jpg,stim_03/b.jpg,stim_03/f.jpg,2,13,f,4,18,138,27,f,1,0.616509812709,03,P30,03,60.0219622769,A,PLT_transfer_03,2014_Apr_01_1410,
ques.jpg,stim_03/c.jpg,stim_03/a.jpg,1,2,f,4,19,139,1,f,1,0.616516811151,03,P30,03,60.0219622769,A,PLT_transfer_03,2014_Apr_01_1410,
ques.jpg,stim_03/b.jpg,stim_03/e.jpg,2,12,f,4,20,140,26,f,1,0.916409708198,03,P30,03,60.0219622769,A,PLT_transfer_03,2014_Apr_01_1410,
ques.jpg,stim_03/f.jpg,stim_03/a.jpg,1,5,f,4,21,141,4,j,0,0.44994444553,03,P30,03,60.0219622769,A,PLT_transfer_03,2014_Apr_01_1410,
ques.jpg,stim_03/a.jpg,stim_03/f.jpg,2,5,j,4,22,142,19,f,0,0.599859778497,03,P30,03,60.0219622769,A,PLT_transfer_03,2014_Apr_01_1410,
ques.jpg,stim_03/e.jpg,stim_03/d.jpg,1,14,j,4,23,143,13,j,1,0.499848596627,03,P30,03,60.0219622769,A,PLT_transfer_03,2014_Apr_01_1410,
ques.jpg,stim_03/d.jpg,stim_03/f.jpg,2,15,f,4,24,144,29,j,0,0.633124965978,03,P30,03,60.0219622769,A,PLT_transfer_03,2014_Apr_01_1410,
ques.jpg,stim_03/b.jpg,stim_03/d.jpg,2,11,f,4,25,145,25,f,1,0.599921666754,03,P30,03,60.0219622769,A,PLT_transfer_03,2014_Apr_01_1410,
ques.jpg,stim_03/d.jpg,stim_03/e.jpg,2,14,f,4,26,146,28,j,0,0.549858957452,03,P30,03,60.0219622769,A,PLT_transfer_03,2014_Apr_01_1410,
ques.jpg,stim_03/e.jpg,stim_03/c.jpg,1,7,f,4,27,147,6,f,1,0.749800693227,03,P30,03,60.0219622769,A,PLT_transfer_03,2014_Apr_01_1410,
ques.jpg,stim_03/e.jpg,stim_03/f.jpg,2,9,j,4,28,148,23,j,1,0.533192821106,03,P30,03,60.0219622769,A,PLT_transfer_03,2014_Apr_01_1410,
ques.jpg,stim_03/c.jpg,stim_03/d.jpg,2,6,j,4,29,149,20,f,0,0.549870683679,03,P30,03,60.0219622769,A,PLT_transfer_03,2014_Apr_01_1410,
ques.jpg,stim_03/a.jpg,stim_03/e.jpg,2,4,j,5,0,150,18,f,0,0.599838458358,03,P30,03,60.0219622769,A,PLT_transfer_03,2014_Apr_01_1410,
ques.jpg,stim_03/c.jpg,stim_03/f.jpg,2,8,j,5,1,151,22,f,0,0.899718287832,03,P30,03,60.0219622769,A,PLT_transfer_03,2014_Apr_01_1410,
ques.jpg,stim_03/c.jpg,stim_03/d.jpg,2,6,j,5,2,152,20,f,0,0.883054374027,03,P30,03,60.0219622769,A,PLT_transfer_03,2014_Apr_01_1410,
ques.jpg,stim_03/b.jpg,stim_03/a.jpg,1,1,f,5,3,153,0,f,1,0.633201013527,03,P30,03,60.0219622769,A,PLT_transfer_03,2014_Apr_01_1410,
ques.jpg,stim_03/b.jpg,stim_03/d.jpg,2,11,f,5,4,154,25,j,0,0.549858169487,03,P30,03,60.0219622769,A,PLT_transfer_03,2014_Apr_01_1410,
ques.jpg,stim_03/d.jpg,stim_03/f.jpg,2,15,f,5,5,155,29,j,0,0.483170204736,03,P30,03,60.0219622769,A,PLT_transfer_03,2014_Apr_01_1410,
ques.jpg,stim_03/e.jpg,stim_03/a.jpg,1,4,f,5,6,156,3,f,1,0.516616524688,03,P30,03,60.0219622769,A,PLT_transfer_03,2014_Apr_01_1410,
ques.jpg,stim_03/d.jpg,stim_03/c.jpg,1,6,f,5,7,157,5,j,0,0.566493671477,03,P30,03,60.0219622769,A,PLT_transfer_03,2014_Apr_01_1410,
ques.jpg,stim_03/f.jpg,stim_03/e.jpg,1,9,f,5,8,158,8,j,0,0.566532639605,03,P30,03,60.0219622769,A,PLT_transfer_03,2014_Apr_01_1410,
ques.jpg,stim_03/f.jpg,stim_03/b.jpg,1,13,j,5,9,159,12,j,1,0.533209422486,03,P30,03,60.0219622769,A,PLT_transfer_03,2014_Apr_01_1410,
ques.jpg,stim_03/e.jpg,stim_03/b.jpg,1,12,j,5,10,160,11,j,1,0.583188330915,03,P30,03,60.0219622769,A,PLT_transfer_03,2014_Apr_01_1410,
ques.jpg,stim_03/f.jpg,stim_03/c.jpg,1,8,f,5,11,161,7,j,0,0.516554549215,03,P30,03,60.0219622769,A,PLT_transfer_03,2014_Apr_01_1410,
ques.jpg,stim_03/e.jpg,stim_03/f.jpg,2,9,j,5,12,162,23,j,1,0.599780735483,03,P30,03,60.0219622769,A,PLT_transfer_03,2014_Apr_01_1410,
ques.jpg,stim_03/e.jpg,stim_03/c.jpg,1,7,f,5,13,163,6,f,1,0.599829429854,03,P30,03,60.0219622769,A,PLT_transfer_03,2014_Apr_01_1410,
ques.jpg,stim_03/d.jpg,stim_03/e.jpg,2,14,f,5,14,164,28,j,0,0.749761682995,03,P30,03,60.0219622769,A,PLT_transfer_03,2014_Apr_01_1410,
ques.jpg,stim_03/d.jpg,stim_03/a.jpg,1,3,f,5,15,165,2,f,1,0.466660921346,03,P30,03,60.0219622769,A,PLT_transfer_03,2014_Apr_01_1410,
ques.jpg,stim_03/a.jpg,stim_03/f.jpg,2,5,j,5,16,166,19,f,0,0.649842088405,03,P30,03,60.0219622769,A,PLT_transfer_03,2014_Apr_01_1410,
ques.jpg,stim_03/b.jpg,stim_03/c.jpg,2,10,f,5,17,167,24,j,0,0.799764955151,03,P30,03,60.0219622769,A,PLT_transfer_03,2014_Apr_01_1410,
ques.jpg,stim_03/f.jpg,stim_03/d.jpg,1,15,j,5,18,168,14,j,1,0.499880157292,03,P30,03,60.0219622769,A,PLT_transfer_03,2014_Apr_01_1410,
ques.jpg,stim_03/b.jpg,stim_03/e.jpg,2,12,f,5,19,169,26,f,1,0.53318642717,03,P30,03,60.0219622769,A,PLT_transfer_03,2014_Apr_01_1410,
ques.jpg,stim_03/c.jpg,stim_03/b.jpg,1,10,j,5,20,170,9,f,0,0.599878424974,03,P30,03,60.0219622769,A,PLT_transfer_03,2014_Apr_01_1410,
ques.jpg,stim_03/c.jpg,stim_03/a.jpg,1,2,f,5,21,171,1,j,0,0.616541520741,03,P30,03,60.0219622769,A,PLT_transfer_03,2014_Apr_01_1410,
ques.jpg,stim_03/f.jpg,stim_03/a.jpg,1,5,f,5,22,172,4,j,0,0.466554359742,03,P30,03,60.0219622769,A,PLT_transfer_03,2014_Apr_01_1410,
ques.jpg,stim_03/a.jpg,stim_03/d.jpg,2,3,j,5,23,173,17,f,0,0.649822593815,03,P30,03,60.0219622769,A,PLT_transfer_03,2014_Apr_01_1410,
ques.jpg,stim_03/a.jpg,stim_03/c.jpg,2,2,j,5,24,174,16,j,1,0.966408760836,03,P30,03,60.0219622769,A,PLT_transfer_03,2014_Apr_01_1410,
ques.jpg,stim_03/e.jpg,stim_03/d.jpg,1,14,j,5,25,175,13,j,1,0.549874247562,03,P30,03,60.0219622769,A,PLT_transfer_03,2014_Apr_01_1410,
ques.jpg,stim_03/d.jpg,stim_03/b.jpg,1,11,j,5,26,176,10,j,1,0.549863267193,03,P30,03,60.0219622769,A,PLT_transfer_03,2014_Apr_01_1410,
ques.jpg,stim_03/b.jpg,stim_03/f.jpg,2,13,f,5,27,177,27,f,1,0.599821384802,03,P30,03,60.0219622769,A,PLT_transfer_03,2014_Apr_01_1410,
ques.jpg,stim_03/a.jpg,stim_03/b.jpg,2,1,j,5,28,178,15,j,1,0.583182688852,03,P30,03,60.0219622769,A,PLT_transfer_03,2014_Apr_01_1410,
ques.jpg,stim_03/c.jpg,stim_03/e.jpg,2,7,j,5,29,179,21,f,0,0.74979264216,03,P30,03,60.0219622769,A,PLT_transfer_03,2014_Apr_01_1410,
