Fb3,Fb2,Fb1,Symbol2,Symbol1,PosCond,Pair,Correct,trials.thisRepN,trials.thisTrialN,trials.thisN,trials.thisIndex,Response.keys,Response.corr,Response.rt,Version,Session Number,frameRate,expName,StimCondition,date,Participant,
stim_fb/ques.jpg,stim_fb/negf.jpg,stim_fb/posf.jpg,stim_01/d.jpg,stim_01/c.jpg,1,2,f,0,0,0,24,j,0,1.63281092619,01,01,60.0237167727,PLT_learning_01,N,2014_Jan_20_1734,P01,
stim_fb/ques.jpg,stim_fb/negf.jpg,stim_fb/posf.jpg,stim_01/b.jpg,stim_01/a.jpg,1,1,f,0,1,1,1,f,1,1.43290847697,01,01,60.0237167727,PLT_learning_01,N,2014_Jan_20_1734,P01,
stim_fb/ques.jpg,stim_fb/negf.jpg,stim_fb/posf.jpg,stim_01/d.jpg,stim_01/c.jpg,1,2,f,0,2,2,20,None,0,,01,01,60.0237167727,PLT_learning_01,N,2014_Jan_20_1734,P01,
stim_fb/ques.jpg,stim_fb/negf.jpg,stim_fb/posf.jpg,stim_01/b.jpg,stim_01/a.jpg,1,1,f,0,3,3,7,f,1,1.14964977087,01,01,60.0237167727,PLT_learning_01,N,2014_Jan_20_1734,P01,
stim_fb/ques.jpg,stim_fb/negf.jpg,stim_fb/posf.jpg,stim_01/a.jpg,stim_01/b.jpg,2,1,j,0,4,4,11,j,1,0.866431521449,01,01,60.0237167727,PLT_learning_01,N,2014_Jan_20_1734,P01,
stim_fb/ques.jpg,stim_fb/posf.jpg,stim_fb/negf.jpg,stim_01/a.jpg,stim_01/b.jpg,2,1,j,0,5,5,18,j,1,0.699828747795,01,01,60.0237167727,PLT_learning_01,N,2014_Jan_20_1734,P01,
stim_fb/ques.jpg,stim_fb/negf.jpg,stim_fb/posf.jpg,stim_01/c.jpg,stim_01/d.jpg,2,2,j,0,6,6,31,f,0,1.14965218287,01,01,60.0237167727,PLT_learning_01,N,2014_Jan_20_1734,P01,
stim_fb/ques.jpg,stim_fb/posf.jpg,stim_fb/negf.jpg,stim_01/c.jpg,stim_01/d.jpg,2,2,j,0,7,7,38,j,1,0.983059685793,01,01,60.0237167727,PLT_learning_01,N,2014_Jan_20_1734,P01,
stim_fb/ques.jpg,stim_fb/negf.jpg,stim_fb/posf.jpg,stim_01/d.jpg,stim_01/c.jpg,1,2,f,0,8,8,21,j,0,0.899761223745,01,01,60.0237167727,PLT_learning_01,N,2014_Jan_20_1734,P01,
stim_fb/ques.jpg,stim_fb/negf.jpg,stim_fb/posf.jpg,stim_01/e.jpg,stim_01/f.jpg,2,3,j,0,9,9,52,f,0,0.966408508175,01,01,60.0237167727,PLT_learning_01,N,2014_Jan_20_1734,P01,
stim_fb/ques.jpg,stim_fb/posf.jpg,stim_fb/negf.jpg,stim_01/d.jpg,stim_01/c.jpg,1,2,f,0,10,10,28,j,0,0.783106124367,01,01,60.0237167727,PLT_learning_01,N,2014_Jan_20_1734,P01,
stim_fb/ques.jpg,stim_fb/negf.jpg,stim_fb/posf.jpg,stim_01/c.jpg,stim_01/d.jpg,2,2,j,0,11,11,32,j,1,1.1662502062,01,01,60.0237167727,PLT_learning_01,N,2014_Jan_20_1734,P01,
stim_fb/ques.jpg,stim_fb/negf.jpg,stim_fb/posf.jpg,stim_01/e.jpg,stim_01/f.jpg,2,3,j,0,12,12,53,j,1,0.88309222678,01,01,60.0237167727,PLT_learning_01,N,2014_Jan_20_1734,P01,
stim_fb/ques.jpg,stim_fb/posf.jpg,stim_fb/negf.jpg,stim_01/e.jpg,stim_01/f.jpg,2,3,j,0,13,13,56,j,1,0.783118223479,01,01,60.0237167727,PLT_learning_01,N,2014_Jan_20_1734,P01,
stim_fb/ques.jpg,stim_fb/negf.jpg,stim_fb/posf.jpg,stim_01/a.jpg,stim_01/b.jpg,2,1,j,0,14,14,15,j,1,1.14969983045,01,01,60.0237167727,PLT_learning_01,N,2014_Jan_20_1734,P01,
stim_fb/ques.jpg,stim_fb/posf.jpg,stim_fb/negf.jpg,stim_01/d.jpg,stim_01/c.jpg,1,2,f,0,15,15,27,f,1,1.3662326064,01,01,60.0237167727,PLT_learning_01,N,2014_Jan_20_1734,P01,
stim_fb/ques.jpg,stim_fb/posf.jpg,stim_fb/negf.jpg,stim_01/b.jpg,stim_01/a.jpg,1,1,f,0,16,16,8,f,1,1.01633107597,01,01,60.0237167727,PLT_learning_01,N,2014_Jan_20_1734,P01,
stim_fb/ques.jpg,stim_fb/negf.jpg,stim_fb/posf.jpg,stim_01/c.jpg,stim_01/d.jpg,2,2,j,0,17,17,30,j,1,1.38292376552,01,01,60.0237167727,PLT_learning_01,N,2014_Jan_20_1734,P01,
stim_fb/ques.jpg,stim_fb/posf.jpg,stim_fb/negf.jpg,stim_01/e.jpg,stim_01/f.jpg,2,3,j,0,18,18,58,j,1,0.933111885204,01,01,60.0237167727,PLT_learning_01,N,2014_Jan_20_1734,P01,
stim_fb/ques.jpg,stim_fb/negf.jpg,stim_fb/posf.jpg,stim_01/b.jpg,stim_01/a.jpg,1,1,f,0,19,19,5,f,1,1.13300082179,01,01,60.0237167727,PLT_learning_01,N,2014_Jan_20_1734,P01,
stim_fb/ques.jpg,stim_fb/posf.jpg,stim_fb/negf.jpg,stim_01/f.jpg,stim_01/e.jpg,1,3,f,0,20,20,48,f,1,0.783123621914,01,01,60.0237167727,PLT_learning_01,N,2014_Jan_20_1734,P01,
stim_fb/ques.jpg,stim_fb/negf.jpg,stim_fb/posf.jpg,stim_01/d.jpg,stim_01/c.jpg,1,2,f,0,21,21,23,j,0,0.683154869682,01,01,60.0237167727,PLT_learning_01,N,2014_Jan_20_1734,P01,
stim_fb/ques.jpg,stim_fb/negf.jpg,stim_fb/posf.jpg,stim_01/d.jpg,stim_01/c.jpg,1,2,f,0,22,22,22,f,1,1.16634224727,01,01,60.0237167727,PLT_learning_01,N,2014_Jan_20_1734,P01,
stim_fb/ques.jpg,stim_fb/negf.jpg,stim_fb/posf.jpg,stim_01/b.jpg,stim_01/a.jpg,1,1,f,0,23,23,3,f,1,1.33296063277,01,01,60.0237167727,PLT_learning_01,N,2014_Jan_20_1734,P01,
stim_fb/ques.jpg,stim_fb/negf.jpg,stim_fb/posf.jpg,stim_01/f.jpg,stim_01/e.jpg,1,3,f,0,24,24,42,f,1,0.999713407743,01,01,60.0237167727,PLT_learning_01,N,2014_Jan_20_1734,P01,
stim_fb/ques.jpg,stim_fb/negf.jpg,stim_fb/posf.jpg,stim_01/c.jpg,stim_01/d.jpg,2,2,j,0,25,25,36,f,0,0.999712649857,01,01,60.0237167727,PLT_learning_01,N,2014_Jan_20_1734,P01,
stim_fb/ques.jpg,stim_fb/negf.jpg,stim_fb/posf.jpg,stim_01/e.jpg,stim_01/f.jpg,2,3,j,0,26,26,55,j,1,0.849715030281,01,01,60.0237167727,PLT_learning_01,N,2014_Jan_20_1734,P01,
stim_fb/ques.jpg,stim_fb/negf.jpg,stim_fb/posf.jpg,stim_01/f.jpg,stim_01/e.jpg,1,3,f,0,27,27,45,f,1,0.616510698,01,01,60.0237167727,PLT_learning_01,N,2014_Jan_20_1734,P01,
stim_fb/ques.jpg,stim_fb/negf.jpg,stim_fb/posf.jpg,stim_01/a.jpg,stim_01/b.jpg,2,1,j,0,28,28,13,f,0,1.34956635527,01,01,60.0237167727,PLT_learning_01,N,2014_Jan_20_1734,P01,
stim_fb/ques.jpg,stim_fb/negf.jpg,stim_fb/posf.jpg,stim_01/b.jpg,stim_01/a.jpg,1,1,f,0,29,29,6,f,1,1.19969528163,01,01,60.0237167727,PLT_learning_01,N,2014_Jan_20_1734,P01,
stim_fb/ques.jpg,stim_fb/negf.jpg,stim_fb/posf.jpg,stim_01/e.jpg,stim_01/f.jpg,2,3,j,0,30,30,50,j,1,0.699810760028,01,01,60.0237167727,PLT_learning_01,N,2014_Jan_20_1734,P01,
stim_fb/ques.jpg,stim_fb/negf.jpg,stim_fb/posf.jpg,stim_01/a.jpg,stim_01/b.jpg,2,1,j,0,31,31,14,j,1,0.983058191073,01,01,60.0237167727,PLT_learning_01,N,2014_Jan_20_1734,P01,
stim_fb/ques.jpg,stim_fb/negf.jpg,stim_fb/posf.jpg,stim_01/d.jpg,stim_01/c.jpg,1,2,f,0,32,32,26,f,1,1.09949751544,01,01,60.0237167727,PLT_learning_01,N,2014_Jan_20_1734,P01,
stim_fb/ques.jpg,stim_fb/negf.jpg,stim_fb/posf.jpg,stim_01/c.jpg,stim_01/d.jpg,2,2,j,0,33,33,35,j,1,0.816421297504,01,01,60.0237167727,PLT_learning_01,N,2014_Jan_20_1734,P01,
stim_fb/ques.jpg,stim_fb/negf.jpg,stim_fb/posf.jpg,stim_01/f.jpg,stim_01/e.jpg,1,3,f,0,34,34,44,f,1,0.566516636278,01,01,60.0237167727,PLT_learning_01,N,2014_Jan_20_1734,P01,
stim_fb/ques.jpg,stim_fb/posf.jpg,stim_fb/negf.jpg,stim_01/d.jpg,stim_01/c.jpg,1,2,f,0,35,35,29,f,1,0.816434425175,01,01,60.0237167727,PLT_learning_01,N,2014_Jan_20_1734,P01,
stim_fb/ques.jpg,stim_fb/posf.jpg,stim_fb/negf.jpg,stim_01/e.jpg,stim_01/f.jpg,2,3,j,0,36,36,59,j,1,0.549861714341,01,01,60.0237167727,PLT_learning_01,N,2014_Jan_20_1734,P01,
stim_fb/ques.jpg,stim_fb/negf.jpg,stim_fb/posf.jpg,stim_01/a.jpg,stim_01/b.jpg,2,1,j,0,37,37,17,j,1,0.733140140524,01,01,60.0237167727,PLT_learning_01,N,2014_Jan_20_1734,P01,
stim_fb/ques.jpg,stim_fb/posf.jpg,stim_fb/negf.jpg,stim_01/c.jpg,stim_01/d.jpg,2,2,j,0,38,38,37,j,1,0.799791033935,01,01,60.0237167727,PLT_learning_01,N,2014_Jan_20_1734,P01,
stim_fb/ques.jpg,stim_fb/negf.jpg,stim_fb/posf.jpg,stim_01/a.jpg,stim_01/b.jpg,2,1,j,0,39,39,16,j,1,0.733140155562,01,01,60.0237167727,PLT_learning_01,N,2014_Jan_20_1734,P01,
stim_fb/ques.jpg,stim_fb/negf.jpg,stim_fb/posf.jpg,stim_01/f.jpg,stim_01/e.jpg,1,3,f,0,40,40,41,f,1,0.583186532483,01,01,60.0237167727,PLT_learning_01,N,2014_Jan_20_1734,P01,
stim_fb/ques.jpg,stim_fb/posf.jpg,stim_fb/negf.jpg,stim_01/f.jpg,stim_01/e.jpg,1,3,f,0,41,41,47,f,1,0.499876115683,01,01,60.0237167727,PLT_learning_01,N,2014_Jan_20_1734,P01,
stim_fb/ques.jpg,stim_fb/negf.jpg,stim_fb/posf.jpg,stim_01/b.jpg,stim_01/a.jpg,1,1,f,0,42,42,2,f,1,0.866446122788,01,01,60.0237167727,PLT_learning_01,N,2014_Jan_20_1734,P01,
stim_fb/ques.jpg,stim_fb/negf.jpg,stim_fb/posf.jpg,stim_01/f.jpg,stim_01/e.jpg,1,3,f,0,43,43,40,f,1,0.766499674064,01,01,60.0237167727,PLT_learning_01,N,2014_Jan_20_1734,P01,
stim_fb/ques.jpg,stim_fb/posf.jpg,stim_fb/negf.jpg,stim_01/b.jpg,stim_01/a.jpg,1,1,f,0,44,44,9,j,0,0.916430001165,01,01,60.0237167727,PLT_learning_01,N,2014_Jan_20_1734,P01,
stim_fb/ques.jpg,stim_fb/posf.jpg,stim_fb/negf.jpg,stim_01/e.jpg,stim_01/f.jpg,2,3,j,0,45,45,57,j,1,1.14965976474,01,01,60.0237167727,PLT_learning_01,N,2014_Jan_20_1734,P01,
stim_fb/ques.jpg,stim_fb/posf.jpg,stim_fb/negf.jpg,stim_01/f.jpg,stim_01/e.jpg,1,3,f,0,46,46,46,f,1,0.666462119601,01,01,60.0237167727,PLT_learning_01,N,2014_Jan_20_1734,P01,
stim_fb/ques.jpg,stim_fb/negf.jpg,stim_fb/posf.jpg,stim_01/e.jpg,stim_01/f.jpg,2,3,j,0,47,47,54,j,1,0.766497334241,01,01,60.0237167727,PLT_learning_01,N,2014_Jan_20_1734,P01,
stim_fb/ques.jpg,stim_fb/negf.jpg,stim_fb/posf.jpg,stim_01/d.jpg,stim_01/c.jpg,1,2,f,0,48,48,25,f,1,1.04969071176,01,01,60.0237167727,PLT_learning_01,N,2014_Jan_20_1734,P01,
stim_fb/ques.jpg,stim_fb/negf.jpg,stim_fb/posf.jpg,stim_01/b.jpg,stim_01/a.jpg,1,1,f,0,49,49,0,j,0,1.24966575565,01,01,60.0237167727,PLT_learning_01,N,2014_Jan_20_1734,P01,
stim_fb/ques.jpg,stim_fb/negf.jpg,stim_fb/posf.jpg,stim_01/e.jpg,stim_01/f.jpg,2,3,j,0,50,50,51,j,1,0.599841752161,01,01,60.0237167727,PLT_learning_01,N,2014_Jan_20_1734,P01,
stim_fb/ques.jpg,stim_fb/posf.jpg,stim_fb/negf.jpg,stim_01/a.jpg,stim_01/b.jpg,2,1,j,0,51,51,19,f,0,1.01640636835,01,01,60.0237167727,PLT_learning_01,N,2014_Jan_20_1734,P01,
stim_fb/ques.jpg,stim_fb/negf.jpg,stim_fb/posf.jpg,stim_01/f.jpg,stim_01/e.jpg,1,3,f,0,52,52,43,f,1,1.04970041992,01,01,60.0237167727,PLT_learning_01,N,2014_Jan_20_1734,P01,
stim_fb/ques.jpg,stim_fb/negf.jpg,stim_fb/posf.jpg,stim_01/b.jpg,stim_01/a.jpg,1,1,f,0,53,53,4,f,1,1.43276921839,01,01,60.0237167727,PLT_learning_01,N,2014_Jan_20_1734,P01,
stim_fb/ques.jpg,stim_fb/negf.jpg,stim_fb/posf.jpg,stim_01/c.jpg,stim_01/d.jpg,2,2,j,0,54,54,33,j,1,0.833105292797,01,01,60.0237167727,PLT_learning_01,N,2014_Jan_20_1734,P01,
stim_fb/ques.jpg,stim_fb/negf.jpg,stim_fb/posf.jpg,stim_01/a.jpg,stim_01/b.jpg,2,1,j,0,55,55,12,j,1,0.866417181761,01,01,60.0237167727,PLT_learning_01,N,2014_Jan_20_1734,P01,
stim_fb/ques.jpg,stim_fb/posf.jpg,stim_fb/negf.jpg,stim_01/f.jpg,stim_01/e.jpg,1,3,f,0,56,56,49,j,0,0.699815084793,01,01,60.0237167727,PLT_learning_01,N,2014_Jan_20_1734,P01,
stim_fb/ques.jpg,stim_fb/negf.jpg,stim_fb/posf.jpg,stim_01/a.jpg,stim_01/b.jpg,2,1,j,0,57,57,10,j,1,0.749800728564,01,01,60.0237167727,PLT_learning_01,N,2014_Jan_20_1734,P01,
stim_fb/ques.jpg,stim_fb/negf.jpg,stim_fb/posf.jpg,stim_01/c.jpg,stim_01/d.jpg,2,2,j,0,58,58,34,j,1,0.783127573749,01,01,60.0237167727,PLT_learning_01,N,2014_Jan_20_1734,P01,
stim_fb/ques.jpg,stim_fb/posf.jpg,stim_fb/negf.jpg,stim_01/c.jpg,stim_01/d.jpg,2,2,j,0,59,59,39,f,0,0.899750520107,01,01,60.0237167727,PLT_learning_01,N,2014_Jan_20_1734,P01,
stim_fb/ques.jpg,stim_fb/negf.jpg,stim_fb/posf.jpg,stim_01/f.jpg,stim_01/e.jpg,1,3,f,1,0,60,45,f,1,0.816444909268,01,01,60.0237167727,PLT_learning_01,N,2014_Jan_20_1734,P01,
stim_fb/ques.jpg,stim_fb/posf.jpg,stim_fb/negf.jpg,stim_01/e.jpg,stim_01/f.jpg,2,3,j,1,1,61,57,f,0,0.53318584828,01,01,60.0237167727,PLT_learning_01,N,2014_Jan_20_1734,P01,
stim_fb/ques.jpg,stim_fb/negf.jpg,stim_fb/posf.jpg,stim_01/c.jpg,stim_01/d.jpg,2,2,j,1,2,62,33,f,0,0.29995073439,01,01,60.0237167727,PLT_learning_01,N,2014_Jan_20_1734,P01,
stim_fb/ques.jpg,stim_fb/posf.jpg,stim_fb/negf.jpg,stim_01/f.jpg,stim_01/e.jpg,1,3,f,1,3,63,49,f,1,0.8664359214,01,01,60.0237167727,PLT_learning_01,N,2014_Jan_20_1734,P01,
stim_fb/ques.jpg,stim_fb/negf.jpg,stim_fb/posf.jpg,stim_01/a.jpg,stim_01/b.jpg,2,1,j,1,4,64,11,j,1,0.666469927031,01,01,60.0237167727,PLT_learning_01,N,2014_Jan_20_1734,P01,
stim_fb/ques.jpg,stim_fb/negf.jpg,stim_fb/posf.jpg,stim_01/e.jpg,stim_01/f.jpg,2,3,j,1,5,65,51,j,1,0.399919790379,01,01,60.0237167727,PLT_learning_01,N,2014_Jan_20_1734,P01,
stim_fb/ques.jpg,stim_fb/negf.jpg,stim_fb/posf.jpg,stim_01/a.jpg,stim_01/b.jpg,2,1,j,1,6,66,10,j,1,0.466553071959,01,01,60.0237167727,PLT_learning_01,N,2014_Jan_20_1734,P01,
stim_fb/ques.jpg,stim_fb/posf.jpg,stim_fb/negf.jpg,stim_01/e.jpg,stim_01/f.jpg,2,3,j,1,7,67,56,j,1,0.383238408589,01,01,60.0237167727,PLT_learning_01,N,2014_Jan_20_1734,P01,
stim_fb/ques.jpg,stim_fb/negf.jpg,stim_fb/posf.jpg,stim_01/c.jpg,stim_01/d.jpg,2,2,j,1,8,68,36,f,0,0.383260919614,01,01,60.0237167727,PLT_learning_01,N,2014_Jan_20_1734,P01,
stim_fb/ques.jpg,stim_fb/negf.jpg,stim_fb/posf.jpg,stim_01/f.jpg,stim_01/e.jpg,1,3,f,1,9,69,44,f,1,0.78316171171,01,01,60.0237167727,PLT_learning_01,N,2014_Jan_20_1734,P01,
stim_fb/ques.jpg,stim_fb/negf.jpg,stim_fb/posf.jpg,stim_01/b.jpg,stim_01/a.jpg,1,1,f,1,10,70,1,j,0,1.09968262914,01,01,60.0237167727,PLT_learning_01,N,2014_Jan_20_1734,P01,
stim_fb/ques.jpg,stim_fb/negf.jpg,stim_fb/posf.jpg,stim_01/a.jpg,stim_01/b.jpg,2,1,j,1,11,71,12,f,0,1.04969588163,01,01,60.0237167727,PLT_learning_01,N,2014_Jan_20_1734,P01,
stim_fb/ques.jpg,stim_fb/negf.jpg,stim_fb/posf.jpg,stim_01/a.jpg,stim_01/b.jpg,2,1,j,1,12,72,13,j,1,0.883103622139,01,01,60.0237167727,PLT_learning_01,N,2014_Jan_20_1734,P01,
stim_fb/ques.jpg,stim_fb/negf.jpg,stim_fb/posf.jpg,stim_01/b.jpg,stim_01/a.jpg,1,1,f,1,13,73,5,f,1,0.7664905674,01,01,60.0237167727,PLT_learning_01,N,2014_Jan_20_1734,P01,
stim_fb/ques.jpg,stim_fb/negf.jpg,stim_fb/posf.jpg,stim_01/e.jpg,stim_01/f.jpg,2,3,j,1,14,74,55,j,1,0.866405684146,01,01,60.0237167727,PLT_learning_01,N,2014_Jan_20_1734,P01,
stim_fb/ques.jpg,stim_fb/negf.jpg,stim_fb/posf.jpg,stim_01/b.jpg,stim_01/a.jpg,1,1,f,1,15,75,2,f,1,1.19963568531,01,01,60.0237167727,PLT_learning_01,N,2014_Jan_20_1734,P01,
stim_fb/ques.jpg,stim_fb/negf.jpg,stim_fb/posf.jpg,stim_01/e.jpg,stim_01/f.jpg,2,3,j,1,16,76,50,j,1,0.53319443465,01,01,60.0237167727,PLT_learning_01,N,2014_Jan_20_1734,P01,
stim_fb/ques.jpg,stim_fb/posf.jpg,stim_fb/negf.jpg,stim_01/d.jpg,stim_01/c.jpg,1,2,f,1,17,77,28,f,1,0.99976447183,01,01,60.0237167727,PLT_learning_01,N,2014_Jan_20_1734,P01,
stim_fb/ques.jpg,stim_fb/negf.jpg,stim_fb/posf.jpg,stim_01/a.jpg,stim_01/b.jpg,2,1,j,1,18,78,15,j,1,0.916416241922,01,01,60.0237167727,PLT_learning_01,N,2014_Jan_20_1734,P01,
stim_fb/ques.jpg,stim_fb/negf.jpg,stim_fb/posf.jpg,stim_01/c.jpg,stim_01/d.jpg,2,2,j,1,19,79,31,j,1,1.13299926993,01,01,60.0237167727,PLT_learning_01,N,2014_Jan_20_1734,P01,
stim_fb/ques.jpg,stim_fb/posf.jpg,stim_fb/negf.jpg,stim_01/d.jpg,stim_01/c.jpg,1,2,f,1,20,80,29,f,1,1.13300189547,01,01,60.0237167727,PLT_learning_01,N,2014_Jan_20_1734,P01,
stim_fb/ques.jpg,stim_fb/negf.jpg,stim_fb/posf.jpg,stim_01/e.jpg,stim_01/f.jpg,2,3,j,1,21,81,52,j,1,0.599865721815,01,01,60.0237167727,PLT_learning_01,N,2014_Jan_20_1734,P01,
stim_fb/ques.jpg,stim_fb/posf.jpg,stim_fb/negf.jpg,stim_01/f.jpg,stim_01/e.jpg,1,3,f,1,22,82,46,f,1,0.583207172851,01,01,60.0237167727,PLT_learning_01,N,2014_Jan_20_1734,P01,
stim_fb/ques.jpg,stim_fb/posf.jpg,stim_fb/negf.jpg,stim_01/b.jpg,stim_01/a.jpg,1,1,f,1,23,83,9,f,1,1.19964763104,01,01,60.0237167727,PLT_learning_01,N,2014_Jan_20_1734,P01,
stim_fb/ques.jpg,stim_fb/negf.jpg,stim_fb/posf.jpg,stim_01/b.jpg,stim_01/a.jpg,1,1,f,1,24,84,4,f,1,0.833085966699,01,01,60.0237167727,PLT_learning_01,N,2014_Jan_20_1734,P01,
stim_fb/ques.jpg,stim_fb/negf.jpg,stim_fb/posf.jpg,stim_01/f.jpg,stim_01/e.jpg,1,3,f,1,25,85,40,f,1,0.649833468044,01,01,60.0237167727,PLT_learning_01,N,2014_Jan_20_1734,P01,
stim_fb/ques.jpg,stim_fb/negf.jpg,stim_fb/posf.jpg,stim_01/a.jpg,stim_01/b.jpg,2,1,j,1,26,86,16,j,1,0.716480860742,01,01,60.0237167727,PLT_learning_01,N,2014_Jan_20_1734,P01,
stim_fb/ques.jpg,stim_fb/negf.jpg,stim_fb/posf.jpg,stim_01/f.jpg,stim_01/e.jpg,1,3,f,1,27,87,43,f,1,0.583165828957,01,01,60.0237167727,PLT_learning_01,N,2014_Jan_20_1734,P01,
stim_fb/ques.jpg,stim_fb/negf.jpg,stim_fb/posf.jpg,stim_01/d.jpg,stim_01/c.jpg,1,2,f,1,28,88,21,f,1,1.31631249873,01,01,60.0237167727,PLT_learning_01,N,2014_Jan_20_1734,P01,
stim_fb/ques.jpg,stim_fb/posf.jpg,stim_fb/negf.jpg,stim_01/f.jpg,stim_01/e.jpg,1,3,f,1,29,89,48,f,1,0.633177965662,01,01,60.0237167727,PLT_learning_01,N,2014_Jan_20_1734,P01,
stim_fb/ques.jpg,stim_fb/negf.jpg,stim_fb/posf.jpg,stim_01/d.jpg,stim_01/c.jpg,1,2,f,1,30,90,24,f,1,0.999711317541,01,01,60.0237167727,PLT_learning_01,N,2014_Jan_20_1734,P01,
stim_fb/ques.jpg,stim_fb/negf.jpg,stim_fb/posf.jpg,stim_01/a.jpg,stim_01/b.jpg,2,1,j,1,31,91,17,j,1,0.666497234994,01,01,60.0237167727,PLT_learning_01,N,2014_Jan_20_1734,P01,
stim_fb/ques.jpg,stim_fb/negf.jpg,stim_fb/posf.jpg,stim_01/b.jpg,stim_01/a.jpg,1,1,f,1,32,92,3,f,1,0.733135782679,01,01,60.0237167727,PLT_learning_01,N,2014_Jan_20_1734,P01,
stim_fb/ques.jpg,stim_fb/posf.jpg,stim_fb/negf.jpg,stim_01/e.jpg,stim_01/f.jpg,2,3,j,1,33,93,58,j,1,0.733134414273,01,01,60.0237167727,PLT_learning_01,N,2014_Jan_20_1734,P01,
stim_fb/ques.jpg,stim_fb/posf.jpg,stim_fb/negf.jpg,stim_01/a.jpg,stim_01/b.jpg,2,1,j,1,34,94,18,j,1,0.516554267433,01,01,60.0237167727,PLT_learning_01,N,2014_Jan_20_1734,P01,
stim_fb/ques.jpg,stim_fb/negf.jpg,stim_fb/posf.jpg,stim_01/a.jpg,stim_01/b.jpg,2,1,j,1,35,95,14,j,1,0.616506273989,01,01,60.0237167727,PLT_learning_01,N,2014_Jan_20_1734,P01,
stim_fb/ques.jpg,stim_fb/negf.jpg,stim_fb/posf.jpg,stim_01/e.jpg,stim_01/f.jpg,2,3,j,1,36,96,54,j,1,0.583182237795,01,01,60.0237167727,PLT_learning_01,N,2014_Jan_20_1734,P01,
stim_fb/ques.jpg,stim_fb/negf.jpg,stim_fb/posf.jpg,stim_01/d.jpg,stim_01/c.jpg,1,2,f,1,37,97,26,f,1,0.849731809039,01,01,60.0237167727,PLT_learning_01,N,2014_Jan_20_1734,P01,
stim_fb/ques.jpg,stim_fb/posf.jpg,stim_fb/negf.jpg,stim_01/b.jpg,stim_01/a.jpg,1,1,f,1,38,98,8,f,1,0.783113453607,01,01,60.0237167727,PLT_learning_01,N,2014_Jan_20_1734,P01,
stim_fb/ques.jpg,stim_fb/posf.jpg,stim_fb/negf.jpg,stim_01/c.jpg,stim_01/d.jpg,2,2,j,1,39,99,37,j,1,0.699840738638,01,01,60.0237167727,PLT_learning_01,N,2014_Jan_20_1734,P01,
stim_fb/ques.jpg,stim_fb/negf.jpg,stim_fb/posf.jpg,stim_01/d.jpg,stim_01/c.jpg,1,2,f,1,40,100,23,j,0,0.583198291749,01,01,60.0237167727,PLT_learning_01,N,2014_Jan_20_1734,P01,
stim_fb/ques.jpg,stim_fb/posf.jpg,stim_fb/negf.jpg,stim_01/d.jpg,stim_01/c.jpg,1,2,f,1,41,101,27,f,1,1.13302328169,01,01,60.0237167727,PLT_learning_01,N,2014_Jan_20_1734,P01,
stim_fb/ques.jpg,stim_fb/negf.jpg,stim_fb/posf.jpg,stim_01/b.jpg,stim_01/a.jpg,1,1,f,1,42,102,0,f,1,0.999778459642,01,01,60.0237167727,PLT_learning_01,N,2014_Jan_20_1734,P01,
stim_fb/ques.jpg,stim_fb/negf.jpg,stim_fb/posf.jpg,stim_01/b.jpg,stim_01/a.jpg,1,1,f,1,43,103,7,f,1,0.54986852028,01,01,60.0237167727,PLT_learning_01,N,2014_Jan_20_1734,P01,
stim_fb/ques.jpg,stim_fb/negf.jpg,stim_fb/posf.jpg,stim_01/e.jpg,stim_01/f.jpg,2,3,j,1,44,104,53,j,1,0.749793892551,01,01,60.0237167727,PLT_learning_01,N,2014_Jan_20_1734,P01,
stim_fb/ques.jpg,stim_fb/negf.jpg,stim_fb/posf.jpg,stim_01/d.jpg,stim_01/c.jpg,1,2,f,1,45,105,22,f,1,0.96637708898,01,01,60.0237167727,PLT_learning_01,N,2014_Jan_20_1734,P01,
stim_fb/ques.jpg,stim_fb/negf.jpg,stim_fb/posf.jpg,stim_01/d.jpg,stim_01/c.jpg,1,2,f,1,46,106,25,f,1,0.883102584557,01,01,60.0237167727,PLT_learning_01,N,2014_Jan_20_1734,P01,
stim_fb/ques.jpg,stim_fb/negf.jpg,stim_fb/posf.jpg,stim_01/f.jpg,stim_01/e.jpg,1,3,f,1,47,107,42,f,1,0.533197535366,01,01,60.0237167727,PLT_learning_01,N,2014_Jan_20_1734,P01,
stim_fb/ques.jpg,stim_fb/negf.jpg,stim_fb/posf.jpg,stim_01/c.jpg,stim_01/d.jpg,2,2,j,1,48,108,35,j,1,0.733151379496,01,01,60.0237167727,PLT_learning_01,N,2014_Jan_20_1734,P01,
stim_fb/ques.jpg,stim_fb/posf.jpg,stim_fb/negf.jpg,stim_01/c.jpg,stim_01/d.jpg,2,2,j,1,49,109,39,j,1,0.86643486878,01,01,60.0237167727,PLT_learning_01,N,2014_Jan_20_1734,P01,
stim_fb/ques.jpg,stim_fb/posf.jpg,stim_fb/negf.jpg,stim_01/e.jpg,stim_01/f.jpg,2,3,j,1,50,110,59,j,1,0.749798373703,01,01,60.0237167727,PLT_learning_01,N,2014_Jan_20_1734,P01,
stim_fb/ques.jpg,stim_fb/negf.jpg,stim_fb/posf.jpg,stim_01/c.jpg,stim_01/d.jpg,2,2,j,1,51,111,30,j,1,0.733111205513,01,01,60.0237167727,PLT_learning_01,N,2014_Jan_20_1734,P01,
stim_fb/ques.jpg,stim_fb/negf.jpg,stim_fb/posf.jpg,stim_01/c.jpg,stim_01/d.jpg,2,2,j,1,52,112,32,j,1,0.816473333008,01,01,60.0237167727,PLT_learning_01,N,2014_Jan_20_1734,P01,
stim_fb/ques.jpg,stim_fb/negf.jpg,stim_fb/posf.jpg,stim_01/f.jpg,stim_01/e.jpg,1,3,f,1,53,113,41,f,1,0.649843272444,01,01,60.0237167727,PLT_learning_01,N,2014_Jan_20_1734,P01,
stim_fb/ques.jpg,stim_fb/negf.jpg,stim_fb/posf.jpg,stim_01/b.jpg,stim_01/a.jpg,1,1,f,1,54,114,6,f,1,0.983060554957,01,01,60.0237167727,PLT_learning_01,N,2014_Jan_20_1734,P01,
stim_fb/ques.jpg,stim_fb/negf.jpg,stim_fb/posf.jpg,stim_01/c.jpg,stim_01/d.jpg,2,2,j,1,55,115,34,j,1,0.716529058695,01,01,60.0237167727,PLT_learning_01,N,2014_Jan_20_1734,P01,
stim_fb/ques.jpg,stim_fb/negf.jpg,stim_fb/posf.jpg,stim_01/d.jpg,stim_01/c.jpg,1,2,f,1,56,116,20,f,1,0.766491517766,01,01,60.0237167727,PLT_learning_01,N,2014_Jan_20_1734,P01,
stim_fb/ques.jpg,stim_fb/posf.jpg,stim_fb/negf.jpg,stim_01/f.jpg,stim_01/e.jpg,1,3,f,1,57,117,47,f,1,0.683153146393,01,01,60.0237167727,PLT_learning_01,N,2014_Jan_20_1734,P01,
stim_fb/ques.jpg,stim_fb/posf.jpg,stim_fb/negf.jpg,stim_01/a.jpg,stim_01/b.jpg,2,1,j,1,58,118,19,j,1,0.683153350902,01,01,60.0237167727,PLT_learning_01,N,2014_Jan_20_1734,P01,
stim_fb/ques.jpg,stim_fb/posf.jpg,stim_fb/negf.jpg,stim_01/c.jpg,stim_01/d.jpg,2,2,j,1,59,119,38,j,1,0.666494675624,01,01,60.0237167727,PLT_learning_01,N,2014_Jan_20_1734,P01,
stim_fb/ques.jpg,stim_fb/negf.jpg,stim_fb/posf.jpg,stim_01/d.jpg,stim_01/c.jpg,1,2,f,2,0,120,23,f,1,0.983086112563,01,01,60.0237167727,PLT_learning_01,N,2014_Jan_20_1734,P01,
stim_fb/ques.jpg,stim_fb/negf.jpg,stim_fb/posf.jpg,stim_01/d.jpg,stim_01/c.jpg,1,2,f,2,1,121,22,f,1,0.699816254704,01,01,60.0237167727,PLT_learning_01,N,2014_Jan_20_1734,P01,
stim_fb/ques.jpg,stim_fb/negf.jpg,stim_fb/posf.jpg,stim_01/a.jpg,stim_01/b.jpg,2,1,j,2,2,122,15,j,1,0.899764189126,01,01,60.0237167727,PLT_learning_01,N,2014_Jan_20_1734,P01,
stim_fb/ques.jpg,stim_fb/posf.jpg,stim_fb/negf.jpg,stim_01/d.jpg,stim_01/c.jpg,1,2,f,2,3,123,29,f,1,0.633156438085,01,01,60.0237167727,PLT_learning_01,N,2014_Jan_20_1734,P01,
stim_fb/ques.jpg,stim_fb/posf.jpg,stim_fb/negf.jpg,stim_01/f.jpg,stim_01/e.jpg,1,3,f,2,4,124,47,j,0,1.09968698398,01,01,60.0237167727,PLT_learning_01,N,2014_Jan_20_1734,P01,
stim_fb/ques.jpg,stim_fb/posf.jpg,stim_fb/negf.jpg,stim_01/c.jpg,stim_01/d.jpg,2,2,j,2,5,125,38,j,1,0.916435989067,01,01,60.0237167727,PLT_learning_01,N,2014_Jan_20_1734,P01,
stim_fb/ques.jpg,stim_fb/negf.jpg,stim_fb/posf.jpg,stim_01/e.jpg,stim_01/f.jpg,2,3,j,2,6,126,52,j,1,1.34958726631,01,01,60.0237167727,PLT_learning_01,N,2014_Jan_20_1734,P01,
stim_fb/ques.jpg,stim_fb/negf.jpg,stim_fb/posf.jpg,stim_01/f.jpg,stim_01/e.jpg,1,3,f,2,7,127,44,f,1,0.616513073913,01,01,60.0237167727,PLT_learning_01,N,2014_Jan_20_1734,P01,
stim_fb/ques.jpg,stim_fb/negf.jpg,stim_fb/posf.jpg,stim_01/c.jpg,stim_01/d.jpg,2,2,j,2,8,128,36,j,1,0.849777468675,01,01,60.0237167727,PLT_learning_01,N,2014_Jan_20_1734,P01,
stim_fb/ques.jpg,stim_fb/negf.jpg,stim_fb/posf.jpg,stim_01/a.jpg,stim_01/b.jpg,2,1,j,2,9,129,16,j,1,0.766440354432,01,01,60.0237167727,PLT_learning_01,N,2014_Jan_20_1734,P01,
stim_fb/ques.jpg,stim_fb/posf.jpg,stim_fb/negf.jpg,stim_01/d.jpg,stim_01/c.jpg,1,2,f,2,10,130,28,j,0,1.56635942001,01,01,60.0237167727,PLT_learning_01,N,2014_Jan_20_1734,P01,
stim_fb/ques.jpg,stim_fb/posf.jpg,stim_fb/negf.jpg,stim_01/f.jpg,stim_01/e.jpg,1,3,f,2,11,131,48,j,0,1.11636049518,01,01,60.0237167727,PLT_learning_01,N,2014_Jan_20_1734,P01,
stim_fb/ques.jpg,stim_fb/negf.jpg,stim_fb/posf.jpg,stim_01/a.jpg,stim_01/b.jpg,2,1,j,2,12,132,11,j,1,1.5828315019,01,01,60.0237167727,PLT_learning_01,N,2014_Jan_20_1734,P01,
stim_fb/ques.jpg,stim_fb/negf.jpg,stim_fb/posf.jpg,stim_01/c.jpg,stim_01/d.jpg,2,2,j,2,13,133,32,j,1,1.31631290474,01,01,60.0237167727,PLT_learning_01,N,2014_Jan_20_1734,P01,
stim_fb/ques.jpg,stim_fb/negf.jpg,stim_fb/posf.jpg,stim_01/b.jpg,stim_01/a.jpg,1,1,f,2,14,134,6,f,1,1.04969617636,01,01,60.0237167727,PLT_learning_01,N,2014_Jan_20_1734,P01,
stim_fb/ques.jpg,stim_fb/negf.jpg,stim_fb/posf.jpg,stim_01/e.jpg,stim_01/f.jpg,2,3,j,2,15,135,53,j,1,0.799776946877,01,01,60.0237167727,PLT_learning_01,N,2014_Jan_20_1734,P01,
stim_fb/ques.jpg,stim_fb/posf.jpg,stim_fb/negf.jpg,stim_01/b.jpg,stim_01/a.jpg,1,1,f,2,16,136,8,j,0,1.34962166291,01,01,60.0237167727,PLT_learning_01,N,2014_Jan_20_1734,P01,
stim_fb/ques.jpg,stim_fb/negf.jpg,stim_fb/posf.jpg,stim_01/f.jpg,stim_01/e.jpg,1,3,f,2,17,137,45,j,0,0.949766677819,01,01,60.0237167727,PLT_learning_01,N,2014_Jan_20_1734,P01,
stim_fb/ques.jpg,stim_fb/negf.jpg,stim_fb/posf.jpg,stim_01/d.jpg,stim_01/c.jpg,1,2,f,2,18,138,25,f,1,0.949736693195,01,01,60.0237167727,PLT_learning_01,N,2014_Jan_20_1734,P01,
stim_fb/ques.jpg,stim_fb/negf.jpg,stim_fb/posf.jpg,stim_01/d.jpg,stim_01/c.jpg,1,2,f,2,19,139,24,f,1,0.833104420627,01,01,60.0237167727,PLT_learning_01,N,2014_Jan_20_1734,P01,
stim_fb/ques.jpg,stim_fb/posf.jpg,stim_fb/negf.jpg,stim_01/e.jpg,stim_01/f.jpg,2,3,j,2,20,140,58,j,1,0.699835042462,01,01,60.0237167727,PLT_learning_01,N,2014_Jan_20_1734,P01,
stim_fb/ques.jpg,stim_fb/posf.jpg,stim_fb/negf.jpg,stim_01/b.jpg,stim_01/a.jpg,1,1,f,2,21,141,9,f,1,1.03304120029,01,01,60.0237167727,PLT_learning_01,N,2014_Jan_20_1734,P01,
stim_fb/ques.jpg,stim_fb/negf.jpg,stim_fb/posf.jpg,stim_01/a.jpg,stim_01/b.jpg,2,1,j,2,22,142,13,j,1,1.04970307252,01,01,60.0237167727,PLT_learning_01,N,2014_Jan_20_1734,P01,
stim_fb/ques.jpg,stim_fb/negf.jpg,stim_fb/posf.jpg,stim_01/f.jpg,stim_01/e.jpg,1,3,f,2,23,143,43,f,1,0.966391849716,01,01,60.0237167727,PLT_learning_01,N,2014_Jan_20_1734,P01,
stim_fb/ques.jpg,stim_fb/posf.jpg,stim_fb/negf.jpg,stim_01/c.jpg,stim_01/d.jpg,2,2,j,2,24,144,37,j,1,0.749792491062,01,01,60.0237167727,PLT_learning_01,N,2014_Jan_20_1734,P01,
stim_fb/ques.jpg,stim_fb/negf.jpg,stim_fb/posf.jpg,stim_01/f.jpg,stim_01/e.jpg,1,3,f,2,25,145,42,f,1,0.766471905956,01,01,60.0237167727,PLT_learning_01,N,2014_Jan_20_1734,P01,
stim_fb/ques.jpg,stim_fb/negf.jpg,stim_fb/posf.jpg,stim_01/c.jpg,stim_01/d.jpg,2,2,j,2,26,146,31,None,0,,01,01,60.0237167727,PLT_learning_01,N,2014_Jan_20_1734,P01,
stim_fb/ques.jpg,stim_fb/posf.jpg,stim_fb/negf.jpg,stim_01/e.jpg,stim_01/f.jpg,2,3,j,2,27,147,59,f,0,1.58284631076,01,01,60.0237167727,PLT_learning_01,N,2014_Jan_20_1734,P01,
stim_fb/ques.jpg,stim_fb/negf.jpg,stim_fb/posf.jpg,stim_01/e.jpg,stim_01/f.jpg,2,3,j,2,28,148,55,j,1,0.833084947162,01,01,60.0237167727,PLT_learning_01,N,2014_Jan_20_1734,P01,
stim_fb/ques.jpg,stim_fb/posf.jpg,stim_fb/negf.jpg,stim_01/f.jpg,stim_01/e.jpg,1,3,f,2,29,149,49,f,1,0.783124352733,01,01,60.0237167727,PLT_learning_01,N,2014_Jan_20_1734,P01,
stim_fb/ques.jpg,stim_fb/posf.jpg,stim_fb/negf.jpg,stim_01/c.jpg,stim_01/d.jpg,2,2,j,2,30,150,39,j,1,0.783123838453,01,01,60.0237167727,PLT_learning_01,N,2014_Jan_20_1734,P01,
stim_fb/ques.jpg,stim_fb/negf.jpg,stim_fb/posf.jpg,stim_01/d.jpg,stim_01/c.jpg,1,2,f,2,31,151,20,f,1,0.816422452378,01,01,60.0237167727,PLT_learning_01,N,2014_Jan_20_1734,P01,
stim_fb/ques.jpg,stim_fb/negf.jpg,stim_fb/posf.jpg,stim_01/c.jpg,stim_01/d.jpg,2,2,j,2,32,152,34,f,0,0.699831237994,01,01,60.0237167727,PLT_learning_01,N,2014_Jan_20_1734,P01,
stim_fb/ques.jpg,stim_fb/posf.jpg,stim_fb/negf.jpg,stim_01/e.jpg,stim_01/f.jpg,2,3,j,2,33,153,56,j,1,0.616506622858,01,01,60.0237167727,PLT_learning_01,N,2014_Jan_20_1734,P01,
stim_fb/ques.jpg,stim_fb/negf.jpg,stim_fb/posf.jpg,stim_01/a.jpg,stim_01/b.jpg,2,1,j,2,34,154,17,j,1,0.866449716733,01,01,60.0237167727,PLT_learning_01,N,2014_Jan_20_1734,P01,
stim_fb/ques.jpg,stim_fb/negf.jpg,stim_fb/posf.jpg,stim_01/b.jpg,stim_01/a.jpg,1,1,f,2,35,155,2,j,0,1.16633762176,01,01,60.0237167727,PLT_learning_01,N,2014_Jan_20_1734,P01,
stim_fb/ques.jpg,stim_fb/negf.jpg,stim_fb/posf.jpg,stim_01/b.jpg,stim_01/a.jpg,1,1,f,2,36,156,1,f,1,1.34959912783,01,01,60.0237167727,PLT_learning_01,N,2014_Jan_20_1734,P01,
stim_fb/ques.jpg,stim_fb/negf.jpg,stim_fb/posf.jpg,stim_01/b.jpg,stim_01/a.jpg,1,1,f,2,37,157,4,f,1,0.899819668199,01,01,60.0237167727,PLT_learning_01,N,2014_Jan_20_1734,P01,
stim_fb/ques.jpg,stim_fb/negf.jpg,stim_fb/posf.jpg,stim_01/e.jpg,stim_01/f.jpg,2,3,j,2,38,158,54,j,1,0.816439011591,01,01,60.0237167727,PLT_learning_01,N,2014_Jan_20_1734,P01,
stim_fb/ques.jpg,stim_fb/negf.jpg,stim_fb/posf.jpg,stim_01/a.jpg,stim_01/b.jpg,2,1,j,2,39,159,12,f,0,0.899745320165,01,01,60.0237167727,PLT_learning_01,N,2014_Jan_20_1734,P01,
stim_fb/ques.jpg,stim_fb/negf.jpg,stim_fb/posf.jpg,stim_01/e.jpg,stim_01/f.jpg,2,3,j,2,40,160,51,j,1,0.616509242377,01,01,60.0237167727,PLT_learning_01,N,2014_Jan_20_1734,P01,
stim_fb/ques.jpg,stim_fb/negf.jpg,stim_fb/posf.jpg,stim_01/f.jpg,stim_01/e.jpg,1,3,f,2,41,161,41,f,1,0.716489937332,01,01,60.0237167727,PLT_learning_01,N,2014_Jan_20_1734,P01,
stim_fb/ques.jpg,stim_fb/posf.jpg,stim_fb/negf.jpg,stim_01/f.jpg,stim_01/e.jpg,1,3,f,2,42,162,46,j,0,0.81640507513,01,01,60.0237167727,PLT_learning_01,N,2014_Jan_20_1734,P01,
stim_fb/ques.jpg,stim_fb/negf.jpg,stim_fb/posf.jpg,stim_01/b.jpg,stim_01/a.jpg,1,1,f,2,43,163,3,f,1,0.916269242076,01,01,60.0237167727,PLT_learning_01,N,2014_Jan_20_1734,P01,
stim_fb/ques.jpg,stim_fb/negf.jpg,stim_fb/posf.jpg,stim_01/b.jpg,stim_01/a.jpg,1,1,f,2,44,164,5,f,1,1.18298635429,01,01,60.0237167727,PLT_learning_01,N,2014_Jan_20_1734,P01,
stim_fb/ques.jpg,stim_fb/posf.jpg,stim_fb/negf.jpg,stim_01/d.jpg,stim_01/c.jpg,1,2,f,2,45,165,27,j,0,1.0497139536,01,01,60.0237167727,PLT_learning_01,N,2014_Jan_20_1734,P01,
stim_fb/ques.jpg,stim_fb/posf.jpg,stim_fb/negf.jpg,stim_01/a.jpg,stim_01/b.jpg,2,1,j,2,46,166,19,j,1,1.06634379312,01,01,60.0237167727,PLT_learning_01,N,2014_Jan_20_1734,P01,
stim_fb/ques.jpg,stim_fb/negf.jpg,stim_fb/posf.jpg,stim_01/c.jpg,stim_01/d.jpg,2,2,j,2,47,167,30,j,1,1.16622340349,01,01,60.0237167727,PLT_learning_01,N,2014_Jan_20_1734,P01,
stim_fb/ques.jpg,stim_fb/negf.jpg,stim_fb/posf.jpg,stim_01/e.jpg,stim_01/f.jpg,2,3,j,2,48,168,50,j,1,0.933067867655,01,01,60.0237167727,PLT_learning_01,N,2014_Jan_20_1734,P01,
stim_fb/ques.jpg,stim_fb/posf.jpg,stim_fb/negf.jpg,stim_01/e.jpg,stim_01/f.jpg,2,3,j,2,49,169,57,j,1,0.933075831475,01,01,60.0237167727,PLT_learning_01,N,2014_Jan_20_1734,P01,
stim_fb/ques.jpg,stim_fb/negf.jpg,stim_fb/posf.jpg,stim_01/f.jpg,stim_01/e.jpg,1,3,f,2,50,170,40,f,1,0.766445819032,01,01,60.0237167727,PLT_learning_01,N,2014_Jan_20_1734,P01,
stim_fb/ques.jpg,stim_fb/negf.jpg,stim_fb/posf.jpg,stim_01/d.jpg,stim_01/c.jpg,1,2,f,2,51,171,26,f,1,1.43290035977,01,01,60.0237167727,PLT_learning_01,N,2014_Jan_20_1734,P01,
stim_fb/ques.jpg,stim_fb/negf.jpg,stim_fb/posf.jpg,stim_01/a.jpg,stim_01/b.jpg,2,1,j,2,52,172,14,j,1,1.14957941377,01,01,60.0237167727,PLT_learning_01,N,2014_Jan_20_1734,P01,
stim_fb/ques.jpg,stim_fb/negf.jpg,stim_fb/posf.jpg,stim_01/d.jpg,stim_01/c.jpg,1,2,f,2,53,173,21,f,1,0.899708785239,01,01,60.0237167727,PLT_learning_01,N,2014_Jan_20_1734,P01,
stim_fb/ques.jpg,stim_fb/negf.jpg,stim_fb/posf.jpg,stim_01/b.jpg,stim_01/a.jpg,1,1,f,2,54,174,7,j,0,1.2996624429,01,01,60.0237167727,PLT_learning_01,N,2014_Jan_20_1734,P01,
stim_fb/ques.jpg,stim_fb/negf.jpg,stim_fb/posf.jpg,stim_01/c.jpg,stim_01/d.jpg,2,2,j,2,55,175,33,j,1,0.949745646478,01,01,60.0237167727,PLT_learning_01,N,2014_Jan_20_1734,P01,
stim_fb/ques.jpg,stim_fb/negf.jpg,stim_fb/posf.jpg,stim_01/c.jpg,stim_01/d.jpg,2,2,j,2,56,176,35,j,1,0.583201413519,01,01,60.0237167727,PLT_learning_01,N,2014_Jan_20_1734,P01,
stim_fb/ques.jpg,stim_fb/posf.jpg,stim_fb/negf.jpg,stim_01/a.jpg,stim_01/b.jpg,2,1,j,2,57,177,18,f,0,0.899758760615,01,01,60.0237167727,PLT_learning_01,N,2014_Jan_20_1734,P01,
stim_fb/ques.jpg,stim_fb/negf.jpg,stim_fb/posf.jpg,stim_01/a.jpg,stim_01/b.jpg,2,1,j,2,58,178,10,j,1,0.666509682973,01,01,60.0237167727,PLT_learning_01,N,2014_Jan_20_1734,P01,
stim_fb/ques.jpg,stim_fb/negf.jpg,stim_fb/posf.jpg,stim_01/b.jpg,stim_01/a.jpg,1,1,f,2,59,179,0,f,1,1.04967677808,01,01,60.0237167727,PLT_learning_01,N,2014_Jan_20_1734,P01,
stim_fb/ques.jpg,stim_fb/negf.jpg,stim_fb/posf.jpg,stim_01/b.jpg,stim_01/a.jpg,1,1,f,3,0,180,1,f,1,0.949697292136,01,01,60.0237167727,PLT_learning_01,N,2014_Jan_20_1734,P01,
stim_fb/ques.jpg,stim_fb/posf.jpg,stim_fb/negf.jpg,stim_01/e.jpg,stim_01/f.jpg,2,3,j,3,1,181,56,j,1,1.33294176682,01,01,60.0237167727,PLT_learning_01,N,2014_Jan_20_1734,P01,
stim_fb/ques.jpg,stim_fb/negf.jpg,stim_fb/posf.jpg,stim_01/f.jpg,stim_01/e.jpg,1,3,f,3,2,182,42,f,1,1.16632284298,01,01,60.0237167727,PLT_learning_01,N,2014_Jan_20_1734,P01,
stim_fb/ques.jpg,stim_fb/posf.jpg,stim_fb/negf.jpg,stim_01/d.jpg,stim_01/c.jpg,1,2,f,3,3,183,29,f,1,1.44957921527,01,01,60.0237167727,PLT_learning_01,N,2014_Jan_20_1734,P01,
stim_fb/ques.jpg,stim_fb/negf.jpg,stim_fb/posf.jpg,stim_01/f.jpg,stim_01/e.jpg,1,3,f,3,4,184,40,f,1,0.783116626504,01,01,60.0237167727,PLT_learning_01,N,2014_Jan_20_1734,P01,
stim_fb/ques.jpg,stim_fb/negf.jpg,stim_fb/posf.jpg,stim_01/a.jpg,stim_01/b.jpg,2,1,j,3,5,185,14,j,1,1.11636152976,01,01,60.0237167727,PLT_learning_01,N,2014_Jan_20_1734,P01,
stim_fb/ques.jpg,stim_fb/posf.jpg,stim_fb/negf.jpg,stim_01/e.jpg,stim_01/f.jpg,2,3,j,3,6,186,58,j,1,0.933071657087,01,01,60.0237167727,PLT_learning_01,N,2014_Jan_20_1734,P01,
stim_fb/ques.jpg,stim_fb/negf.jpg,stim_fb/posf.jpg,stim_01/e.jpg,stim_01/f.jpg,2,3,j,3,7,187,53,j,1,0.649836466506,01,01,60.0237167727,PLT_learning_01,N,2014_Jan_20_1734,P01,
stim_fb/ques.jpg,stim_fb/negf.jpg,stim_fb/posf.jpg,stim_01/f.jpg,stim_01/e.jpg,1,3,f,3,8,188,44,f,1,1.08301771333,01,01,60.0237167727,PLT_learning_01,N,2014_Jan_20_1734,P01,
stim_fb/ques.jpg,stim_fb/posf.jpg,stim_fb/negf.jpg,stim_01/a.jpg,stim_01/b.jpg,2,1,j,3,9,189,19,None,0,,01,01,60.0237167727,PLT_learning_01,N,2014_Jan_20_1734,P01,
stim_fb/ques.jpg,stim_fb/negf.jpg,stim_fb/posf.jpg,stim_01/e.jpg,stim_01/f.jpg,2,3,j,3,10,190,55,j,1,0.883083619357,01,01,60.0237167727,PLT_learning_01,N,2014_Jan_20_1734,P01,
stim_fb/ques.jpg,stim_fb/posf.jpg,stim_fb/negf.jpg,stim_01/a.jpg,stim_01/b.jpg,2,1,j,3,11,191,18,j,1,0.799792405349,01,01,60.0237167727,PLT_learning_01,N,2014_Jan_20_1734,P01,
stim_fb/ques.jpg,stim_fb/negf.jpg,stim_fb/posf.jpg,stim_01/d.jpg,stim_01/c.jpg,1,2,f,3,12,192,24,f,1,0.783082022383,01,01,60.0237167727,PLT_learning_01,N,2014_Jan_20_1734,P01,
stim_fb/ques.jpg,stim_fb/negf.jpg,stim_fb/posf.jpg,stim_01/a.jpg,stim_01/b.jpg,2,1,j,3,13,193,12,j,1,0.583185702417,01,01,60.0237167727,PLT_learning_01,N,2014_Jan_20_1734,P01,
stim_fb/ques.jpg,stim_fb/negf.jpg,stim_fb/posf.jpg,stim_01/b.jpg,stim_01/a.jpg,1,1,f,3,14,194,5,f,1,0.633167246986,01,01,60.0237167727,PLT_learning_01,N,2014_Jan_20_1734,P01,
stim_fb/ques.jpg,stim_fb/negf.jpg,stim_fb/posf.jpg,stim_01/a.jpg,stim_01/b.jpg,2,1,j,3,15,195,10,j,1,0.449912158886,01,01,60.0237167727,PLT_learning_01,N,2014_Jan_20_1734,P01,
stim_fb/ques.jpg,stim_fb/negf.jpg,stim_fb/posf.jpg,stim_01/c.jpg,stim_01/d.jpg,2,2,j,3,16,196,33,f,0,0.466514428785,01,01,60.0237167727,PLT_learning_01,N,2014_Jan_20_1734,P01,
stim_fb/ques.jpg,stim_fb/posf.jpg,stim_fb/negf.jpg,stim_01/b.jpg,stim_01/a.jpg,1,1,f,3,17,197,9,f,1,1.11631138897,01,01,60.0237167727,PLT_learning_01,N,2014_Jan_20_1734,P01,
stim_fb/ques.jpg,stim_fb/negf.jpg,stim_fb/posf.jpg,stim_01/d.jpg,stim_01/c.jpg,1,2,f,3,18,198,25,f,1,0.683159359857,01,01,60.0237167727,PLT_learning_01,N,2014_Jan_20_1734,P01,
stim_fb/ques.jpg,stim_fb/negf.jpg,stim_fb/posf.jpg,stim_01/d.jpg,stim_01/c.jpg,1,2,f,3,19,199,23,f,1,0.649847395706,01,01,60.0237167727,PLT_learning_01,N,2014_Jan_20_1734,P01,
stim_fb/ques.jpg,stim_fb/posf.jpg,stim_fb/negf.jpg,stim_01/f.jpg,stim_01/e.jpg,1,3,f,3,20,200,48,f,1,0.816423748604,01,01,60.0237167727,PLT_learning_01,N,2014_Jan_20_1734,P01,
stim_fb/ques.jpg,stim_fb/negf.jpg,stim_fb/posf.jpg,stim_01/b.jpg,stim_01/a.jpg,1,1,f,3,21,201,2,f,1,0.733147824649,01,01,60.0237167727,PLT_learning_01,N,2014_Jan_20_1734,P01,
stim_fb/ques.jpg,stim_fb/posf.jpg,stim_fb/negf.jpg,stim_01/c.jpg,stim_01/d.jpg,2,2,j,3,22,202,38,j,1,0.683143519434,01,01,60.0237167727,PLT_learning_01,N,2014_Jan_20_1734,P01,
stim_fb/ques.jpg,stim_fb/posf.jpg,stim_fb/negf.jpg,stim_01/f.jpg,stim_01/e.jpg,1,3,f,3,23,203,46,f,1,0.533157776415,01,01,60.0237167727,PLT_learning_01,N,2014_Jan_20_1734,P01,
stim_fb/ques.jpg,stim_fb/negf.jpg,stim_fb/posf.jpg,stim_01/a.jpg,stim_01/b.jpg,2,1,j,3,24,204,17,j,1,0.699807584125,01,01,60.0237167727,PLT_learning_01,N,2014_Jan_20_1734,P01,
stim_fb/ques.jpg,stim_fb/negf.jpg,stim_fb/posf.jpg,stim_01/c.jpg,stim_01/d.jpg,2,2,j,3,25,205,32,j,1,0.616553732101,01,01,60.0237167727,PLT_learning_01,N,2014_Jan_20_1734,P01,
stim_fb/ques.jpg,stim_fb/posf.jpg,stim_fb/negf.jpg,stim_01/d.jpg,stim_01/c.jpg,1,2,f,3,26,206,28,f,1,0.633170074022,01,01,60.0237167727,PLT_learning_01,N,2014_Jan_20_1734,P01,
stim_fb/ques.jpg,stim_fb/negf.jpg,stim_fb/posf.jpg,stim_01/a.jpg,stim_01/b.jpg,2,1,j,3,27,207,13,j,1,0.866403693191,01,01,60.0237167727,PLT_learning_01,N,2014_Jan_20_1734,P01,
stim_fb/ques.jpg,stim_fb/posf.jpg,stim_fb/negf.jpg,stim_01/f.jpg,stim_01/e.jpg,1,3,f,3,28,208,47,f,1,1.16631442803,01,01,60.0237167727,PLT_learning_01,N,2014_Jan_20_1734,P01,
stim_fb/ques.jpg,stim_fb/negf.jpg,stim_fb/posf.jpg,stim_01/a.jpg,stim_01/b.jpg,2,1,j,3,29,209,15,j,1,0.516528718848,01,01,60.0237167727,PLT_learning_01,N,2014_Jan_20_1734,P01,
stim_fb/ques.jpg,stim_fb/negf.jpg,stim_fb/posf.jpg,stim_01/c.jpg,stim_01/d.jpg,2,2,j,3,30,210,34,j,1,0.666340526986,01,01,60.0237167727,PLT_learning_01,N,2014_Jan_20_1734,P01,
stim_fb/ques.jpg,stim_fb/posf.jpg,stim_fb/negf.jpg,stim_01/f.jpg,stim_01/e.jpg,1,3,f,3,31,211,49,j,0,1.03307740138,01,01,60.0237167727,PLT_learning_01,N,2014_Jan_20_1734,P01,
stim_fb/ques.jpg,stim_fb/negf.jpg,stim_fb/posf.jpg,stim_01/b.jpg,stim_01/a.jpg,1,1,f,3,32,212,0,j,0,0.849795275993,01,01,60.0237167727,PLT_learning_01,N,2014_Jan_20_1734,P01,
stim_fb/ques.jpg,stim_fb/posf.jpg,stim_fb/negf.jpg,stim_01/c.jpg,stim_01/d.jpg,2,2,j,3,33,213,39,j,1,0.833114489687,01,01,60.0237167727,PLT_learning_01,N,2014_Jan_20_1734,P01,
stim_fb/ques.jpg,stim_fb/negf.jpg,stim_fb/posf.jpg,stim_01/c.jpg,stim_01/d.jpg,2,2,j,3,34,214,30,j,1,0.999686623083,01,01,60.0237167727,PLT_learning_01,N,2014_Jan_20_1734,P01,
stim_fb/ques.jpg,stim_fb/negf.jpg,stim_fb/posf.jpg,stim_01/f.jpg,stim_01/e.jpg,1,3,f,3,35,215,45,f,1,1.13300006992,01,01,60.0237167727,PLT_learning_01,N,2014_Jan_20_1734,P01,
stim_fb/ques.jpg,stim_fb/negf.jpg,stim_fb/posf.jpg,stim_01/b.jpg,stim_01/a.jpg,1,1,f,3,36,216,7,f,1,0.766448760352,01,01,60.0237167727,PLT_learning_01,N,2014_Jan_20_1734,P01,
stim_fb/ques.jpg,stim_fb/posf.jpg,stim_fb/negf.jpg,stim_01/b.jpg,stim_01/a.jpg,1,1,f,3,37,217,8,f,1,0.533203514246,01,01,60.0237167727,PLT_learning_01,N,2014_Jan_20_1734,P01,
stim_fb/ques.jpg,stim_fb/posf.jpg,stim_fb/negf.jpg,stim_01/d.jpg,stim_01/c.jpg,1,2,f,3,38,218,27,f,1,0.633161364346,01,01,60.0237167727,PLT_learning_01,N,2014_Jan_20_1734,P01,
stim_fb/ques.jpg,stim_fb/negf.jpg,stim_fb/posf.jpg,stim_01/e.jpg,stim_01/f.jpg,2,3,j,3,39,219,52,f,0,1.63284479649,01,01,60.0237167727,PLT_learning_01,N,2014_Jan_20_1734,P01,
stim_fb/ques.jpg,stim_fb/posf.jpg,stim_fb/negf.jpg,stim_01/c.jpg,stim_01/d.jpg,2,2,j,3,40,220,37,j,1,0.96638798209,01,01,60.0237167727,PLT_learning_01,N,2014_Jan_20_1734,P01,
stim_fb/ques.jpg,stim_fb/negf.jpg,stim_fb/posf.jpg,stim_01/c.jpg,stim_01/d.jpg,2,2,j,3,41,221,35,j,1,0.549840358191,01,01,60.0237167727,PLT_learning_01,N,2014_Jan_20_1734,P01,
stim_fb/ques.jpg,stim_fb/negf.jpg,stim_fb/posf.jpg,stim_01/c.jpg,stim_01/d.jpg,2,2,j,3,42,222,31,j,1,0.733146284816,01,01,60.0237167727,PLT_learning_01,N,2014_Jan_20_1734,P01,
stim_fb/ques.jpg,stim_fb/negf.jpg,stim_fb/posf.jpg,stim_01/f.jpg,stim_01/e.jpg,1,3,f,3,43,223,43,f,1,0.999711681447,01,01,60.0237167727,PLT_learning_01,N,2014_Jan_20_1734,P01,
stim_fb/ques.jpg,stim_fb/negf.jpg,stim_fb/posf.jpg,stim_01/e.jpg,stim_01/f.jpg,2,3,j,3,44,224,54,j,1,1.19968351936,01,01,60.0237167727,PLT_learning_01,N,2014_Jan_20_1734,P01,
stim_fb/ques.jpg,stim_fb/negf.jpg,stim_fb/posf.jpg,stim_01/b.jpg,stim_01/a.jpg,1,1,f,3,45,225,6,f,1,0.999741455547,01,01,60.0237167727,PLT_learning_01,N,2014_Jan_20_1734,P01,
stim_fb/ques.jpg,stim_fb/negf.jpg,stim_fb/posf.jpg,stim_01/d.jpg,stim_01/c.jpg,1,2,f,3,46,226,22,f,1,0.833099133469,01,01,60.0237167727,PLT_learning_01,N,2014_Jan_20_1734,P01,
stim_fb/ques.jpg,stim_fb/negf.jpg,stim_fb/posf.jpg,stim_01/a.jpg,stim_01/b.jpg,2,1,j,3,47,227,16,f,0,0.94973626914,01,01,60.0237167727,PLT_learning_01,N,2014_Jan_20_1734,P01,
stim_fb/ques.jpg,stim_fb/posf.jpg,stim_fb/negf.jpg,stim_01/e.jpg,stim_01/f.jpg,2,3,j,3,48,228,57,j,1,0.93308597873,01,01,60.0237167727,PLT_learning_01,N,2014_Jan_20_1734,P01,
stim_fb/ques.jpg,stim_fb/negf.jpg,stim_fb/posf.jpg,stim_01/b.jpg,stim_01/a.jpg,1,1,f,3,49,229,3,f,1,0.49986071736,01,01,60.0237167727,PLT_learning_01,N,2014_Jan_20_1734,P01,
stim_fb/ques.jpg,stim_fb/negf.jpg,stim_fb/posf.jpg,stim_01/f.jpg,stim_01/e.jpg,1,3,f,3,50,230,41,f,1,0.916400052631,01,01,60.0237167727,PLT_learning_01,N,2014_Jan_20_1734,P01,
stim_fb/ques.jpg,stim_fb/negf.jpg,stim_fb/posf.jpg,stim_01/c.jpg,stim_01/d.jpg,2,2,j,3,51,231,36,j,1,0.633174371717,01,01,60.0237167727,PLT_learning_01,N,2014_Jan_20_1734,P01,
stim_fb/ques.jpg,stim_fb/negf.jpg,stim_fb/posf.jpg,stim_01/e.jpg,stim_01/f.jpg,2,3,j,3,52,232,50,j,1,0.933081425397,01,01,60.0237167727,PLT_learning_01,N,2014_Jan_20_1734,P01,
stim_fb/ques.jpg,stim_fb/negf.jpg,stim_fb/posf.jpg,stim_01/a.jpg,stim_01/b.jpg,2,1,j,3,53,233,11,j,1,0.783117471608,01,01,60.0237167727,PLT_learning_01,N,2014_Jan_20_1734,P01,
stim_fb/ques.jpg,stim_fb/negf.jpg,stim_fb/posf.jpg,stim_01/e.jpg,stim_01/f.jpg,2,3,j,3,54,234,51,j,1,0.866469590193,01,01,60.0237167727,PLT_learning_01,N,2014_Jan_20_1734,P01,
stim_fb/ques.jpg,stim_fb/posf.jpg,stim_fb/negf.jpg,stim_01/e.jpg,stim_01/f.jpg,2,3,j,3,55,235,59,f,0,1.16632546249,01,01,60.0237167727,PLT_learning_01,N,2014_Jan_20_1734,P01,
stim_fb/ques.jpg,stim_fb/negf.jpg,stim_fb/posf.jpg,stim_01/b.jpg,stim_01/a.jpg,1,1,f,3,56,236,4,f,1,0.833092192193,01,01,60.0237167727,PLT_learning_01,N,2014_Jan_20_1734,P01,
stim_fb/ques.jpg,stim_fb/negf.jpg,stim_fb/posf.jpg,stim_01/d.jpg,stim_01/c.jpg,1,2,f,3,57,237,20,f,1,1.14966449551,01,01,60.0237167727,PLT_learning_01,N,2014_Jan_20_1734,P01,
stim_fb/ques.jpg,stim_fb/negf.jpg,stim_fb/posf.jpg,stim_01/d.jpg,stim_01/c.jpg,1,2,f,3,58,238,26,f,1,1.41623905595,01,01,60.0237167727,PLT_learning_01,N,2014_Jan_20_1734,P01,
stim_fb/ques.jpg,stim_fb/negf.jpg,stim_fb/posf.jpg,stim_01/d.jpg,stim_01/c.jpg,1,2,f,3,59,239,21,f,1,1.38292861659,01,01,60.0237167727,PLT_learning_01,N,2014_Jan_20_1734,P01,
stim_fb/ques.jpg,stim_fb/negf.jpg,stim_fb/posf.jpg,stim_01/d.jpg,stim_01/c.jpg,1,2,f,4,0,240,21,f,1,1.24987906452,01,01,60.0237167727,PLT_learning_01,N,2014_Jan_20_1734,P01,
stim_fb/ques.jpg,stim_fb/negf.jpg,stim_fb/posf.jpg,stim_01/e.jpg,stim_01/f.jpg,2,3,j,4,1,241,55,j,1,1.0163658876,01,01,60.0237167727,PLT_learning_01,N,2014_Jan_20_1734,P01,
stim_fb/ques.jpg,stim_fb/posf.jpg,stim_fb/negf.jpg,stim_01/e.jpg,stim_01/f.jpg,2,3,j,4,2,242,58,j,1,0.933104198072,01,01,60.0237167727,PLT_learning_01,N,2014_Jan_20_1734,P01,
stim_fb/ques.jpg,stim_fb/negf.jpg,stim_fb/posf.jpg,stim_01/e.jpg,stim_01/f.jpg,2,3,j,4,3,243,53,j,1,1.03301292993,01,01,60.0237167727,PLT_learning_01,N,2014_Jan_20_1734,P01,
stim_fb/ques.jpg,stim_fb/negf.jpg,stim_fb/posf.jpg,stim_01/b.jpg,stim_01/a.jpg,1,1,f,4,4,244,3,f,1,0.699832886095,01,01,60.0237167727,PLT_learning_01,N,2014_Jan_20_1734,P01,
stim_fb/ques.jpg,stim_fb/negf.jpg,stim_fb/posf.jpg,stim_01/e.jpg,stim_01/f.jpg,2,3,j,4,5,245,51,j,1,1.11635406819,01,01,60.0237167727,PLT_learning_01,N,2014_Jan_20_1734,P01,
stim_fb/ques.jpg,stim_fb/negf.jpg,stim_fb/posf.jpg,stim_01/f.jpg,stim_01/e.jpg,1,3,f,4,6,246,45,f,1,1.01635998692,01,01,60.0237167727,PLT_learning_01,N,2014_Jan_20_1734,P01,
stim_fb/ques.jpg,stim_fb/negf.jpg,stim_fb/posf.jpg,stim_01/d.jpg,stim_01/c.jpg,1,2,f,4,7,247,26,f,1,0.616527819611,01,01,60.0237167727,PLT_learning_01,N,2014_Jan_20_1734,P01,
stim_fb/ques.jpg,stim_fb/negf.jpg,stim_fb/posf.jpg,stim_01/a.jpg,stim_01/b.jpg,2,1,j,4,8,248,12,j,1,0.583219948648,01,01,60.0237167727,PLT_learning_01,N,2014_Jan_20_1734,P01,
stim_fb/ques.jpg,stim_fb/negf.jpg,stim_fb/posf.jpg,stim_01/c.jpg,stim_01/d.jpg,2,2,j,4,9,249,36,j,1,1.23300435559,01,01,60.0237167727,PLT_learning_01,N,2014_Jan_20_1734,P01,
stim_fb/ques.jpg,stim_fb/negf.jpg,stim_fb/posf.jpg,stim_01/c.jpg,stim_01/d.jpg,2,2,j,4,10,250,35,j,1,0.633150988523,01,01,60.0237167727,PLT_learning_01,N,2014_Jan_20_1734,P01,
stim_fb/ques.jpg,stim_fb/posf.jpg,stim_fb/negf.jpg,stim_01/a.jpg,stim_01/b.jpg,2,1,j,4,11,251,19,j,1,0.93307689011,01,01,60.0237167727,PLT_learning_01,N,2014_Jan_20_1734,P01,
stim_fb/ques.jpg,stim_fb/negf.jpg,stim_fb/posf.jpg,stim_01/b.jpg,stim_01/a.jpg,1,1,f,4,12,252,7,f,1,0.733151899791,01,01,60.0237167727,PLT_learning_01,N,2014_Jan_20_1734,P01,
stim_fb/ques.jpg,stim_fb/negf.jpg,stim_fb/posf.jpg,stim_01/a.jpg,stim_01/b.jpg,2,1,j,4,13,253,16,j,1,0.733133728567,01,01,60.0237167727,PLT_learning_01,N,2014_Jan_20_1734,P01,
stim_fb/ques.jpg,stim_fb/posf.jpg,stim_fb/negf.jpg,stim_01/e.jpg,stim_01/f.jpg,2,3,j,4,14,254,57,f,0,1.09951892272,01,01,60.0237167727,PLT_learning_01,N,2014_Jan_20_1734,P01,
stim_fb/ques.jpg,stim_fb/negf.jpg,stim_fb/posf.jpg,stim_01/f.jpg,stim_01/e.jpg,1,3,f,4,15,255,43,f,1,1.33294564347,01,01,60.0237167727,PLT_learning_01,N,2014_Jan_20_1734,P01,
stim_fb/ques.jpg,stim_fb/negf.jpg,stim_fb/posf.jpg,stim_01/b.jpg,stim_01/a.jpg,1,1,f,4,16,256,2,f,1,0.916426341056,01,01,60.0237167727,PLT_learning_01,N,2014_Jan_20_1734,P01,
stim_fb/ques.jpg,stim_fb/negf.jpg,stim_fb/posf.jpg,stim_01/a.jpg,stim_01/b.jpg,2,1,j,4,17,257,10,j,1,0.533165740236,01,01,60.0237167727,PLT_learning_01,N,2014_Jan_20_1734,P01,
stim_fb/ques.jpg,stim_fb/negf.jpg,stim_fb/posf.jpg,stim_01/b.jpg,stim_01/a.jpg,1,1,f,4,18,258,4,f,1,0.699819719326,01,01,60.0237167727,PLT_learning_01,N,2014_Jan_20_1734,P01,
stim_fb/ques.jpg,stim_fb/posf.jpg,stim_fb/negf.jpg,stim_01/b.jpg,stim_01/a.jpg,1,1,f,4,19,259,8,j,0,0.833127803822,01,01,60.0237167727,PLT_learning_01,N,2014_Jan_20_1734,P01,
stim_fb/ques.jpg,stim_fb/posf.jpg,stim_fb/negf.jpg,stim_01/e.jpg,stim_01/f.jpg,2,3,j,4,20,260,56,j,1,0.999701874039,01,01,60.0237167727,PLT_learning_01,N,2014_Jan_20_1734,P01,
stim_fb/ques.jpg,stim_fb/negf.jpg,stim_fb/posf.jpg,stim_01/f.jpg,stim_01/e.jpg,1,3,f,4,21,261,40,f,1,0.966412607377,01,01,60.0237167727,PLT_learning_01,N,2014_Jan_20_1734,P01,
stim_fb/ques.jpg,stim_fb/negf.jpg,stim_fb/posf.jpg,stim_01/d.jpg,stim_01/c.jpg,1,2,f,4,22,262,20,f,1,0.916408681105,01,01,60.0237167727,PLT_learning_01,N,2014_Jan_20_1734,P01,
stim_fb/ques.jpg,stim_fb/negf.jpg,stim_fb/posf.jpg,stim_01/c.jpg,stim_01/d.jpg,2,2,j,4,23,263,33,j,1,0.716514099465,01,01,60.0237167727,PLT_learning_01,N,2014_Jan_20_1734,P01,
stim_fb/ques.jpg,stim_fb/posf.jpg,stim_fb/negf.jpg,stim_01/d.jpg,stim_01/c.jpg,1,2,f,4,24,264,29,f,1,0.583309851393,01,01,60.0237167727,PLT_learning_01,N,2014_Jan_20_1734,P01,
stim_fb/ques.jpg,stim_fb/posf.jpg,stim_fb/negf.jpg,stim_01/c.jpg,stim_01/d.jpg,2,2,j,4,25,265,39,j,1,0.84978242501,01,01,60.0237167727,PLT_learning_01,N,2014_Jan_20_1734,P01,
stim_fb/ques.jpg,stim_fb/negf.jpg,stim_fb/posf.jpg,stim_01/b.jpg,stim_01/a.jpg,1,1,f,4,26,266,5,f,1,0.499887911038,01,01,60.0237167727,PLT_learning_01,N,2014_Jan_20_1734,P01,
stim_fb/ques.jpg,stim_fb/posf.jpg,stim_fb/negf.jpg,stim_01/d.jpg,stim_01/c.jpg,1,2,f,4,27,267,28,f,1,0.64982232832,01,01,60.0237167727,PLT_learning_01,N,2014_Jan_20_1734,P01,
stim_fb/ques.jpg,stim_fb/posf.jpg,stim_fb/negf.jpg,stim_01/a.jpg,stim_01/b.jpg,2,1,j,4,28,268,18,j,1,0.649881693063,01,01,60.0237167727,PLT_learning_01,N,2014_Jan_20_1734,P01,
stim_fb/ques.jpg,stim_fb/negf.jpg,stim_fb/posf.jpg,stim_01/c.jpg,stim_01/d.jpg,2,2,j,4,29,269,30,j,1,0.499878846479,01,01,60.0237167727,PLT_learning_01,N,2014_Jan_20_1734,P01,
stim_fb/ques.jpg,stim_fb/negf.jpg,stim_fb/posf.jpg,stim_01/a.jpg,stim_01/b.jpg,2,1,j,4,30,270,11,j,1,0.483193759469,01,01,60.0237167727,PLT_learning_01,N,2014_Jan_20_1734,P01,
stim_fb/ques.jpg,stim_fb/posf.jpg,stim_fb/negf.jpg,stim_01/f.jpg,stim_01/e.jpg,1,3,f,4,31,271,46,f,1,1.01631639643,01,01,60.0237167727,PLT_learning_01,N,2014_Jan_20_1734,P01,
stim_fb/ques.jpg,stim_fb/negf.jpg,stim_fb/posf.jpg,stim_01/d.jpg,stim_01/c.jpg,1,2,f,4,32,272,22,f,1,0.699812555497,01,01,60.0237167727,PLT_learning_01,N,2014_Jan_20_1734,P01,
stim_fb/ques.jpg,stim_fb/posf.jpg,stim_fb/negf.jpg,stim_01/f.jpg,stim_01/e.jpg,1,3,f,4,33,273,47,f,1,0.899760538039,01,01,60.0237167727,PLT_learning_01,N,2014_Jan_20_1734,P01,
stim_fb/ques.jpg,stim_fb/negf.jpg,stim_fb/posf.jpg,stim_01/c.jpg,stim_01/d.jpg,2,2,j,4,34,274,32,j,1,0.583188733962,01,01,60.0237167727,PLT_learning_01,N,2014_Jan_20_1734,P01,
stim_fb/ques.jpg,stim_fb/negf.jpg,stim_fb/posf.jpg,stim_01/e.jpg,stim_01/f.jpg,2,3,j,4,35,275,54,j,1,0.999714264876,01,01,60.0237167727,PLT_learning_01,N,2014_Jan_20_1734,P01,
stim_fb/ques.jpg,stim_fb/negf.jpg,stim_fb/posf.jpg,stim_01/c.jpg,stim_01/d.jpg,2,2,j,4,36,276,31,j,1,0.89972252343,01,01,60.0237167727,PLT_learning_01,N,2014_Jan_20_1734,P01,
stim_fb/ques.jpg,stim_fb/negf.jpg,stim_fb/posf.jpg,stim_01/f.jpg,stim_01/e.jpg,1,3,f,4,37,277,41,j,0,0.583121835468,01,01,60.0237167727,PLT_learning_01,N,2014_Jan_20_1734,P01,
stim_fb/ques.jpg,stim_fb/negf.jpg,stim_fb/posf.jpg,stim_01/c.jpg,stim_01/d.jpg,2,2,j,4,38,278,34,j,1,0.533189992594,01,01,60.0237167727,PLT_learning_01,N,2014_Jan_20_1734,P01,
stim_fb/ques.jpg,stim_fb/posf.jpg,stim_fb/negf.jpg,stim_01/f.jpg,stim_01/e.jpg,1,3,f,4,39,279,49,f,1,0.633175520577,01,01,60.0237167727,PLT_learning_01,N,2014_Jan_20_1734,P01,
stim_fb/ques.jpg,stim_fb/negf.jpg,stim_fb/posf.jpg,stim_01/b.jpg,stim_01/a.jpg,1,1,f,4,40,280,6,f,1,0.583195903805,01,01,60.0237167727,PLT_learning_01,N,2014_Jan_20_1734,P01,
stim_fb/ques.jpg,stim_fb/posf.jpg,stim_fb/negf.jpg,stim_01/b.jpg,stim_01/a.jpg,1,1,f,4,41,281,9,f,1,0.549869437563,01,01,60.0237167727,PLT_learning_01,N,2014_Jan_20_1734,P01,
stim_fb/ques.jpg,stim_fb/negf.jpg,stim_fb/posf.jpg,stim_01/d.jpg,stim_01/c.jpg,1,2,f,4,42,282,23,f,1,0.699813881798,01,01,60.0237167727,PLT_learning_01,N,2014_Jan_20_1734,P01,
stim_fb/ques.jpg,stim_fb/posf.jpg,stim_fb/negf.jpg,stim_01/e.jpg,stim_01/f.jpg,2,3,j,4,43,283,59,j,1,0.866436321395,01,01,60.0237167727,PLT_learning_01,N,2014_Jan_20_1734,P01,
stim_fb/ques.jpg,stim_fb/negf.jpg,stim_fb/posf.jpg,stim_01/e.jpg,stim_01/f.jpg,2,3,j,4,44,284,52,f,0,0.449893867362,01,01,60.0237167727,PLT_learning_01,N,2014_Jan_20_1734,P01,
stim_fb/ques.jpg,stim_fb/negf.jpg,stim_fb/posf.jpg,stim_01/e.jpg,stim_01/f.jpg,2,3,j,4,45,285,50,j,1,0.666483316354,01,01,60.0237167727,PLT_learning_01,N,2014_Jan_20_1734,P01,
stim_fb/ques.jpg,stim_fb/posf.jpg,stim_fb/negf.jpg,stim_01/c.jpg,stim_01/d.jpg,2,2,j,4,46,286,37,j,1,0.816419802784,01,01,60.0237167727,PLT_learning_01,N,2014_Jan_20_1734,P01,
stim_fb/ques.jpg,stim_fb/negf.jpg,stim_fb/posf.jpg,stim_01/b.jpg,stim_01/a.jpg,1,1,f,4,47,287,1,f,1,0.566528133892,01,01,60.0237167727,PLT_learning_01,N,2014_Jan_20_1734,P01,
stim_fb/ques.jpg,stim_fb/negf.jpg,stim_fb/posf.jpg,stim_01/b.jpg,stim_01/a.jpg,1,1,f,4,48,288,0,f,1,0.716345403624,01,01,60.0237167727,PLT_learning_01,N,2014_Jan_20_1734,P01,
stim_fb/ques.jpg,stim_fb/negf.jpg,stim_fb/posf.jpg,stim_01/f.jpg,stim_01/e.jpg,1,3,f,4,49,289,44,f,1,1.01641964038,01,01,60.0237167727,PLT_learning_01,N,2014_Jan_20_1734,P01,
stim_fb/ques.jpg,stim_fb/posf.jpg,stim_fb/negf.jpg,stim_01/d.jpg,stim_01/c.jpg,1,2,f,4,50,290,27,f,1,0.899719976091,01,01,60.0237167727,PLT_learning_01,N,2014_Jan_20_1734,P01,
stim_fb/ques.jpg,stim_fb/negf.jpg,stim_fb/posf.jpg,stim_01/a.jpg,stim_01/b.jpg,2,1,j,4,51,291,17,j,1,0.666450706195,01,01,60.0237167727,PLT_learning_01,N,2014_Jan_20_1734,P01,
stim_fb/ques.jpg,stim_fb/negf.jpg,stim_fb/posf.jpg,stim_01/a.jpg,stim_01/b.jpg,2,1,j,4,52,292,15,j,1,0.96639339857,01,01,60.0237167727,PLT_learning_01,N,2014_Jan_20_1734,P01,
stim_fb/ques.jpg,stim_fb/posf.jpg,stim_fb/negf.jpg,stim_01/c.jpg,stim_01/d.jpg,2,2,j,4,53,293,38,f,0,0.933086577219,01,01,60.0237167727,PLT_learning_01,N,2014_Jan_20_1734,P01,
stim_fb/ques.jpg,stim_fb/negf.jpg,stim_fb/posf.jpg,stim_01/d.jpg,stim_01/c.jpg,1,2,f,4,54,294,24,f,1,0.94972432341,01,01,60.0237167727,PLT_learning_01,N,2014_Jan_20_1734,P01,
stim_fb/ques.jpg,stim_fb/posf.jpg,stim_fb/negf.jpg,stim_01/f.jpg,stim_01/e.jpg,1,3,f,4,55,295,48,f,1,1.16630658451,01,01,60.0237167727,PLT_learning_01,N,2014_Jan_20_1734,P01,
stim_fb/ques.jpg,stim_fb/negf.jpg,stim_fb/posf.jpg,stim_01/d.jpg,stim_01/c.jpg,1,2,f,4,56,296,25,f,1,1.01635219152,01,01,60.0237167727,PLT_learning_01,N,2014_Jan_20_1734,P01,
stim_fb/ques.jpg,stim_fb/negf.jpg,stim_fb/posf.jpg,stim_01/a.jpg,stim_01/b.jpg,2,1,j,4,57,297,13,j,1,0.766493809469,01,01,60.0237167727,PLT_learning_01,N,2014_Jan_20_1734,P01,
stim_fb/ques.jpg,stim_fb/negf.jpg,stim_fb/posf.jpg,stim_01/f.jpg,stim_01/e.jpg,1,3,f,4,58,298,42,f,1,1.28295580426,01,01,60.0237167727,PLT_learning_01,N,2014_Jan_20_1734,P01,
stim_fb/ques.jpg,stim_fb/negf.jpg,stim_fb/posf.jpg,stim_01/a.jpg,stim_01/b.jpg,2,1,j,4,59,299,14,j,1,0.649758506483,01,01,60.0237167727,PLT_learning_01,N,2014_Jan_20_1734,P01,
stim_fb/ques.jpg,stim_fb/negf.jpg,stim_fb/posf.jpg,stim_01/f.jpg,stim_01/e.jpg,1,3,f,5,0,300,43,f,1,1.23298701443,01,01,60.0237167727,PLT_learning_01,N,2014_Jan_20_1734,P01,
stim_fb/ques.jpg,stim_fb/negf.jpg,stim_fb/posf.jpg,stim_01/d.jpg,stim_01/c.jpg,1,2,f,5,1,301,24,f,1,0.766459316625,01,01,60.0237167727,PLT_learning_01,N,2014_Jan_20_1734,P01,
stim_fb/ques.jpg,stim_fb/negf.jpg,stim_fb/posf.jpg,stim_01/a.jpg,stim_01/b.jpg,2,1,j,5,2,302,10,j,1,0.666496188389,01,01,60.0237167727,PLT_learning_01,N,2014_Jan_20_1734,P01,
stim_fb/ques.jpg,stim_fb/negf.jpg,stim_fb/posf.jpg,stim_01/e.jpg,stim_01/f.jpg,2,3,j,5,3,303,52,j,1,1.06636354327,01,01,60.0237167727,PLT_learning_01,N,2014_Jan_20_1734,P01,
stim_fb/ques.jpg,stim_fb/negf.jpg,stim_fb/posf.jpg,stim_01/c.jpg,stim_01/d.jpg,2,2,j,5,4,304,31,j,1,0.783123661011,01,01,60.0237167727,PLT_learning_01,N,2014_Jan_20_1734,P01,
stim_fb/ques.jpg,stim_fb/negf.jpg,stim_fb/posf.jpg,stim_01/c.jpg,stim_01/d.jpg,2,2,j,5,5,305,32,f,0,0.699838732646,01,01,60.0237167727,PLT_learning_01,N,2014_Jan_20_1734,P01,
stim_fb/ques.jpg,stim_fb/negf.jpg,stim_fb/posf.jpg,stim_01/d.jpg,stim_01/c.jpg,1,2,f,5,6,306,21,f,1,0.949688155396,01,01,60.0237167727,PLT_learning_01,N,2014_Jan_20_1734,P01,
stim_fb/ques.jpg,stim_fb/negf.jpg,stim_fb/posf.jpg,stim_01/c.jpg,stim_01/d.jpg,2,2,j,5,7,307,34,j,1,0.583187076837,01,01,60.0237167727,PLT_learning_01,N,2014_Jan_20_1734,P01,
stim_fb/ques.jpg,stim_fb/posf.jpg,stim_fb/negf.jpg,stim_01/c.jpg,stim_01/d.jpg,2,2,j,5,8,308,38,j,1,0.583178824299,01,01,60.0237167727,PLT_learning_01,N,2014_Jan_20_1734,P01,
stim_fb/ques.jpg,stim_fb/negf.jpg,stim_fb/posf.jpg,stim_01/a.jpg,stim_01/b.jpg,2,1,j,5,9,309,14,j,1,0.949735273662,01,01,60.0237167727,PLT_learning_01,N,2014_Jan_20_1734,P01,
stim_fb/ques.jpg,stim_fb/negf.jpg,stim_fb/posf.jpg,stim_01/e.jpg,stim_01/f.jpg,2,3,j,5,10,310,53,j,1,1.01634964718,01,01,60.0237167727,PLT_learning_01,N,2014_Jan_20_1734,P01,
stim_fb/ques.jpg,stim_fb/negf.jpg,stim_fb/posf.jpg,stim_01/a.jpg,stim_01/b.jpg,2,1,j,5,11,311,15,j,1,0.683153570449,01,01,60.0237167727,PLT_learning_01,N,2014_Jan_20_1734,P01,
stim_fb/ques.jpg,stim_fb/negf.jpg,stim_fb/posf.jpg,stim_01/d.jpg,stim_01/c.jpg,1,2,f,5,12,312,26,f,1,0.916455131709,01,01,60.0237167727,PLT_learning_01,N,2014_Jan_20_1734,P01,
stim_fb/ques.jpg,stim_fb/negf.jpg,stim_fb/posf.jpg,stim_01/d.jpg,stim_01/c.jpg,1,2,f,5,13,313,22,f,1,0.7164832547,01,01,60.0237167727,PLT_learning_01,N,2014_Jan_20_1734,P01,
stim_fb/ques.jpg,stim_fb/negf.jpg,stim_fb/posf.jpg,stim_01/b.jpg,stim_01/a.jpg,1,1,f,5,14,314,1,f,1,0.799733563907,01,01,60.0237167727,PLT_learning_01,N,2014_Jan_20_1734,P01,
stim_fb/ques.jpg,stim_fb/negf.jpg,stim_fb/posf.jpg,stim_01/c.jpg,stim_01/d.jpg,2,2,j,5,15,315,36,j,1,0.666491232054,01,01,60.0237167727,PLT_learning_01,N,2014_Jan_20_1734,P01,
stim_fb/ques.jpg,stim_fb/posf.jpg,stim_fb/negf.jpg,stim_01/f.jpg,stim_01/e.jpg,1,3,f,5,16,316,48,f,1,1.13300275561,01,01,60.0237167727,PLT_learning_01,N,2014_Jan_20_1734,P01,
stim_fb/ques.jpg,stim_fb/negf.jpg,stim_fb/posf.jpg,stim_01/b.jpg,stim_01/a.jpg,1,1,f,5,17,317,7,f,1,1.09968226524,01,01,60.0237167727,PLT_learning_01,N,2014_Jan_20_1734,P01,
stim_fb/ques.jpg,stim_fb/negf.jpg,stim_fb/posf.jpg,stim_01/d.jpg,stim_01/c.jpg,1,2,f,5,18,318,20,f,1,0.716486692256,01,01,60.0237167727,PLT_learning_01,N,2014_Jan_20_1734,P01,
stim_fb/ques.jpg,stim_fb/negf.jpg,stim_fb/posf.jpg,stim_01/a.jpg,stim_01/b.jpg,2,1,j,5,19,319,16,j,1,0.749866878193,01,01,60.0237167727,PLT_learning_01,N,2014_Jan_20_1734,P01,
stim_fb/ques.jpg,stim_fb/negf.jpg,stim_fb/posf.jpg,stim_01/b.jpg,stim_01/a.jpg,1,1,f,5,20,320,5,f,1,0.583182030278,01,01,60.0237167727,PLT_learning_01,N,2014_Jan_20_1734,P01,
stim_fb/ques.jpg,stim_fb/negf.jpg,stim_fb/posf.jpg,stim_01/e.jpg,stim_01/f.jpg,2,3,j,5,21,321,55,j,1,0.799771443179,01,01,60.0237167727,PLT_learning_01,N,2014_Jan_20_1734,P01,
stim_fb/ques.jpg,stim_fb/posf.jpg,stim_fb/negf.jpg,stim_01/e.jpg,stim_01/f.jpg,2,3,j,5,22,322,56,j,1,0.799823253121,01,01,60.0237167727,PLT_learning_01,N,2014_Jan_20_1734,P01,
stim_fb/ques.jpg,stim_fb/negf.jpg,stim_fb/posf.jpg,stim_01/f.jpg,stim_01/e.jpg,1,3,f,5,23,323,44,f,1,0.816445204002,01,01,60.0237167727,PLT_learning_01,N,2014_Jan_20_1734,P01,
stim_fb/ques.jpg,stim_fb/posf.jpg,stim_fb/negf.jpg,stim_01/f.jpg,stim_01/e.jpg,1,3,f,5,24,324,47,j,0,0.683130232365,01,01,60.0237167727,PLT_learning_01,N,2014_Jan_20_1734,P01,
stim_fb/ques.jpg,stim_fb/negf.jpg,stim_fb/posf.jpg,stim_01/e.jpg,stim_01/f.jpg,2,3,j,5,25,325,50,j,1,1.31627635478,01,01,60.0237167727,PLT_learning_01,N,2014_Jan_20_1734,P01,
stim_fb/ques.jpg,stim_fb/posf.jpg,stim_fb/negf.jpg,stim_01/f.jpg,stim_01/e.jpg,1,3,f,5,26,326,49,j,0,1.06634732992,01,01,60.0237167727,PLT_learning_01,N,2014_Jan_20_1734,P01,
stim_fb/ques.jpg,stim_fb/negf.jpg,stim_fb/posf.jpg,stim_01/a.jpg,stim_01/b.jpg,2,1,j,5,27,327,11,j,1,0.766426228275,01,01,60.0237167727,PLT_learning_01,N,2014_Jan_20_1734,P01,
stim_fb/ques.jpg,stim_fb/posf.jpg,stim_fb/negf.jpg,stim_01/d.jpg,stim_01/c.jpg,1,2,f,5,28,328,29,f,1,0.83313660673,01,01,60.0237167727,PLT_learning_01,N,2014_Jan_20_1734,P01,
stim_fb/ques.jpg,stim_fb/negf.jpg,stim_fb/posf.jpg,stim_01/c.jpg,stim_01/d.jpg,2,2,j,5,29,329,30,j,1,0.799786766314,01,01,60.0237167727,PLT_learning_01,N,2014_Jan_20_1734,P01,
stim_fb/ques.jpg,stim_fb/negf.jpg,stim_fb/posf.jpg,stim_01/d.jpg,stim_01/c.jpg,1,2,f,5,30,330,25,f,1,1.01641415172,01,01,60.0237167727,PLT_learning_01,N,2014_Jan_20_1734,P01,
stim_fb/ques.jpg,stim_fb/posf.jpg,stim_fb/negf.jpg,stim_01/b.jpg,stim_01/a.jpg,1,1,f,5,31,331,8,f,1,0.766450817472,01,01,60.0237167727,PLT_learning_01,N,2014_Jan_20_1734,P01,
stim_fb/ques.jpg,stim_fb/negf.jpg,stim_fb/posf.jpg,stim_01/e.jpg,stim_01/f.jpg,2,3,j,5,32,332,54,f,0,1.13297485216,01,01,60.0237167727,PLT_learning_01,N,2014_Jan_20_1734,P01,
stim_fb/ques.jpg,stim_fb/negf.jpg,stim_fb/posf.jpg,stim_01/f.jpg,stim_01/e.jpg,1,3,f,5,33,333,45,f,1,1.38291587689,01,01,60.0237167727,PLT_learning_01,N,2014_Jan_20_1734,P01,
stim_fb/ques.jpg,stim_fb/posf.jpg,stim_fb/negf.jpg,stim_01/e.jpg,stim_01/f.jpg,2,3,j,5,34,334,58,f,0,0.783115754333,01,01,60.0237167727,PLT_learning_01,N,2014_Jan_20_1734,P01,
stim_fb/ques.jpg,stim_fb/posf.jpg,stim_fb/negf.jpg,stim_01/f.jpg,stim_01/e.jpg,1,3,f,5,35,335,46,f,1,0.683150117856,01,01,60.0237167727,PLT_learning_01,N,2014_Jan_20_1734,P01,
stim_fb/ques.jpg,stim_fb/negf.jpg,stim_fb/posf.jpg,stim_01/b.jpg,stim_01/a.jpg,1,1,f,5,36,336,4,f,1,0.716518511445,01,01,60.0237167727,PLT_learning_01,N,2014_Jan_20_1734,P01,
stim_fb/ques.jpg,stim_fb/posf.jpg,stim_fb/negf.jpg,stim_01/c.jpg,stim_01/d.jpg,2,2,j,5,37,337,39,j,1,0.916386070834,01,01,60.0237167727,PLT_learning_01,N,2014_Jan_20_1734,P01,
stim_fb/ques.jpg,stim_fb/negf.jpg,stim_fb/posf.jpg,stim_01/f.jpg,stim_01/e.jpg,1,3,f,5,38,338,41,f,1,0.783114746826,01,01,60.0237167727,PLT_learning_01,N,2014_Jan_20_1734,P01,
stim_fb/ques.jpg,stim_fb/negf.jpg,stim_fb/posf.jpg,stim_01/a.jpg,stim_01/b.jpg,2,1,j,5,39,339,17,j,1,0.649855615162,01,01,60.0237167727,PLT_learning_01,N,2014_Jan_20_1734,P01,
stim_fb/ques.jpg,stim_fb/negf.jpg,stim_fb/posf.jpg,stim_01/f.jpg,stim_01/e.jpg,1,3,f,5,40,340,40,f,1,0.999702274034,01,01,60.0237167727,PLT_learning_01,N,2014_Jan_20_1734,P01,
stim_fb/ques.jpg,stim_fb/posf.jpg,stim_fb/negf.jpg,stim_01/a.jpg,stim_01/b.jpg,2,1,j,5,41,341,18,j,1,0.516539458577,01,01,60.0237167727,PLT_learning_01,N,2014_Jan_20_1734,P01,
stim_fb/ques.jpg,stim_fb/negf.jpg,stim_fb/posf.jpg,stim_01/b.jpg,stim_01/a.jpg,1,1,f,5,42,342,6,f,1,0.783116843043,01,01,60.0237167727,PLT_learning_01,N,2014_Jan_20_1734,P01,
stim_fb/ques.jpg,stim_fb/posf.jpg,stim_fb/negf.jpg,stim_01/d.jpg,stim_01/c.jpg,1,2,f,5,43,343,27,f,1,0.78308543287,01,01,60.0237167727,PLT_learning_01,N,2014_Jan_20_1734,P01,
stim_fb/ques.jpg,stim_fb/negf.jpg,stim_fb/posf.jpg,stim_01/e.jpg,stim_01/f.jpg,2,3,j,5,44,344,51,j,1,0.549856691842,01,01,60.0237167727,PLT_learning_01,N,2014_Jan_20_1734,P01,
stim_fb/ques.jpg,stim_fb/negf.jpg,stim_fb/posf.jpg,stim_01/b.jpg,stim_01/a.jpg,1,1,f,5,45,345,3,f,1,0.766479406624,01,01,60.0237167727,PLT_learning_01,N,2014_Jan_20_1734,P01,
stim_fb/ques.jpg,stim_fb/negf.jpg,stim_fb/posf.jpg,stim_01/c.jpg,stim_01/d.jpg,2,2,j,5,46,346,33,j,1,0.799803896948,01,01,60.0237167727,PLT_learning_01,N,2014_Jan_20_1734,P01,
stim_fb/ques.jpg,stim_fb/posf.jpg,stim_fb/negf.jpg,stim_01/b.jpg,stim_01/a.jpg,1,1,f,5,47,347,9,f,1,0.799791488066,01,01,60.0237167727,PLT_learning_01,N,2014_Jan_20_1734,P01,
stim_fb/ques.jpg,stim_fb/negf.jpg,stim_fb/posf.jpg,stim_01/c.jpg,stim_01/d.jpg,2,2,j,5,48,348,35,j,1,0.583212583317,01,01,60.0237167727,PLT_learning_01,N,2014_Jan_20_1734,P01,
stim_fb/ques.jpg,stim_fb/negf.jpg,stim_fb/posf.jpg,stim_01/b.jpg,stim_01/a.jpg,1,1,f,5,49,349,0,f,1,0.666486170457,01,01,60.0237167727,PLT_learning_01,N,2014_Jan_20_1734,P01,
stim_fb/ques.jpg,stim_fb/negf.jpg,stim_fb/posf.jpg,stim_01/a.jpg,stim_01/b.jpg,2,1,j,5,50,350,13,j,1,0.916407872091,01,01,60.0237167727,PLT_learning_01,N,2014_Jan_20_1734,P01,
stim_fb/ques.jpg,stim_fb/posf.jpg,stim_fb/negf.jpg,stim_01/d.jpg,stim_01/c.jpg,1,2,f,5,51,351,28,f,1,0.766467731567,01,01,60.0237167727,PLT_learning_01,N,2014_Jan_20_1734,P01,
stim_fb/ques.jpg,stim_fb/negf.jpg,stim_fb/posf.jpg,stim_01/b.jpg,stim_01/a.jpg,1,1,f,5,52,352,2,f,1,0.633156104254,01,01,60.0237167727,PLT_learning_01,N,2014_Jan_20_1734,P01,
stim_fb/ques.jpg,stim_fb/posf.jpg,stim_fb/negf.jpg,stim_01/c.jpg,stim_01/d.jpg,2,2,j,5,53,353,37,j,1,0.633147382548,01,01,60.0237167727,PLT_learning_01,N,2014_Jan_20_1734,P01,
stim_fb/ques.jpg,stim_fb/negf.jpg,stim_fb/posf.jpg,stim_01/a.jpg,stim_01/b.jpg,2,1,j,5,54,354,12,j,1,0.483266826314,01,01,60.0237167727,PLT_learning_01,N,2014_Jan_20_1734,P01,
stim_fb/ques.jpg,stim_fb/negf.jpg,stim_fb/posf.jpg,stim_01/d.jpg,stim_01/c.jpg,1,2,f,5,55,355,23,f,1,1.38292401514,01,01,60.0237167727,PLT_learning_01,N,2014_Jan_20_1734,P01,
stim_fb/ques.jpg,stim_fb/posf.jpg,stim_fb/negf.jpg,stim_01/a.jpg,stim_01/b.jpg,2,1,j,5,56,356,19,j,1,0.583231016192,01,01,60.0237167727,PLT_learning_01,N,2014_Jan_20_1734,P01,
stim_fb/ques.jpg,stim_fb/posf.jpg,stim_fb/negf.jpg,stim_01/e.jpg,stim_01/f.jpg,2,3,j,5,57,357,59,f,0,1.38295006598,01,01,60.0237167727,PLT_learning_01,N,2014_Jan_20_1734,P01,
stim_fb/ques.jpg,stim_fb/negf.jpg,stim_fb/posf.jpg,stim_01/f.jpg,stim_01/e.jpg,1,3,f,5,58,358,42,f,1,1.06634074954,01,01,60.0237167727,PLT_learning_01,N,2014_Jan_20_1734,P01,
stim_fb/ques.jpg,stim_fb/posf.jpg,stim_fb/negf.jpg,stim_01/e.jpg,stim_01/f.jpg,2,3,j,5,59,359,57,j,1,0.999715010733,01,01,60.0237167727,PLT_learning_01,N,2014_Jan_20_1734,P01,
