Fb3,Fb2,Fb1,Symbol2,Symbol1,PosCond,Pair,Correct,trials.thisRepN,trials.thisTrialN,trials.thisN,trials.thisIndex,Response.keys,Response.corr,Response.rt,Version,Session Number,frameRate,expName,StimCondition,date,Participant,
stim_fb/ques.jpg,stim_fb/posf.jpg,stim_fb/negf.jpg,stim_01/e.jpg,stim_01/f.jpg,2,3,j,0,0,0,58,f,0,1.09968383032,01,01,60.0240193558,PLT_learning_01,N,2014_Jan_21_1725,P02,
stim_fb/ques.jpg,stim_fb/negf.jpg,stim_fb/posf.jpg,stim_01/d.jpg,stim_01/c.jpg,1,2,f,0,1,1,24,f,1,0.849765991489,01,01,60.0240193558,PLT_learning_01,N,2014_Jan_21_1725,P02,
stim_fb/ques.jpg,stim_fb/negf.jpg,stim_fb/posf.jpg,stim_01/b.jpg,stim_01/a.jpg,1,1,f,0,2,2,2,j,0,1.01637158539,01,01,60.0240193558,PLT_learning_01,N,2014_Jan_21_1725,P02,
stim_fb/ques.jpg,stim_fb/negf.jpg,stim_fb/posf.jpg,stim_01/a.jpg,stim_01/b.jpg,2,1,j,0,3,3,14,f,0,1.21630047668,01,01,60.0240193558,PLT_learning_01,N,2014_Jan_21_1725,P02,
stim_fb/ques.jpg,stim_fb/negf.jpg,stim_fb/posf.jpg,stim_01/e.jpg,stim_01/f.jpg,2,3,j,0,4,4,53,f,0,1.13296408174,01,01,60.0240193558,PLT_learning_01,N,2014_Jan_21_1725,P02,
stim_fb/ques.jpg,stim_fb/negf.jpg,stim_fb/posf.jpg,stim_01/b.jpg,stim_01/a.jpg,1,1,f,0,5,5,0,j,0,1.28294560082,01,01,60.0240193558,PLT_learning_01,N,2014_Jan_21_1725,P02,
stim_fb/ques.jpg,stim_fb/negf.jpg,stim_fb/posf.jpg,stim_01/c.jpg,stim_01/d.jpg,2,2,j,0,6,6,30,j,1,1.23296203666,01,01,60.0240193558,PLT_learning_01,N,2014_Jan_21_1725,P02,
stim_fb/ques.jpg,stim_fb/negf.jpg,stim_fb/posf.jpg,stim_01/c.jpg,stim_01/d.jpg,2,2,j,0,7,7,36,j,1,0.966392908377,01,01,60.0240193558,PLT_learning_01,N,2014_Jan_21_1725,P02,
stim_fb/ques.jpg,stim_fb/negf.jpg,stim_fb/posf.jpg,stim_01/a.jpg,stim_01/b.jpg,2,1,j,0,8,8,16,j,1,1.53287315379,01,01,60.0240193558,PLT_learning_01,N,2014_Jan_21_1725,P02,
stim_fb/ques.jpg,stim_fb/posf.jpg,stim_fb/negf.jpg,stim_01/e.jpg,stim_01/f.jpg,2,3,j,0,9,9,57,j,1,1.5495272041,01,01,60.0240193558,PLT_learning_01,N,2014_Jan_21_1725,P02,
stim_fb/ques.jpg,stim_fb/negf.jpg,stim_fb/posf.jpg,stim_01/d.jpg,stim_01/c.jpg,1,2,f,0,10,10,20,f,1,1.24962869731,01,01,60.0240193558,PLT_learning_01,N,2014_Jan_21_1725,P02,
stim_fb/ques.jpg,stim_fb/negf.jpg,stim_fb/posf.jpg,stim_01/c.jpg,stim_01/d.jpg,2,2,j,0,11,11,32,j,1,1.01641515165,01,01,60.0240193558,PLT_learning_01,N,2014_Jan_21_1725,P02,
stim_fb/ques.jpg,stim_fb/negf.jpg,stim_fb/posf.jpg,stim_01/d.jpg,stim_01/c.jpg,1,2,f,0,12,12,26,f,1,0.999701821025,01,01,60.0240193558,PLT_learning_01,N,2014_Jan_21_1725,P02,
stim_fb/ques.jpg,stim_fb/negf.jpg,stim_fb/posf.jpg,stim_01/d.jpg,stim_01/c.jpg,1,2,f,0,13,13,22,f,1,0.899720479391,01,01,60.0240193558,PLT_learning_01,N,2014_Jan_21_1725,P02,
stim_fb/ques.jpg,stim_fb/negf.jpg,stim_fb/posf.jpg,stim_01/c.jpg,stim_01/d.jpg,2,2,j,0,14,14,35,j,1,1.04969543014,01,01,60.0240193558,PLT_learning_01,N,2014_Jan_21_1725,P02,
stim_fb/ques.jpg,stim_fb/negf.jpg,stim_fb/posf.jpg,stim_01/f.jpg,stim_01/e.jpg,1,3,f,0,15,15,42,j,0,1.16634242793,01,01,60.0240193558,PLT_learning_01,N,2014_Jan_21_1725,P02,
stim_fb/ques.jpg,stim_fb/negf.jpg,stim_fb/posf.jpg,stim_01/c.jpg,stim_01/d.jpg,2,2,j,0,16,16,34,j,1,1.01639953384,01,01,60.0240193558,PLT_learning_01,N,2014_Jan_21_1725,P02,
stim_fb/ques.jpg,stim_fb/negf.jpg,stim_fb/posf.jpg,stim_01/e.jpg,stim_01/f.jpg,2,3,j,0,17,17,55,f,0,1.09965537962,01,01,60.0240193558,PLT_learning_01,N,2014_Jan_21_1725,P02,
stim_fb/ques.jpg,stim_fb/posf.jpg,stim_fb/negf.jpg,stim_01/f.jpg,stim_01/e.jpg,1,3,f,0,18,18,49,f,1,1.63280029473,01,01,60.0240193558,PLT_learning_01,N,2014_Jan_21_1725,P02,
stim_fb/ques.jpg,stim_fb/negf.jpg,stim_fb/posf.jpg,stim_01/d.jpg,stim_01/c.jpg,1,2,f,0,19,19,25,f,1,1.0164161381,01,01,60.0240193558,PLT_learning_01,N,2014_Jan_21_1725,P02,
stim_fb/ques.jpg,stim_fb/negf.jpg,stim_fb/posf.jpg,stim_01/f.jpg,stim_01/e.jpg,1,3,f,0,20,20,40,j,0,0.899697397032,01,01,60.0240193558,PLT_learning_01,N,2014_Jan_21_1725,P02,
stim_fb/ques.jpg,stim_fb/posf.jpg,stim_fb/negf.jpg,stim_01/b.jpg,stim_01/a.jpg,1,1,f,0,21,21,8,f,1,1.44953374536,01,01,60.0240193558,PLT_learning_01,N,2014_Jan_21_1725,P02,
stim_fb/ques.jpg,stim_fb/negf.jpg,stim_fb/posf.jpg,stim_01/a.jpg,stim_01/b.jpg,2,1,j,0,22,22,17,f,0,1.01641142539,01,01,60.0240193558,PLT_learning_01,N,2014_Jan_21_1725,P02,
stim_fb/ques.jpg,stim_fb/negf.jpg,stim_fb/posf.jpg,stim_01/d.jpg,stim_01/c.jpg,1,2,f,0,23,23,23,f,1,0.88308618517,01,01,60.0240193558,PLT_learning_01,N,2014_Jan_21_1725,P02,
stim_fb/ques.jpg,stim_fb/posf.jpg,stim_fb/negf.jpg,stim_01/f.jpg,stim_01/e.jpg,1,3,f,0,24,24,48,j,0,1.09966888017,01,01,60.0240193558,PLT_learning_01,N,2014_Jan_21_1725,P02,
stim_fb/ques.jpg,stim_fb/posf.jpg,stim_fb/negf.jpg,stim_01/c.jpg,stim_01/d.jpg,2,2,j,0,25,25,39,j,1,0.98305121126,01,01,60.0240193558,PLT_learning_01,N,2014_Jan_21_1725,P02,
stim_fb/ques.jpg,stim_fb/negf.jpg,stim_fb/posf.jpg,stim_01/f.jpg,stim_01/e.jpg,1,3,f,0,26,26,43,j,0,0.883063463707,01,01,60.0240193558,PLT_learning_01,N,2014_Jan_21_1725,P02,
stim_fb/ques.jpg,stim_fb/posf.jpg,stim_fb/negf.jpg,stim_01/a.jpg,stim_01/b.jpg,2,1,j,0,27,27,18,j,1,1.46623149727,01,01,60.0240193558,PLT_learning_01,N,2014_Jan_21_1725,P02,
stim_fb/ques.jpg,stim_fb/negf.jpg,stim_fb/posf.jpg,stim_01/b.jpg,stim_01/a.jpg,1,1,f,0,28,28,3,j,0,1.16637737778,01,01,60.0240193558,PLT_learning_01,N,2014_Jan_21_1725,P02,
stim_fb/ques.jpg,stim_fb/posf.jpg,stim_fb/negf.jpg,stim_01/b.jpg,stim_01/a.jpg,1,1,f,0,29,29,9,f,1,0.666482446881,01,01,60.0240193558,PLT_learning_01,N,2014_Jan_21_1725,P02,
stim_fb/ques.jpg,stim_fb/posf.jpg,stim_fb/negf.jpg,stim_01/c.jpg,stim_01/d.jpg,2,2,j,0,30,30,37,j,1,0.866406315695,01,01,60.0240193558,PLT_learning_01,N,2014_Jan_21_1725,P02,
stim_fb/ques.jpg,stim_fb/negf.jpg,stim_fb/posf.jpg,stim_01/a.jpg,stim_01/b.jpg,2,1,j,0,31,31,13,None,0,,01,01,60.0240193558,PLT_learning_01,N,2014_Jan_21_1725,P02,
stim_fb/ques.jpg,stim_fb/negf.jpg,stim_fb/posf.jpg,stim_01/e.jpg,stim_01/f.jpg,2,3,j,0,32,32,50,f,0,0.699819317003,01,01,60.0240193558,PLT_learning_01,N,2014_Jan_21_1725,P02,
stim_fb/ques.jpg,stim_fb/negf.jpg,stim_fb/posf.jpg,stim_01/a.jpg,stim_01/b.jpg,2,1,j,0,33,33,12,f,0,0.499832619058,01,01,60.0240193558,PLT_learning_01,N,2014_Jan_21_1725,P02,
stim_fb/ques.jpg,stim_fb/negf.jpg,stim_fb/posf.jpg,stim_01/d.jpg,stim_01/c.jpg,1,2,f,0,34,34,21,f,1,0.816318882423,01,01,60.0240193558,PLT_learning_01,N,2014_Jan_21_1725,P02,
stim_fb/ques.jpg,stim_fb/negf.jpg,stim_fb/posf.jpg,stim_01/b.jpg,stim_01/a.jpg,1,1,f,0,35,35,6,j,0,0.949706825461,01,01,60.0240193558,PLT_learning_01,N,2014_Jan_21_1725,P02,
stim_fb/ques.jpg,stim_fb/negf.jpg,stim_fb/posf.jpg,stim_01/f.jpg,stim_01/e.jpg,1,3,f,0,36,36,45,j,0,1.53282551541,01,01,60.0240193558,PLT_learning_01,N,2014_Jan_21_1725,P02,
stim_fb/ques.jpg,stim_fb/posf.jpg,stim_fb/negf.jpg,stim_01/e.jpg,stim_01/f.jpg,2,3,j,0,37,37,56,f,0,1.21629019112,01,01,60.0240193558,PLT_learning_01,N,2014_Jan_21_1725,P02,
stim_fb/ques.jpg,stim_fb/negf.jpg,stim_fb/posf.jpg,stim_01/e.jpg,stim_01/f.jpg,2,3,j,0,38,38,52,f,0,0.816457406655,01,01,60.0240193558,PLT_learning_01,N,2014_Jan_21_1725,P02,
stim_fb/ques.jpg,stim_fb/negf.jpg,stim_fb/posf.jpg,stim_01/e.jpg,stim_01/f.jpg,2,3,j,0,39,39,54,f,0,0.683158911896,01,01,60.0240193558,PLT_learning_01,N,2014_Jan_21_1725,P02,
stim_fb/ques.jpg,stim_fb/negf.jpg,stim_fb/posf.jpg,stim_01/f.jpg,stim_01/e.jpg,1,3,f,0,40,40,44,j,0,0.799777010872,01,01,60.0240193558,PLT_learning_01,N,2014_Jan_21_1725,P02,
stim_fb/ques.jpg,stim_fb/negf.jpg,stim_fb/posf.jpg,stim_01/f.jpg,stim_01/e.jpg,1,3,f,0,41,41,41,f,1,1.31626695238,01,01,60.0240193558,PLT_learning_01,N,2014_Jan_21_1725,P02,
stim_fb/ques.jpg,stim_fb/negf.jpg,stim_fb/posf.jpg,stim_01/b.jpg,stim_01/a.jpg,1,1,f,0,42,42,1,f,1,1.11634279785,01,01,60.0240193558,PLT_learning_01,N,2014_Jan_21_1725,P02,
stim_fb/ques.jpg,stim_fb/posf.jpg,stim_fb/negf.jpg,stim_01/e.jpg,stim_01/f.jpg,2,3,j,0,43,43,59,f,0,1.03304216478,01,01,60.0240193558,PLT_learning_01,N,2014_Jan_21_1725,P02,
stim_fb/ques.jpg,stim_fb/posf.jpg,stim_fb/negf.jpg,stim_01/f.jpg,stim_01/e.jpg,1,3,f,0,44,44,46,f,1,0.89973059954,01,01,60.0240193558,PLT_learning_01,N,2014_Jan_21_1725,P02,
stim_fb/ques.jpg,stim_fb/posf.jpg,stim_fb/negf.jpg,stim_01/a.jpg,stim_01/b.jpg,2,1,j,0,45,45,19,j,1,1.09971419678,01,01,60.0240193558,PLT_learning_01,N,2014_Jan_21_1725,P02,
stim_fb/ques.jpg,stim_fb/posf.jpg,stim_fb/negf.jpg,stim_01/f.jpg,stim_01/e.jpg,1,3,f,0,46,46,47,None,0,,01,01,60.0240193558,PLT_learning_01,N,2014_Jan_21_1725,P02,
stim_fb/ques.jpg,stim_fb/negf.jpg,stim_fb/posf.jpg,stim_01/c.jpg,stim_01/d.jpg,2,2,j,0,47,47,31,j,1,0.749778604833,01,01,60.0240193558,PLT_learning_01,N,2014_Jan_21_1725,P02,
stim_fb/ques.jpg,stim_fb/posf.jpg,stim_fb/negf.jpg,stim_01/d.jpg,stim_01/c.jpg,1,2,f,0,48,48,29,f,1,0.849784806243,01,01,60.0240193558,PLT_learning_01,N,2014_Jan_21_1725,P02,
stim_fb/ques.jpg,stim_fb/negf.jpg,stim_fb/posf.jpg,stim_01/b.jpg,stim_01/a.jpg,1,1,f,0,49,49,5,j,0,0.633162869731,01,01,60.0240193558,PLT_learning_01,N,2014_Jan_21_1725,P02,
stim_fb/ques.jpg,stim_fb/negf.jpg,stim_fb/posf.jpg,stim_01/e.jpg,stim_01/f.jpg,2,3,j,0,50,50,51,f,0,0.633191594111,01,01,60.0240193558,PLT_learning_01,N,2014_Jan_21_1725,P02,
stim_fb/ques.jpg,stim_fb/negf.jpg,stim_fb/posf.jpg,stim_01/a.jpg,stim_01/b.jpg,2,1,j,0,51,51,10,f,0,0.533167627555,01,01,60.0240193558,PLT_learning_01,N,2014_Jan_21_1725,P02,
stim_fb/ques.jpg,stim_fb/posf.jpg,stim_fb/negf.jpg,stim_01/c.jpg,stim_01/d.jpg,2,2,j,0,52,52,38,j,1,0.666476928167,01,01,60.0240193558,PLT_learning_01,N,2014_Jan_21_1725,P02,
stim_fb/ques.jpg,stim_fb/posf.jpg,stim_fb/negf.jpg,stim_01/d.jpg,stim_01/c.jpg,1,2,f,0,53,53,28,f,1,0.766488383633,01,01,60.0240193558,PLT_learning_01,N,2014_Jan_21_1725,P02,
stim_fb/ques.jpg,stim_fb/negf.jpg,stim_fb/posf.jpg,stim_01/a.jpg,stim_01/b.jpg,2,1,j,0,54,54,11,f,0,0.699828510849,01,01,60.0240193558,PLT_learning_01,N,2014_Jan_21_1725,P02,
stim_fb/ques.jpg,stim_fb/negf.jpg,stim_fb/posf.jpg,stim_01/b.jpg,stim_01/a.jpg,1,1,f,0,55,55,4,j,0,0.583175916152,01,01,60.0240193558,PLT_learning_01,N,2014_Jan_21_1725,P02,
stim_fb/ques.jpg,stim_fb/negf.jpg,stim_fb/posf.jpg,stim_01/a.jpg,stim_01/b.jpg,2,1,j,0,56,56,15,j,1,0.849754767597,01,01,60.0240193558,PLT_learning_01,N,2014_Jan_21_1725,P02,
stim_fb/ques.jpg,stim_fb/posf.jpg,stim_fb/negf.jpg,stim_01/d.jpg,stim_01/c.jpg,1,2,f,0,57,57,27,f,1,0.849744343694,01,01,60.0240193558,PLT_learning_01,N,2014_Jan_21_1725,P02,
stim_fb/ques.jpg,stim_fb/negf.jpg,stim_fb/posf.jpg,stim_01/c.jpg,stim_01/d.jpg,2,2,j,0,58,58,33,j,1,0.716477460489,01,01,60.0240193558,PLT_learning_01,N,2014_Jan_21_1725,P02,
stim_fb/ques.jpg,stim_fb/negf.jpg,stim_fb/posf.jpg,stim_01/b.jpg,stim_01/a.jpg,1,1,f,0,59,59,7,j,0,0.899729041668,01,01,60.0240193558,PLT_learning_01,N,2014_Jan_21_1725,P02,
stim_fb/ques.jpg,stim_fb/posf.jpg,stim_fb/negf.jpg,stim_01/b.jpg,stim_01/a.jpg,1,1,f,1,0,60,8,j,0,0.583180156689,01,01,60.0240193558,PLT_learning_01,N,2014_Jan_21_1725,P02,
stim_fb/ques.jpg,stim_fb/negf.jpg,stim_fb/posf.jpg,stim_01/d.jpg,stim_01/c.jpg,1,2,f,1,1,61,21,f,1,0.749797317334,01,01,60.0240193558,PLT_learning_01,N,2014_Jan_21_1725,P02,
stim_fb/ques.jpg,stim_fb/posf.jpg,stim_fb/negf.jpg,stim_01/c.jpg,stim_01/d.jpg,2,2,j,1,2,62,39,j,1,0.749794219636,01,01,60.0240193558,PLT_learning_01,N,2014_Jan_21_1725,P02,
stim_fb/ques.jpg,stim_fb/negf.jpg,stim_fb/posf.jpg,stim_01/a.jpg,stim_01/b.jpg,2,1,j,1,3,63,14,j,1,0.666484931054,01,01,60.0240193558,PLT_learning_01,N,2014_Jan_21_1725,P02,
stim_fb/ques.jpg,stim_fb/negf.jpg,stim_fb/posf.jpg,stim_01/f.jpg,stim_01/e.jpg,1,3,f,1,4,64,42,f,1,0.449882031849,01,01,60.0240193558,PLT_learning_01,N,2014_Jan_21_1725,P02,
stim_fb/ques.jpg,stim_fb/negf.jpg,stim_fb/posf.jpg,stim_01/d.jpg,stim_01/c.jpg,1,2,f,1,5,65,22,f,1,0.399920392174,01,01,60.0240193558,PLT_learning_01,N,2014_Jan_21_1725,P02,
stim_fb/ques.jpg,stim_fb/negf.jpg,stim_fb/posf.jpg,stim_01/d.jpg,stim_01/c.jpg,1,2,f,1,6,66,25,f,1,0.799779498053,01,01,60.0240193558,PLT_learning_01,N,2014_Jan_21_1725,P02,
stim_fb/ques.jpg,stim_fb/posf.jpg,stim_fb/negf.jpg,stim_01/f.jpg,stim_01/e.jpg,1,3,f,1,7,67,46,f,1,0.666487779131,01,01,60.0240193558,PLT_learning_01,N,2014_Jan_21_1725,P02,
stim_fb/ques.jpg,stim_fb/posf.jpg,stim_fb/negf.jpg,stim_01/d.jpg,stim_01/c.jpg,1,2,f,1,8,68,27,j,0,0.299960719388,01,01,60.0240193558,PLT_learning_01,N,2014_Jan_21_1725,P02,
stim_fb/ques.jpg,stim_fb/posf.jpg,stim_fb/negf.jpg,stim_01/d.jpg,stim_01/c.jpg,1,2,f,1,9,69,28,f,1,0.283277583796,01,01,60.0240193558,PLT_learning_01,N,2014_Jan_21_1725,P02,
stim_fb/ques.jpg,stim_fb/negf.jpg,stim_fb/posf.jpg,stim_01/c.jpg,stim_01/d.jpg,2,2,j,1,10,70,35,j,1,0.266611052465,01,01,60.0240193558,PLT_learning_01,N,2014_Jan_21_1725,P02,
stim_fb/ques.jpg,stim_fb/posf.jpg,stim_fb/negf.jpg,stim_01/c.jpg,stim_01/d.jpg,2,2,j,1,11,71,37,j,1,0.699803861596,01,01,60.0240193558,PLT_learning_01,N,2014_Jan_21_1725,P02,
stim_fb/ques.jpg,stim_fb/posf.jpg,stim_fb/negf.jpg,stim_01/f.jpg,stim_01/e.jpg,1,3,f,1,12,72,48,j,0,0.799770869611,01,01,60.0240193558,PLT_learning_01,N,2014_Jan_21_1725,P02,
stim_fb/ques.jpg,stim_fb/negf.jpg,stim_fb/posf.jpg,stim_01/b.jpg,stim_01/a.jpg,1,1,f,1,13,73,6,f,1,0.633169407979,01,01,60.0240193558,PLT_learning_01,N,2014_Jan_21_1725,P02,
stim_fb/ques.jpg,stim_fb/negf.jpg,stim_fb/posf.jpg,stim_01/a.jpg,stim_01/b.jpg,2,1,j,1,14,74,10,f,0,0.483221004195,01,01,60.0240193558,PLT_learning_01,N,2014_Jan_21_1725,P02,
stim_fb/ques.jpg,stim_fb/negf.jpg,stim_fb/posf.jpg,stim_01/e.jpg,stim_01/f.jpg,2,3,j,1,15,75,51,j,1,0.74978517917,01,01,60.0240193558,PLT_learning_01,N,2014_Jan_21_1725,P02,
stim_fb/ques.jpg,stim_fb/negf.jpg,stim_fb/posf.jpg,stim_01/d.jpg,stim_01/c.jpg,1,2,f,1,16,76,26,f,1,0.633201627043,01,01,60.0240193558,PLT_learning_01,N,2014_Jan_21_1725,P02,
stim_fb/ques.jpg,stim_fb/negf.jpg,stim_fb/posf.jpg,stim_01/c.jpg,stim_01/d.jpg,2,2,j,1,17,77,31,j,1,0.699802760861,01,01,60.0240193558,PLT_learning_01,N,2014_Jan_21_1725,P02,
stim_fb/ques.jpg,stim_fb/negf.jpg,stim_fb/posf.jpg,stim_01/e.jpg,stim_01/f.jpg,2,3,j,1,18,78,50,j,1,1.06634904137,01,01,60.0240193558,PLT_learning_01,N,2014_Jan_21_1725,P02,
stim_fb/ques.jpg,stim_fb/negf.jpg,stim_fb/posf.jpg,stim_01/f.jpg,stim_01/e.jpg,1,3,f,1,19,79,41,f,1,1.0830125141,01,01,60.0240193558,PLT_learning_01,N,2014_Jan_21_1725,P02,
stim_fb/ques.jpg,stim_fb/posf.jpg,stim_fb/negf.jpg,stim_01/b.jpg,stim_01/a.jpg,1,1,f,1,20,80,9,f,1,1.01638368446,01,01,60.0240193558,PLT_learning_01,N,2014_Jan_21_1725,P02,
stim_fb/ques.jpg,stim_fb/negf.jpg,stim_fb/posf.jpg,stim_01/b.jpg,stim_01/a.jpg,1,1,f,1,21,81,5,j,0,0.549891231711,01,01,60.0240193558,PLT_learning_01,N,2014_Jan_21_1725,P02,
stim_fb/ques.jpg,stim_fb/negf.jpg,stim_fb/posf.jpg,stim_01/a.jpg,stim_01/b.jpg,2,1,j,1,22,82,13,f,0,0.666487869355,01,01,60.0240193558,PLT_learning_01,N,2014_Jan_21_1725,P02,
stim_fb/ques.jpg,stim_fb/negf.jpg,stim_fb/posf.jpg,stim_01/e.jpg,stim_01/f.jpg,2,3,j,1,23,83,54,f,0,0.683199711283,01,01,60.0240193558,PLT_learning_01,N,2014_Jan_21_1725,P02,
stim_fb/ques.jpg,stim_fb/posf.jpg,stim_fb/negf.jpg,stim_01/e.jpg,stim_01/f.jpg,2,3,j,1,24,84,56,j,1,0.599826619149,01,01,60.0240193558,PLT_learning_01,N,2014_Jan_21_1725,P02,
stim_fb/ques.jpg,stim_fb/negf.jpg,stim_fb/posf.jpg,stim_01/b.jpg,stim_01/a.jpg,1,1,f,1,25,85,1,j,0,0.666488109953,01,01,60.0240193558,PLT_learning_01,N,2014_Jan_21_1725,P02,
stim_fb/ques.jpg,stim_fb/posf.jpg,stim_fb/negf.jpg,stim_01/e.jpg,stim_01/f.jpg,2,3,j,1,26,86,57,f,0,0.899716747117,01,01,60.0240193558,PLT_learning_01,N,2014_Jan_21_1725,P02,
stim_fb/ques.jpg,stim_fb/negf.jpg,stim_fb/posf.jpg,stim_01/c.jpg,stim_01/d.jpg,2,2,j,1,27,87,36,j,1,0.833077442445,01,01,60.0240193558,PLT_learning_01,N,2014_Jan_21_1725,P02,
stim_fb/ques.jpg,stim_fb/posf.jpg,stim_fb/negf.jpg,stim_01/c.jpg,stim_01/d.jpg,2,2,j,1,28,88,38,j,1,0.766476046977,01,01,60.0240193558,PLT_learning_01,N,2014_Jan_21_1725,P02,
stim_fb/ques.jpg,stim_fb/negf.jpg,stim_fb/posf.jpg,stim_01/b.jpg,stim_01/a.jpg,1,1,f,1,29,89,7,f,1,0.866436823506,01,01,60.0240193558,PLT_learning_01,N,2014_Jan_21_1725,P02,
stim_fb/ques.jpg,stim_fb/negf.jpg,stim_fb/posf.jpg,stim_01/e.jpg,stim_01/f.jpg,2,3,j,1,30,90,55,f,0,0.733141742229,01,01,60.0240193558,PLT_learning_01,N,2014_Jan_21_1725,P02,
stim_fb/ques.jpg,stim_fb/posf.jpg,stim_fb/negf.jpg,stim_01/f.jpg,stim_01/e.jpg,1,3,f,1,31,91,47,j,0,0.816401627043,01,01,60.0240193558,PLT_learning_01,N,2014_Jan_21_1725,P02,
stim_fb/ques.jpg,stim_fb/negf.jpg,stim_fb/posf.jpg,stim_01/b.jpg,stim_01/a.jpg,1,1,f,1,32,92,3,j,0,0.83309785116,01,01,60.0240193558,PLT_learning_01,N,2014_Jan_21_1725,P02,
stim_fb/ques.jpg,stim_fb/posf.jpg,stim_fb/negf.jpg,stim_01/a.jpg,stim_01/b.jpg,2,1,j,1,33,93,18,f,0,0.633195503827,01,01,60.0240193558,PLT_learning_01,N,2014_Jan_21_1725,P02,
stim_fb/ques.jpg,stim_fb/negf.jpg,stim_fb/posf.jpg,stim_01/c.jpg,stim_01/d.jpg,2,2,j,1,34,94,34,j,1,0.816443457993,01,01,60.0240193558,PLT_learning_01,N,2014_Jan_21_1725,P02,
stim_fb/ques.jpg,stim_fb/negf.jpg,stim_fb/posf.jpg,stim_01/c.jpg,stim_01/d.jpg,2,2,j,1,35,95,32,j,1,0.68316639449,01,01,60.0240193558,PLT_learning_01,N,2014_Jan_21_1725,P02,
stim_fb/ques.jpg,stim_fb/negf.jpg,stim_fb/posf.jpg,stim_01/a.jpg,stim_01/b.jpg,2,1,j,1,36,96,15,j,1,0.883083812274,01,01,60.0240193558,PLT_learning_01,N,2014_Jan_21_1725,P02,
stim_fb/ques.jpg,stim_fb/negf.jpg,stim_fb/posf.jpg,stim_01/e.jpg,stim_01/f.jpg,2,3,j,1,37,97,52,f,0,0.549866916287,01,01,60.0240193558,PLT_learning_01,N,2014_Jan_21_1725,P02,
stim_fb/ques.jpg,stim_fb/negf.jpg,stim_fb/posf.jpg,stim_01/a.jpg,stim_01/b.jpg,2,1,j,1,38,98,16,j,1,0.483198848138,01,01,60.0240193558,PLT_learning_01,N,2014_Jan_21_1725,P02,
stim_fb/ques.jpg,stim_fb/negf.jpg,stim_fb/posf.jpg,stim_01/f.jpg,stim_01/e.jpg,1,3,f,1,39,99,44,j,0,0.849785380671,01,01,60.0240193558,PLT_learning_01,N,2014_Jan_21_1725,P02,
stim_fb/ques.jpg,stim_fb/negf.jpg,stim_fb/posf.jpg,stim_01/a.jpg,stim_01/b.jpg,2,1,j,1,40,100,11,f,0,0.799735585931,01,01,60.0240193558,PLT_learning_01,N,2014_Jan_21_1725,P02,
stim_fb/ques.jpg,stim_fb/negf.jpg,stim_fb/posf.jpg,stim_01/f.jpg,stim_01/e.jpg,1,3,f,1,41,101,40,f,1,1.26629308732,01,01,60.0240193558,PLT_learning_01,N,2014_Jan_21_1725,P02,
stim_fb/ques.jpg,stim_fb/posf.jpg,stim_fb/negf.jpg,stim_01/e.jpg,stim_01/f.jpg,2,3,j,1,42,102,58,j,1,0.749882561164,01,01,60.0240193558,PLT_learning_01,N,2014_Jan_21_1725,P02,
stim_fb/ques.jpg,stim_fb/negf.jpg,stim_fb/posf.jpg,stim_01/a.jpg,stim_01/b.jpg,2,1,j,1,43,103,17,f,0,0.949707258538,01,01,60.0240193558,PLT_learning_01,N,2014_Jan_21_1725,P02,
stim_fb/ques.jpg,stim_fb/negf.jpg,stim_fb/posf.jpg,stim_01/b.jpg,stim_01/a.jpg,1,1,f,1,44,104,2,j,0,0.649834504744,01,01,60.0240193558,PLT_learning_01,N,2014_Jan_21_1725,P02,
stim_fb/ques.jpg,stim_fb/negf.jpg,stim_fb/posf.jpg,stim_01/f.jpg,stim_01/e.jpg,1,3,f,1,45,105,45,f,1,0.816424342491,01,01,60.0240193558,PLT_learning_01,N,2014_Jan_21_1725,P02,
stim_fb/ques.jpg,stim_fb/posf.jpg,stim_fb/negf.jpg,stim_01/e.jpg,stim_01/f.jpg,2,3,j,1,46,106,59,j,1,0.733155504429,01,01,60.0240193558,PLT_learning_01,N,2014_Jan_21_1725,P02,
stim_fb/ques.jpg,stim_fb/negf.jpg,stim_fb/posf.jpg,stim_01/a.jpg,stim_01/b.jpg,2,1,j,1,47,107,12,j,1,0.916386658847,01,01,60.0240193558,PLT_learning_01,N,2014_Jan_21_1725,P02,
stim_fb/ques.jpg,stim_fb/posf.jpg,stim_fb/negf.jpg,stim_01/f.jpg,stim_01/e.jpg,1,3,f,1,48,108,49,f,1,0.966405900663,01,01,60.0240193558,PLT_learning_01,N,2014_Jan_21_1725,P02,
stim_fb/ques.jpg,stim_fb/negf.jpg,stim_fb/posf.jpg,stim_01/d.jpg,stim_01/c.jpg,1,2,f,1,49,109,24,f,1,0.933059160013,01,01,60.0240193558,PLT_learning_01,N,2014_Jan_21_1725,P02,
stim_fb/ques.jpg,stim_fb/negf.jpg,stim_fb/posf.jpg,stim_01/d.jpg,stim_01/c.jpg,1,2,f,1,50,110,23,f,1,0.666477243951,01,01,60.0240193558,PLT_learning_01,N,2014_Jan_21_1725,P02,
stim_fb/ques.jpg,stim_fb/negf.jpg,stim_fb/posf.jpg,stim_01/d.jpg,stim_01/c.jpg,1,2,f,1,51,111,20,f,1,0.683142951234,01,01,60.0240193558,PLT_learning_01,N,2014_Jan_21_1725,P02,
stim_fb/ques.jpg,stim_fb/negf.jpg,stim_fb/posf.jpg,stim_01/b.jpg,stim_01/a.jpg,1,1,f,1,52,112,4,j,0,0.799793016646,01,01,60.0240193558,PLT_learning_01,N,2014_Jan_21_1725,P02,
stim_fb/ques.jpg,stim_fb/posf.jpg,stim_fb/negf.jpg,stim_01/d.jpg,stim_01/c.jpg,1,2,f,1,53,113,29,f,1,0.616508323183,01,01,60.0240193558,PLT_learning_01,N,2014_Jan_21_1725,P02,
stim_fb/ques.jpg,stim_fb/negf.jpg,stim_fb/posf.jpg,stim_01/f.jpg,stim_01/e.jpg,1,3,f,1,54,114,43,f,1,0.94971469602,01,01,60.0240193558,PLT_learning_01,N,2014_Jan_21_1725,P02,
stim_fb/ques.jpg,stim_fb/negf.jpg,stim_fb/posf.jpg,stim_01/c.jpg,stim_01/d.jpg,2,2,j,1,55,115,33,j,1,0.783074756771,01,01,60.0240193558,PLT_learning_01,N,2014_Jan_21_1725,P02,
stim_fb/ques.jpg,stim_fb/negf.jpg,stim_fb/posf.jpg,stim_01/b.jpg,stim_01/a.jpg,1,1,f,1,56,116,0,f,1,0.849749612788,01,01,60.0240193558,PLT_learning_01,N,2014_Jan_21_1725,P02,
stim_fb/ques.jpg,stim_fb/negf.jpg,stim_fb/posf.jpg,stim_01/c.jpg,stim_01/d.jpg,2,2,j,1,57,117,30,j,1,0.766479072495,01,01,60.0240193558,PLT_learning_01,N,2014_Jan_21_1725,P02,
stim_fb/ques.jpg,stim_fb/negf.jpg,stim_fb/posf.jpg,stim_01/e.jpg,stim_01/f.jpg,2,3,j,1,58,118,53,j,1,0.816268814003,01,01,60.0240193558,PLT_learning_01,N,2014_Jan_21_1725,P02,
stim_fb/ques.jpg,stim_fb/posf.jpg,stim_fb/negf.jpg,stim_01/a.jpg,stim_01/b.jpg,2,1,j,1,59,119,19,f,0,0.666488642276,01,01,60.0240193558,PLT_learning_01,N,2014_Jan_21_1725,P02,
stim_fb/ques.jpg,stim_fb/posf.jpg,stim_fb/negf.jpg,stim_01/c.jpg,stim_01/d.jpg,2,2,j,2,0,120,37,f,0,0.583192327935,01,01,60.0240193558,PLT_learning_01,N,2014_Jan_21_1725,P02,
stim_fb/ques.jpg,stim_fb/negf.jpg,stim_fb/posf.jpg,stim_01/c.jpg,stim_01/d.jpg,2,2,j,2,1,121,32,j,1,0.783042910633,01,01,60.0240193558,PLT_learning_01,N,2014_Jan_21_1725,P02,
stim_fb/ques.jpg,stim_fb/negf.jpg,stim_fb/posf.jpg,stim_01/f.jpg,stim_01/e.jpg,1,3,f,2,2,122,41,f,1,0.916364298281,01,01,60.0240193558,PLT_learning_01,N,2014_Jan_21_1725,P02,
stim_fb/ques.jpg,stim_fb/posf.jpg,stim_fb/negf.jpg,stim_01/e.jpg,stim_01/f.jpg,2,3,j,2,3,123,59,j,1,0.633151823281,01,01,60.0240193558,PLT_learning_01,N,2014_Jan_21_1725,P02,
stim_fb/ques.jpg,stim_fb/negf.jpg,stim_fb/posf.jpg,stim_01/d.jpg,stim_01/c.jpg,1,2,f,2,4,124,24,f,1,0.799786120509,01,01,60.0240193558,PLT_learning_01,N,2014_Jan_21_1725,P02,
stim_fb/ques.jpg,stim_fb/negf.jpg,stim_fb/posf.jpg,stim_01/e.jpg,stim_01/f.jpg,2,3,j,2,5,125,51,f,0,0.699810324657,01,01,60.0240193558,PLT_learning_01,N,2014_Jan_21_1725,P02,
stim_fb/ques.jpg,stim_fb/negf.jpg,stim_fb/posf.jpg,stim_01/d.jpg,stim_01/c.jpg,1,2,f,2,6,126,25,f,1,0.683119147081,01,01,60.0240193558,PLT_learning_01,N,2014_Jan_21_1725,P02,
stim_fb/ques.jpg,stim_fb/posf.jpg,stim_fb/negf.jpg,stim_01/f.jpg,stim_01/e.jpg,1,3,f,2,7,127,46,f,1,0.883056314943,01,01,60.0240193558,PLT_learning_01,N,2014_Jan_21_1725,P02,
stim_fb/ques.jpg,stim_fb/negf.jpg,stim_fb/posf.jpg,stim_01/b.jpg,stim_01/a.jpg,1,1,f,2,8,128,5,j,0,0.566509129186,01,01,60.0240193558,PLT_learning_01,N,2014_Jan_21_1725,P02,
stim_fb/ques.jpg,stim_fb/negf.jpg,stim_fb/posf.jpg,stim_01/e.jpg,stim_01/f.jpg,2,3,j,2,9,129,55,f,0,0.633166448625,01,01,60.0240193558,PLT_learning_01,N,2014_Jan_21_1725,P02,
stim_fb/ques.jpg,stim_fb/negf.jpg,stim_fb/posf.jpg,stim_01/d.jpg,stim_01/c.jpg,1,2,f,2,10,130,22,f,1,0.766631668697,01,01,60.0240193558,PLT_learning_01,N,2014_Jan_21_1725,P02,
stim_fb/ques.jpg,stim_fb/posf.jpg,stim_fb/negf.jpg,stim_01/c.jpg,stim_01/d.jpg,2,2,j,2,11,131,39,j,1,0.666521808695,01,01,60.0240193558,PLT_learning_01,N,2014_Jan_21_1725,P02,
stim_fb/ques.jpg,stim_fb/posf.jpg,stim_fb/negf.jpg,stim_01/b.jpg,stim_01/a.jpg,1,1,f,2,12,132,9,f,1,1.03302472444,01,01,60.0240193558,PLT_learning_01,N,2014_Jan_21_1725,P02,
stim_fb/ques.jpg,stim_fb/negf.jpg,stim_fb/posf.jpg,stim_01/a.jpg,stim_01/b.jpg,2,1,j,2,13,133,15,f,0,0.983061565991,01,01,60.0240193558,PLT_learning_01,N,2014_Jan_21_1725,P02,
stim_fb/ques.jpg,stim_fb/negf.jpg,stim_fb/posf.jpg,stim_01/a.jpg,stim_01/b.jpg,2,1,j,2,14,134,10,j,1,0.783059129938,01,01,60.0240193558,PLT_learning_01,N,2014_Jan_21_1725,P02,
stim_fb/ques.jpg,stim_fb/posf.jpg,stim_fb/negf.jpg,stim_01/d.jpg,stim_01/c.jpg,1,2,f,2,15,135,29,f,1,0.783088383633,01,01,60.0240193558,PLT_learning_01,N,2014_Jan_21_1725,P02,
stim_fb/ques.jpg,stim_fb/negf.jpg,stim_fb/posf.jpg,stim_01/e.jpg,stim_01/f.jpg,2,3,j,2,16,136,52,f,0,0.916387900934,01,01,60.0240193558,PLT_learning_01,N,2014_Jan_21_1725,P02,
stim_fb/ques.jpg,stim_fb/posf.jpg,stim_fb/negf.jpg,stim_01/b.jpg,stim_01/a.jpg,1,1,f,2,17,137,8,j,0,0.68316363363,01,01,60.0240193558,PLT_learning_01,N,2014_Jan_21_1725,P02,
stim_fb/ques.jpg,stim_fb/negf.jpg,stim_fb/posf.jpg,stim_01/b.jpg,stim_01/a.jpg,1,1,f,2,18,138,6,j,0,0.616518277921,01,01,60.0240193558,PLT_learning_01,N,2014_Jan_21_1725,P02,
stim_fb/ques.jpg,stim_fb/negf.jpg,stim_fb/posf.jpg,stim_01/c.jpg,stim_01/d.jpg,2,2,j,2,19,139,31,j,1,0.766459030691,01,01,60.0240193558,PLT_learning_01,N,2014_Jan_21_1725,P02,
stim_fb/ques.jpg,stim_fb/negf.jpg,stim_fb/posf.jpg,stim_01/d.jpg,stim_01/c.jpg,1,2,f,2,20,140,21,f,1,0.59985116314,01,01,60.0240193558,PLT_learning_01,N,2014_Jan_21_1725,P02,
stim_fb/ques.jpg,stim_fb/negf.jpg,stim_fb/posf.jpg,stim_01/a.jpg,stim_01/b.jpg,2,1,j,2,21,141,16,f,0,0.799774869551,01,01,60.0240193558,PLT_learning_01,N,2014_Jan_21_1725,P02,
stim_fb/ques.jpg,stim_fb/negf.jpg,stim_fb/posf.jpg,stim_01/b.jpg,stim_01/a.jpg,1,1,f,2,22,142,3,f,1,0.71643609269,01,01,60.0240193558,PLT_learning_01,N,2014_Jan_21_1725,P02,
stim_fb/ques.jpg,stim_fb/posf.jpg,stim_fb/negf.jpg,stim_01/e.jpg,stim_01/f.jpg,2,3,j,2,23,143,56,f,0,0.933103126269,01,01,60.0240193558,PLT_learning_01,N,2014_Jan_21_1725,P02,
stim_fb/ques.jpg,stim_fb/posf.jpg,stim_fb/negf.jpg,stim_01/a.jpg,stim_01/b.jpg,2,1,j,2,24,144,19,f,0,0.749799242117,01,01,60.0240193558,PLT_learning_01,N,2014_Jan_21_1725,P02,
stim_fb/ques.jpg,stim_fb/posf.jpg,stim_fb/negf.jpg,stim_01/c.jpg,stim_01/d.jpg,2,2,j,2,25,145,38,j,1,0.73314537225,01,01,60.0240193558,PLT_learning_01,N,2014_Jan_21_1725,P02,
stim_fb/ques.jpg,stim_fb/negf.jpg,stim_fb/posf.jpg,stim_01/b.jpg,stim_01/a.jpg,1,1,f,2,26,146,0,f,1,0.649832706275,01,01,60.0240193558,PLT_learning_01,N,2014_Jan_21_1725,P02,
stim_fb/ques.jpg,stim_fb/posf.jpg,stim_fb/negf.jpg,stim_01/d.jpg,stim_01/c.jpg,1,2,f,2,27,147,27,f,1,0.616511417873,01,01,60.0240193558,PLT_learning_01,N,2014_Jan_21_1725,P02,
stim_fb/ques.jpg,stim_fb/negf.jpg,stim_fb/posf.jpg,stim_01/f.jpg,stim_01/e.jpg,1,3,f,2,28,148,44,j,0,0.633195043684,01,01,60.0240193558,PLT_learning_01,N,2014_Jan_21_1725,P02,
stim_fb/ques.jpg,stim_fb/negf.jpg,stim_fb/posf.jpg,stim_01/a.jpg,stim_01/b.jpg,2,1,j,2,29,149,17,f,0,0.649839728726,01,01,60.0240193558,PLT_learning_01,N,2014_Jan_21_1725,P02,
stim_fb/ques.jpg,stim_fb/negf.jpg,stim_fb/posf.jpg,stim_01/c.jpg,stim_01/d.jpg,2,2,j,2,30,150,35,j,1,0.633180439392,01,01,60.0240193558,PLT_learning_01,N,2014_Jan_21_1725,P02,
stim_fb/ques.jpg,stim_fb/negf.jpg,stim_fb/posf.jpg,stim_01/c.jpg,stim_01/d.jpg,2,2,j,2,31,151,33,j,1,0.699810589314,01,01,60.0240193558,PLT_learning_01,N,2014_Jan_21_1725,P02,
stim_fb/ques.jpg,stim_fb/negf.jpg,stim_fb/posf.jpg,stim_01/d.jpg,stim_01/c.jpg,1,2,f,2,32,152,23,f,1,0.66646175847,01,01,60.0240193558,PLT_learning_01,N,2014_Jan_21_1725,P02,
stim_fb/ques.jpg,stim_fb/negf.jpg,stim_fb/posf.jpg,stim_01/f.jpg,stim_01/e.jpg,1,3,f,2,33,153,43,j,0,0.799775904122,01,01,60.0240193558,PLT_learning_01,N,2014_Jan_21_1725,P02,
stim_fb/ques.jpg,stim_fb/negf.jpg,stim_fb/posf.jpg,stim_01/a.jpg,stim_01/b.jpg,2,1,j,2,34,154,11,f,0,0.766474365799,01,01,60.0240193558,PLT_learning_01,N,2014_Jan_21_1725,P02,
stim_fb/ques.jpg,stim_fb/negf.jpg,stim_fb/posf.jpg,stim_01/b.jpg,stim_01/a.jpg,1,1,f,2,35,155,1,f,1,1.13296938392,01,01,60.0240193558,PLT_learning_01,N,2014_Jan_21_1725,P02,
stim_fb/ques.jpg,stim_fb/negf.jpg,stim_fb/posf.jpg,stim_01/d.jpg,stim_01/c.jpg,1,2,f,2,36,156,26,f,1,0.783107715673,01,01,60.0240193558,PLT_learning_01,N,2014_Jan_21_1725,P02,
stim_fb/ques.jpg,stim_fb/posf.jpg,stim_fb/negf.jpg,stim_01/e.jpg,stim_01/f.jpg,2,3,j,2,37,157,57,f,0,0.916497845145,01,01,60.0240193558,PLT_learning_01,N,2014_Jan_21_1725,P02,
stim_fb/ques.jpg,stim_fb/negf.jpg,stim_fb/posf.jpg,stim_01/a.jpg,stim_01/b.jpg,2,1,j,2,38,158,13,j,1,1.06635147141,01,01,60.0240193558,PLT_learning_01,N,2014_Jan_21_1725,P02,
stim_fb/ques.jpg,stim_fb/negf.jpg,stim_fb/posf.jpg,stim_01/c.jpg,stim_01/d.jpg,2,2,j,2,39,159,36,j,1,0.799803660095,01,01,60.0240193558,PLT_learning_01,N,2014_Jan_21_1725,P02,
stim_fb/ques.jpg,stim_fb/negf.jpg,stim_fb/posf.jpg,stim_01/c.jpg,stim_01/d.jpg,2,2,j,2,40,160,34,j,1,0.733129802559,01,01,60.0240193558,PLT_learning_01,N,2014_Jan_21_1725,P02,
stim_fb/ques.jpg,stim_fb/posf.jpg,stim_fb/negf.jpg,stim_01/a.jpg,stim_01/b.jpg,2,1,j,2,41,161,18,j,1,0.866322485376,01,01,60.0240193558,PLT_learning_01,N,2014_Jan_21_1725,P02,
stim_fb/ques.jpg,stim_fb/negf.jpg,stim_fb/posf.jpg,stim_01/c.jpg,stim_01/d.jpg,2,2,j,2,42,162,30,j,1,0.616538779868,01,01,60.0240193558,PLT_learning_01,N,2014_Jan_21_1725,P02,
stim_fb/ques.jpg,stim_fb/posf.jpg,stim_fb/negf.jpg,stim_01/d.jpg,stim_01/c.jpg,1,2,f,2,43,163,28,f,1,0.683151997714,01,01,60.0240193558,PLT_learning_01,N,2014_Jan_21_1725,P02,
stim_fb/ques.jpg,stim_fb/negf.jpg,stim_fb/posf.jpg,stim_01/e.jpg,stim_01/f.jpg,2,3,j,2,44,164,53,f,0,0.783094612111,01,01,60.0240193558,PLT_learning_01,N,2014_Jan_21_1725,P02,
stim_fb/ques.jpg,stim_fb/negf.jpg,stim_fb/posf.jpg,stim_01/f.jpg,stim_01/e.jpg,1,3,f,2,45,165,42,f,1,0.833095093307,01,01,60.0240193558,PLT_learning_01,N,2014_Jan_21_1725,P02,
stim_fb/ques.jpg,stim_fb/negf.jpg,stim_fb/posf.jpg,stim_01/b.jpg,stim_01/a.jpg,1,1,f,2,46,166,4,f,1,1.26627443497,01,01,60.0240193558,PLT_learning_01,N,2014_Jan_21_1725,P02,
stim_fb/ques.jpg,stim_fb/posf.jpg,stim_fb/negf.jpg,stim_01/f.jpg,stim_01/e.jpg,1,3,f,2,47,167,48,f,1,0.999707060044,01,01,60.0240193558,PLT_learning_01,N,2014_Jan_21_1725,P02,
stim_fb/ques.jpg,stim_fb/negf.jpg,stim_fb/posf.jpg,stim_01/b.jpg,stim_01/a.jpg,1,1,f,2,48,168,2,f,1,0.866375471046,01,01,60.0240193558,PLT_learning_01,N,2014_Jan_21_1725,P02,
stim_fb/ques.jpg,stim_fb/negf.jpg,stim_fb/posf.jpg,stim_01/f.jpg,stim_01/e.jpg,1,3,f,2,49,169,45,f,1,0.699832591991,01,01,60.0240193558,PLT_learning_01,N,2014_Jan_21_1725,P02,
stim_fb/ques.jpg,stim_fb/negf.jpg,stim_fb/posf.jpg,stim_01/e.jpg,stim_01/f.jpg,2,3,j,2,50,170,50,f,0,0.583204733763,01,01,60.0240193558,PLT_learning_01,N,2014_Jan_21_1725,P02,
stim_fb/ques.jpg,stim_fb/negf.jpg,stim_fb/posf.jpg,stim_01/f.jpg,stim_01/e.jpg,1,3,f,2,51,171,40,j,0,0.983029948422,01,01,60.0240193558,PLT_learning_01,N,2014_Jan_21_1725,P02,
stim_fb/ques.jpg,stim_fb/posf.jpg,stim_fb/negf.jpg,stim_01/f.jpg,stim_01/e.jpg,1,3,f,2,52,172,49,f,1,1.16634456324,01,01,60.0240193558,PLT_learning_01,N,2014_Jan_21_1725,P02,
stim_fb/ques.jpg,stim_fb/posf.jpg,stim_fb/negf.jpg,stim_01/f.jpg,stim_01/e.jpg,1,3,f,2,53,173,47,j,0,0.733148030857,01,01,60.0240193558,PLT_learning_01,N,2014_Jan_21_1725,P02,
stim_fb/ques.jpg,stim_fb/negf.jpg,stim_fb/posf.jpg,stim_01/d.jpg,stim_01/c.jpg,1,2,f,2,54,174,20,f,1,0.783116641855,01,01,60.0240193558,PLT_learning_01,N,2014_Jan_21_1725,P02,
stim_fb/ques.jpg,stim_fb/negf.jpg,stim_fb/posf.jpg,stim_01/a.jpg,stim_01/b.jpg,2,1,j,2,55,175,12,j,1,0.966366929821,01,01,60.0240193558,PLT_learning_01,N,2014_Jan_21_1725,P02,
stim_fb/ques.jpg,stim_fb/posf.jpg,stim_fb/negf.jpg,stim_01/e.jpg,stim_01/f.jpg,2,3,j,2,56,176,58,j,1,0.966402087187,01,01,60.0240193558,PLT_learning_01,N,2014_Jan_21_1725,P02,
stim_fb/ques.jpg,stim_fb/negf.jpg,stim_fb/posf.jpg,stim_01/a.jpg,stim_01/b.jpg,2,1,j,2,57,177,14,j,1,0.783100362401,01,01,60.0240193558,PLT_learning_01,N,2014_Jan_21_1725,P02,
stim_fb/ques.jpg,stim_fb/negf.jpg,stim_fb/posf.jpg,stim_01/b.jpg,stim_01/a.jpg,1,1,f,2,58,178,7,f,1,0.516547351167,01,01,60.0240193558,PLT_learning_01,N,2014_Jan_21_1725,P02,
stim_fb/ques.jpg,stim_fb/negf.jpg,stim_fb/posf.jpg,stim_01/e.jpg,stim_01/f.jpg,2,3,j,2,59,179,54,f,0,1.06639359709,01,01,60.0240193558,PLT_learning_01,N,2014_Jan_21_1725,P02,
stim_fb/ques.jpg,stim_fb/negf.jpg,stim_fb/posf.jpg,stim_01/d.jpg,stim_01/c.jpg,1,2,f,3,0,180,24,f,1,0.64983160554,01,01,60.0240193558,PLT_learning_01,N,2014_Jan_21_1725,P02,
stim_fb/ques.jpg,stim_fb/negf.jpg,stim_fb/posf.jpg,stim_01/e.jpg,stim_01/f.jpg,2,3,j,3,1,181,51,j,1,0.716488146043,01,01,60.0240193558,PLT_learning_01,N,2014_Jan_21_1725,P02,
stim_fb/ques.jpg,stim_fb/negf.jpg,stim_fb/posf.jpg,stim_01/d.jpg,stim_01/c.jpg,1,2,f,3,2,182,20,f,1,0.516494576021,01,01,60.0240193558,PLT_learning_01,N,2014_Jan_21_1725,P02,
stim_fb/ques.jpg,stim_fb/posf.jpg,stim_fb/negf.jpg,stim_01/e.jpg,stim_01/f.jpg,2,3,j,3,3,183,59,j,1,0.583205990887,01,01,60.0240193558,PLT_learning_01,N,2014_Jan_21_1725,P02,
stim_fb/ques.jpg,stim_fb/posf.jpg,stim_fb/negf.jpg,stim_01/a.jpg,stim_01/b.jpg,2,1,j,3,4,184,18,j,1,0.733163483256,01,01,60.0240193558,PLT_learning_01,N,2014_Jan_21_1725,P02,
stim_fb/ques.jpg,stim_fb/posf.jpg,stim_fb/negf.jpg,stim_01/a.jpg,stim_01/b.jpg,2,1,j,3,5,185,19,j,1,0.633157158539,01,01,60.0240193558,PLT_learning_01,N,2014_Jan_21_1725,P02,
stim_fb/ques.jpg,stim_fb/negf.jpg,stim_fb/posf.jpg,stim_01/b.jpg,stim_01/a.jpg,1,1,f,3,6,186,3,f,1,0.583232820559,01,01,60.0240193558,PLT_learning_01,N,2014_Jan_21_1725,P02,
stim_fb/ques.jpg,stim_fb/negf.jpg,stim_fb/posf.jpg,stim_01/c.jpg,stim_01/d.jpg,2,2,j,3,7,187,36,j,1,0.566516723057,01,01,60.0240193558,PLT_learning_01,N,2014_Jan_21_1725,P02,
stim_fb/ques.jpg,stim_fb/negf.jpg,stim_fb/posf.jpg,stim_01/b.jpg,stim_01/a.jpg,1,1,f,3,8,188,0,f,1,0.516556499902,01,01,60.0240193558,PLT_learning_01,N,2014_Jan_21_1725,P02,
stim_fb/ques.jpg,stim_fb/negf.jpg,stim_fb/posf.jpg,stim_01/c.jpg,stim_01/d.jpg,2,2,j,3,9,189,35,j,1,0.533217789206,01,01,60.0240193558,PLT_learning_01,N,2014_Jan_21_1725,P02,
stim_fb/ques.jpg,stim_fb/negf.jpg,stim_fb/posf.jpg,stim_01/f.jpg,stim_01/e.jpg,1,3,f,3,10,190,45,j,0,0.633172262071,01,01,60.0240193558,PLT_learning_01,N,2014_Jan_21_1725,P02,
stim_fb/ques.jpg,stim_fb/negf.jpg,stim_fb/posf.jpg,stim_01/d.jpg,stim_01/c.jpg,1,2,f,3,11,191,22,f,1,0.749782550638,01,01,60.0240193558,PLT_learning_01,N,2014_Jan_21_1725,P02,
stim_fb/ques.jpg,stim_fb/negf.jpg,stim_fb/posf.jpg,stim_01/f.jpg,stim_01/e.jpg,1,3,f,3,12,192,40,f,1,0.81644321138,01,01,60.0240193558,PLT_learning_01,N,2014_Jan_21_1725,P02,
stim_fb/ques.jpg,stim_fb/posf.jpg,stim_fb/negf.jpg,stim_01/b.jpg,stim_01/a.jpg,1,1,f,3,13,193,9,f,1,0.533216438851,01,01,60.0240193558,PLT_learning_01,N,2014_Jan_21_1725,P02,
stim_fb/ques.jpg,stim_fb/posf.jpg,stim_fb/negf.jpg,stim_01/c.jpg,stim_01/d.jpg,2,2,j,3,14,194,38,j,1,0.649903189426,01,01,60.0240193558,PLT_learning_01,N,2014_Jan_21_1725,P02,
stim_fb/ques.jpg,stim_fb/negf.jpg,stim_fb/posf.jpg,stim_01/a.jpg,stim_01/b.jpg,2,1,j,3,15,195,10,j,1,0.716313011834,01,01,60.0240193558,PLT_learning_01,N,2014_Jan_21_1725,P02,
stim_fb/ques.jpg,stim_fb/negf.jpg,stim_fb/posf.jpg,stim_01/e.jpg,stim_01/f.jpg,2,3,j,3,16,196,52,j,1,0.799817064405,01,01,60.0240193558,PLT_learning_01,N,2014_Jan_21_1725,P02,
stim_fb/ques.jpg,stim_fb/negf.jpg,stim_fb/posf.jpg,stim_01/d.jpg,stim_01/c.jpg,1,2,f,3,17,197,21,f,1,0.566520786153,01,01,60.0240193558,PLT_learning_01,N,2014_Jan_21_1725,P02,
stim_fb/ques.jpg,stim_fb/posf.jpg,stim_fb/negf.jpg,stim_01/e.jpg,stim_01/f.jpg,2,3,j,3,18,198,57,f,0,0.833095493301,01,01,60.0240193558,PLT_learning_01,N,2014_Jan_21_1725,P02,
stim_fb/ques.jpg,stim_fb/negf.jpg,stim_fb/posf.jpg,stim_01/a.jpg,stim_01/b.jpg,2,1,j,3,19,199,13,j,1,0.566531068706,01,01,60.0240193558,PLT_learning_01,N,2014_Jan_21_1725,P02,
stim_fb/ques.jpg,stim_fb/negf.jpg,stim_fb/posf.jpg,stim_01/b.jpg,stim_01/a.jpg,1,1,f,3,20,200,2,f,1,0.733139221966,01,01,60.0240193558,PLT_learning_01,N,2014_Jan_21_1725,P02,
stim_fb/ques.jpg,stim_fb/negf.jpg,stim_fb/posf.jpg,stim_01/c.jpg,stim_01/d.jpg,2,2,j,3,21,201,33,j,1,0.566506864558,01,01,60.0240193558,PLT_learning_01,N,2014_Jan_21_1725,P02,
stim_fb/ques.jpg,stim_fb/negf.jpg,stim_fb/posf.jpg,stim_01/b.jpg,stim_01/a.jpg,1,1,f,3,22,202,4,f,1,0.583186884408,01,01,60.0240193558,PLT_learning_01,N,2014_Jan_21_1725,P02,
stim_fb/ques.jpg,stim_fb/negf.jpg,stim_fb/posf.jpg,stim_01/a.jpg,stim_01/b.jpg,2,1,j,3,23,203,15,j,1,0.549882919054,01,01,60.0240193558,PLT_learning_01,N,2014_Jan_21_1725,P02,
stim_fb/ques.jpg,stim_fb/posf.jpg,stim_fb/negf.jpg,stim_01/b.jpg,stim_01/a.jpg,1,1,f,3,24,204,8,f,1,0.63316582307,01,01,60.0240193558,PLT_learning_01,N,2014_Jan_21_1725,P02,
stim_fb/ques.jpg,stim_fb/negf.jpg,stim_fb/posf.jpg,stim_01/a.jpg,stim_01/b.jpg,2,1,j,3,25,205,14,j,1,0.766492455753,01,01,60.0240193558,PLT_learning_01,N,2014_Jan_21_1725,P02,
stim_fb/ques.jpg,stim_fb/negf.jpg,stim_fb/posf.jpg,stim_01/b.jpg,stim_01/a.jpg,1,1,f,3,26,206,6,f,1,0.549880597284,01,01,60.0240193558,PLT_learning_01,N,2014_Jan_21_1725,P02,
stim_fb/ques.jpg,stim_fb/negf.jpg,stim_fb/posf.jpg,stim_01/a.jpg,stim_01/b.jpg,2,1,j,3,27,207,16,j,1,0.549876771778,01,01,60.0240193558,PLT_learning_01,N,2014_Jan_21_1725,P02,
stim_fb/ques.jpg,stim_fb/posf.jpg,stim_fb/negf.jpg,stim_01/f.jpg,stim_01/e.jpg,1,3,f,3,28,208,48,f,1,0.883075012406,01,01,60.0240193558,PLT_learning_01,N,2014_Jan_21_1725,P02,
stim_fb/ques.jpg,stim_fb/posf.jpg,stim_fb/negf.jpg,stim_01/c.jpg,stim_01/d.jpg,2,2,j,3,29,209,37,j,1,0.733139194899,01,01,60.0240193558,PLT_learning_01,N,2014_Jan_21_1725,P02,
stim_fb/ques.jpg,stim_fb/posf.jpg,stim_fb/negf.jpg,stim_01/f.jpg,stim_01/e.jpg,1,3,f,3,30,210,47,f,1,0.949722912437,01,01,60.0240193558,PLT_learning_01,N,2014_Jan_21_1725,P02,
stim_fb/ques.jpg,stim_fb/posf.jpg,stim_fb/negf.jpg,stim_01/d.jpg,stim_01/c.jpg,1,2,f,3,31,211,29,f,1,0.666519907971,01,01,60.0240193558,PLT_learning_01,N,2014_Jan_21_1725,P02,
stim_fb/ques.jpg,stim_fb/posf.jpg,stim_fb/negf.jpg,stim_01/d.jpg,stim_01/c.jpg,1,2,f,3,32,212,28,f,1,0.566547185756,01,01,60.0240193558,PLT_learning_01,N,2014_Jan_21_1725,P02,
stim_fb/ques.jpg,stim_fb/negf.jpg,stim_fb/posf.jpg,stim_01/c.jpg,stim_01/d.jpg,2,2,j,3,33,213,32,f,0,0.68315909836,01,01,60.0240193558,PLT_learning_01,N,2014_Jan_21_1725,P02,
stim_fb/ques.jpg,stim_fb/negf.jpg,stim_fb/posf.jpg,stim_01/b.jpg,stim_01/a.jpg,1,1,f,3,34,214,7,f,1,0.699832582969,01,01,60.0240193558,PLT_learning_01,N,2014_Jan_21_1725,P02,
stim_fb/ques.jpg,stim_fb/negf.jpg,stim_fb/posf.jpg,stim_01/b.jpg,stim_01/a.jpg,1,1,f,3,35,215,5,f,1,0.616482082976,01,01,60.0240193558,PLT_learning_01,N,2014_Jan_21_1725,P02,
stim_fb/ques.jpg,stim_fb/negf.jpg,stim_fb/posf.jpg,stim_01/d.jpg,stim_01/c.jpg,1,2,f,3,36,216,25,f,1,0.71648086495,01,01,60.0240193558,PLT_learning_01,N,2014_Jan_21_1725,P02,
stim_fb/ques.jpg,stim_fb/negf.jpg,stim_fb/posf.jpg,stim_01/e.jpg,stim_01/f.jpg,2,3,j,3,37,217,54,j,1,0.933056299905,01,01,60.0240193558,PLT_learning_01,N,2014_Jan_21_1725,P02,
stim_fb/ques.jpg,stim_fb/negf.jpg,stim_fb/posf.jpg,stim_01/a.jpg,stim_01/b.jpg,2,1,j,3,38,218,17,j,1,0.816454979624,01,01,60.0240193558,PLT_learning_01,N,2014_Jan_21_1725,P02,
stim_fb/ques.jpg,stim_fb/negf.jpg,stim_fb/posf.jpg,stim_01/e.jpg,stim_01/f.jpg,2,3,j,3,39,219,53,j,1,0.666433428069,01,01,60.0240193558,PLT_learning_01,N,2014_Jan_21_1725,P02,
stim_fb/ques.jpg,stim_fb/negf.jpg,stim_fb/posf.jpg,stim_01/e.jpg,stim_01/f.jpg,2,3,j,3,40,220,55,f,0,0.583192364025,01,01,60.0240193558,PLT_learning_01,N,2014_Jan_21_1725,P02,
stim_fb/ques.jpg,stim_fb/negf.jpg,stim_fb/posf.jpg,stim_01/f.jpg,stim_01/e.jpg,1,3,f,3,41,221,43,f,1,0.599848161682,01,01,60.0240193558,PLT_learning_01,N,2014_Jan_21_1725,P02,
stim_fb/ques.jpg,stim_fb/negf.jpg,stim_fb/posf.jpg,stim_01/e.jpg,stim_01/f.jpg,2,3,j,3,42,222,50,j,1,0.449911787793,01,01,60.0240193558,PLT_learning_01,N,2014_Jan_21_1725,P02,
stim_fb/ques.jpg,stim_fb/posf.jpg,stim_fb/negf.jpg,stim_01/e.jpg,stim_01/f.jpg,2,3,j,3,43,223,58,j,1,0.583183335589,01,01,60.0240193558,PLT_learning_01,N,2014_Jan_21_1725,P02,
stim_fb/ques.jpg,stim_fb/negf.jpg,stim_fb/posf.jpg,stim_01/b.jpg,stim_01/a.jpg,1,1,f,3,44,224,1,f,1,0.566540993369,01,01,60.0240193558,PLT_learning_01,N,2014_Jan_21_1725,P02,
stim_fb/ques.jpg,stim_fb/posf.jpg,stim_fb/negf.jpg,stim_01/f.jpg,stim_01/e.jpg,1,3,f,3,45,225,49,f,1,0.533212835897,01,01,60.0240193558,PLT_learning_01,N,2014_Jan_21_1725,P02,
stim_fb/ques.jpg,stim_fb/negf.jpg,stim_fb/posf.jpg,stim_01/c.jpg,stim_01/d.jpg,2,2,j,3,46,226,31,j,1,0.616494927896,01,01,60.0240193558,PLT_learning_01,N,2014_Jan_21_1725,P02,
stim_fb/ques.jpg,stim_fb/posf.jpg,stim_fb/negf.jpg,stim_01/d.jpg,stim_01/c.jpg,1,2,f,3,47,227,27,f,1,0.51650948106,01,01,60.0240193558,PLT_learning_01,N,2014_Jan_21_1725,P02,
stim_fb/ques.jpg,stim_fb/negf.jpg,stim_fb/posf.jpg,stim_01/f.jpg,stim_01/e.jpg,1,3,f,3,48,228,41,j,0,0.883086485917,01,01,60.0240193558,PLT_learning_01,N,2014_Jan_21_1725,P02,
stim_fb/ques.jpg,stim_fb/negf.jpg,stim_fb/posf.jpg,stim_01/c.jpg,stim_01/d.jpg,2,2,j,3,49,229,30,j,1,0.633178267996,01,01,60.0240193558,PLT_learning_01,N,2014_Jan_21_1725,P02,
stim_fb/ques.jpg,stim_fb/posf.jpg,stim_fb/negf.jpg,stim_01/c.jpg,stim_01/d.jpg,2,2,j,3,50,230,39,j,1,0.533221437272,01,01,60.0240193558,PLT_learning_01,N,2014_Jan_21_1725,P02,
stim_fb/ques.jpg,stim_fb/negf.jpg,stim_fb/posf.jpg,stim_01/f.jpg,stim_01/e.jpg,1,3,f,3,51,231,42,f,1,0.533198063187,01,01,60.0240193558,PLT_learning_01,N,2014_Jan_21_1725,P02,
stim_fb/ques.jpg,stim_fb/negf.jpg,stim_fb/posf.jpg,stim_01/c.jpg,stim_01/d.jpg,2,2,j,3,52,232,34,j,1,0.649818640321,01,01,60.0240193558,PLT_learning_01,N,2014_Jan_21_1725,P02,
stim_fb/ques.jpg,stim_fb/negf.jpg,stim_fb/posf.jpg,stim_01/f.jpg,stim_01/e.jpg,1,3,f,3,53,233,44,f,1,0.649835322777,01,01,60.0240193558,PLT_learning_01,N,2014_Jan_21_1725,P02,
stim_fb/ques.jpg,stim_fb/negf.jpg,stim_fb/posf.jpg,stim_01/d.jpg,stim_01/c.jpg,1,2,f,3,54,234,26,f,1,0.699813127622,01,01,60.0240193558,PLT_learning_01,N,2014_Jan_21_1725,P02,
stim_fb/ques.jpg,stim_fb/negf.jpg,stim_fb/posf.jpg,stim_01/a.jpg,stim_01/b.jpg,2,1,j,3,55,235,12,j,1,0.933080341649,01,01,60.0240193558,PLT_learning_01,N,2014_Jan_21_1725,P02,
stim_fb/ques.jpg,stim_fb/negf.jpg,stim_fb/posf.jpg,stim_01/a.jpg,stim_01/b.jpg,2,1,j,3,56,236,11,j,1,0.783123348521,01,01,60.0240193558,PLT_learning_01,N,2014_Jan_21_1725,P02,
stim_fb/ques.jpg,stim_fb/posf.jpg,stim_fb/negf.jpg,stim_01/f.jpg,stim_01/e.jpg,1,3,f,3,57,237,46,f,1,0.733116175697,01,01,60.0240193558,PLT_learning_01,N,2014_Jan_21_1725,P02,
stim_fb/ques.jpg,stim_fb/posf.jpg,stim_fb/negf.jpg,stim_01/e.jpg,stim_01/f.jpg,2,3,j,3,58,238,56,j,1,0.566479953685,01,01,60.0240193558,PLT_learning_01,N,2014_Jan_21_1725,P02,
stim_fb/ques.jpg,stim_fb/negf.jpg,stim_fb/posf.jpg,stim_01/d.jpg,stim_01/c.jpg,1,2,f,3,59,239,23,f,1,0.58306681704,01,01,60.0240193558,PLT_learning_01,N,2014_Jan_21_1725,P02,
stim_fb/ques.jpg,stim_fb/posf.jpg,stim_fb/negf.jpg,stim_01/a.jpg,stim_01/b.jpg,2,1,j,4,0,240,19,j,1,0.68313515887,01,01,60.0240193558,PLT_learning_01,N,2014_Jan_21_1725,P02,
stim_fb/ques.jpg,stim_fb/negf.jpg,stim_fb/posf.jpg,stim_01/e.jpg,stim_01/f.jpg,2,3,j,4,1,241,52,f,0,0.849759134449,01,01,60.0240193558,PLT_learning_01,N,2014_Jan_21_1725,P02,
stim_fb/ques.jpg,stim_fb/negf.jpg,stim_fb/posf.jpg,stim_01/f.jpg,stim_01/e.jpg,1,3,f,4,2,242,45,f,1,1.14966483211,01,01,60.0240193558,PLT_learning_01,N,2014_Jan_21_1725,P02,
stim_fb/ques.jpg,stim_fb/negf.jpg,stim_fb/posf.jpg,stim_01/c.jpg,stim_01/d.jpg,2,2,j,4,3,243,36,j,1,0.649816814785,01,01,60.0240193558,PLT_learning_01,N,2014_Jan_21_1725,P02,
stim_fb/ques.jpg,stim_fb/negf.jpg,stim_fb/posf.jpg,stim_01/f.jpg,stim_01/e.jpg,1,3,f,4,4,244,40,j,0,0.983052041322,01,01,60.0240193558,PLT_learning_01,N,2014_Jan_21_1725,P02,
stim_fb/ques.jpg,stim_fb/negf.jpg,stim_fb/posf.jpg,stim_01/d.jpg,stim_01/c.jpg,1,2,f,4,5,245,23,f,1,0.616615870438,01,01,60.0240193558,PLT_learning_01,N,2014_Jan_21_1725,P02,
stim_fb/ques.jpg,stim_fb/posf.jpg,stim_fb/negf.jpg,stim_01/f.jpg,stim_01/e.jpg,1,3,f,4,6,246,49,f,1,0.666468444084,01,01,60.0240193558,PLT_learning_01,N,2014_Jan_21_1725,P02,
stim_fb/ques.jpg,stim_fb/negf.jpg,stim_fb/posf.jpg,stim_01/a.jpg,stim_01/b.jpg,2,1,j,4,7,247,16,j,1,0.749799212042,01,01,60.0240193558,PLT_learning_01,N,2014_Jan_21_1725,P02,
stim_fb/ques.jpg,stim_fb/posf.jpg,stim_fb/negf.jpg,stim_01/c.jpg,stim_01/d.jpg,2,2,j,4,8,248,38,j,1,0.699809846468,01,01,60.0240193558,PLT_learning_01,N,2014_Jan_21_1725,P02,
stim_fb/ques.jpg,stim_fb/negf.jpg,stim_fb/posf.jpg,stim_01/d.jpg,stim_01/c.jpg,1,2,f,4,9,249,25,f,1,0.666493183561,01,01,60.0240193558,PLT_learning_01,N,2014_Jan_21_1725,P02,
stim_fb/ques.jpg,stim_fb/posf.jpg,stim_fb/negf.jpg,stim_01/d.jpg,stim_01/c.jpg,1,2,f,4,10,250,27,f,1,0.533202896197,01,01,60.0240193558,PLT_learning_01,N,2014_Jan_21_1725,P02,
stim_fb/ques.jpg,stim_fb/negf.jpg,stim_fb/posf.jpg,stim_01/a.jpg,stim_01/b.jpg,2,1,j,4,11,251,15,j,1,0.63319257154,01,01,60.0240193558,PLT_learning_01,N,2014_Jan_21_1725,P02,
stim_fb/ques.jpg,stim_fb/negf.jpg,stim_fb/posf.jpg,stim_01/d.jpg,stim_01/c.jpg,1,2,f,4,12,252,20,f,1,0.683143994827,01,01,60.0240193558,PLT_learning_01,N,2014_Jan_21_1725,P02,
stim_fb/ques.jpg,stim_fb/negf.jpg,stim_fb/posf.jpg,stim_01/f.jpg,stim_01/e.jpg,1,3,f,4,13,253,43,f,1,0.833109947219,01,01,60.0240193558,PLT_learning_01,N,2014_Jan_21_1725,P02,
stim_fb/ques.jpg,stim_fb/posf.jpg,stim_fb/negf.jpg,stim_01/b.jpg,stim_01/a.jpg,1,1,f,4,14,254,9,f,1,0.766451439828,01,01,60.0240193558,PLT_learning_01,N,2014_Jan_21_1725,P02,
stim_fb/ques.jpg,stim_fb/posf.jpg,stim_fb/negf.jpg,stim_01/f.jpg,stim_01/e.jpg,1,3,f,4,15,255,46,f,1,0.733105574352,01,01,60.0240193558,PLT_learning_01,N,2014_Jan_21_1725,P02,
stim_fb/ques.jpg,stim_fb/negf.jpg,stim_fb/posf.jpg,stim_01/d.jpg,stim_01/c.jpg,1,2,f,4,16,256,22,f,1,0.69981356972,01,01,60.0240193558,PLT_learning_01,N,2014_Jan_21_1725,P02,
stim_fb/ques.jpg,stim_fb/negf.jpg,stim_fb/posf.jpg,stim_01/c.jpg,stim_01/d.jpg,2,2,j,4,17,257,33,j,1,0.583117050871,01,01,60.0240193558,PLT_learning_01,N,2014_Jan_21_1725,P02,
stim_fb/ques.jpg,stim_fb/negf.jpg,stim_fb/posf.jpg,stim_01/d.jpg,stim_01/c.jpg,1,2,f,4,18,258,21,f,1,0.583197320341,01,01,60.0240193558,PLT_learning_01,N,2014_Jan_21_1725,P02,
stim_fb/ques.jpg,stim_fb/negf.jpg,stim_fb/posf.jpg,stim_01/b.jpg,stim_01/a.jpg,1,1,f,4,19,259,2,f,1,0.683145206839,01,01,60.0240193558,PLT_learning_01,N,2014_Jan_21_1725,P02,
stim_fb/ques.jpg,stim_fb/negf.jpg,stim_fb/posf.jpg,stim_01/f.jpg,stim_01/e.jpg,1,3,f,4,20,260,42,f,1,0.683208429949,01,01,60.0240193558,PLT_learning_01,N,2014_Jan_21_1725,P02,
stim_fb/ques.jpg,stim_fb/posf.jpg,stim_fb/negf.jpg,stim_01/c.jpg,stim_01/d.jpg,2,2,j,4,21,261,37,j,1,0.583199163922,01,01,60.0240193558,PLT_learning_01,N,2014_Jan_21_1725,P02,
stim_fb/ques.jpg,stim_fb/posf.jpg,stim_fb/negf.jpg,stim_01/a.jpg,stim_01/b.jpg,2,1,j,4,22,262,18,j,1,0.616556842754,01,01,60.0240193558,PLT_learning_01,N,2014_Jan_21_1725,P02,
stim_fb/ques.jpg,stim_fb/negf.jpg,stim_fb/posf.jpg,stim_01/e.jpg,stim_01/f.jpg,2,3,j,4,23,263,53,j,1,0.682982012301,01,01,60.0240193558,PLT_learning_01,N,2014_Jan_21_1725,P02,
stim_fb/ques.jpg,stim_fb/posf.jpg,stim_fb/negf.jpg,stim_01/e.jpg,stim_01/f.jpg,2,3,j,4,24,264,59,j,1,0.633066789973,01,01,60.0240193558,PLT_learning_01,N,2014_Jan_21_1725,P02,
stim_fb/ques.jpg,stim_fb/posf.jpg,stim_fb/negf.jpg,stim_01/b.jpg,stim_01/a.jpg,1,1,f,4,25,265,8,f,1,0.583204423993,01,01,60.0240193558,PLT_learning_01,N,2014_Jan_21_1725,P02,
stim_fb/ques.jpg,stim_fb/posf.jpg,stim_fb/negf.jpg,stim_01/e.jpg,stim_01/f.jpg,2,3,j,4,26,266,57,j,1,0.816456507421,01,01,60.0240193558,PLT_learning_01,N,2014_Jan_21_1725,P02,
stim_fb/ques.jpg,stim_fb/negf.jpg,stim_fb/posf.jpg,stim_01/e.jpg,stim_01/f.jpg,2,3,j,4,27,267,51,j,1,0.899726334942,01,01,60.0240193558,PLT_learning_01,N,2014_Jan_21_1725,P02,
stim_fb/ques.jpg,stim_fb/negf.jpg,stim_fb/posf.jpg,stim_01/b.jpg,stim_01/a.jpg,1,1,f,4,28,268,6,f,1,0.666417238839,01,01,60.0240193558,PLT_learning_01,N,2014_Jan_21_1725,P02,
stim_fb/ques.jpg,stim_fb/negf.jpg,stim_fb/posf.jpg,stim_01/d.jpg,stim_01/c.jpg,1,2,f,4,29,269,24,f,1,0.766471081638,01,01,60.0240193558,PLT_learning_01,N,2014_Jan_21_1725,P02,
stim_fb/ques.jpg,stim_fb/negf.jpg,stim_fb/posf.jpg,stim_01/c.jpg,stim_01/d.jpg,2,2,j,4,30,270,30,j,1,0.566541291108,01,01,60.0240193558,PLT_learning_01,N,2014_Jan_21_1725,P02,
stim_fb/ques.jpg,stim_fb/negf.jpg,stim_fb/posf.jpg,stim_01/f.jpg,stim_01/e.jpg,1,3,f,4,31,271,44,f,1,0.649805984872,01,01,60.0240193558,PLT_learning_01,N,2014_Jan_21_1725,P02,
stim_fb/ques.jpg,stim_fb/negf.jpg,stim_fb/posf.jpg,stim_01/a.jpg,stim_01/b.jpg,2,1,j,4,32,272,12,j,1,0.58319234598,01,01,60.0240193558,PLT_learning_01,N,2014_Jan_21_1725,P02,
stim_fb/ques.jpg,stim_fb/negf.jpg,stim_fb/posf.jpg,stim_01/c.jpg,stim_01/d.jpg,2,2,j,4,33,273,35,j,1,0.633155576608,01,01,60.0240193558,PLT_learning_01,N,2014_Jan_21_1725,P02,
stim_fb/ques.jpg,stim_fb/posf.jpg,stim_fb/negf.jpg,stim_01/c.jpg,stim_01/d.jpg,2,2,j,4,34,274,39,j,1,0.616584556623,01,01,60.0240193558,PLT_learning_01,N,2014_Jan_21_1725,P02,
stim_fb/ques.jpg,stim_fb/negf.jpg,stim_fb/posf.jpg,stim_01/e.jpg,stim_01/f.jpg,2,3,j,4,35,275,54,j,1,0.749772123727,01,01,60.0240193558,PLT_learning_01,N,2014_Jan_21_1725,P02,
stim_fb/ques.jpg,stim_fb/negf.jpg,stim_fb/posf.jpg,stim_01/a.jpg,stim_01/b.jpg,2,1,j,4,36,276,17,j,1,0.599847821837,01,01,60.0240193558,PLT_learning_01,N,2014_Jan_21_1725,P02,
stim_fb/ques.jpg,stim_fb/negf.jpg,stim_fb/posf.jpg,stim_01/b.jpg,stim_01/a.jpg,1,1,f,4,37,277,0,f,1,0.583201049608,01,01,60.0240193558,PLT_learning_01,N,2014_Jan_21_1725,P02,
stim_fb/ques.jpg,stim_fb/negf.jpg,stim_fb/posf.jpg,stim_01/e.jpg,stim_01/f.jpg,2,3,j,4,38,278,55,j,1,0.666509556247,01,01,60.0240193558,PLT_learning_01,N,2014_Jan_21_1725,P02,
stim_fb/ques.jpg,stim_fb/negf.jpg,stim_fb/posf.jpg,stim_01/b.jpg,stim_01/a.jpg,1,1,f,4,39,279,1,f,1,0.566508900618,01,01,60.0240193558,PLT_learning_01,N,2014_Jan_21_1725,P02,
stim_fb/ques.jpg,stim_fb/negf.jpg,stim_fb/posf.jpg,stim_01/b.jpg,stim_01/a.jpg,1,1,f,4,40,280,3,f,1,0.54985857957,01,01,60.0240193558,PLT_learning_01,N,2014_Jan_21_1725,P02,
stim_fb/ques.jpg,stim_fb/negf.jpg,stim_fb/posf.jpg,stim_01/a.jpg,stim_01/b.jpg,2,1,j,4,41,281,11,j,1,0.549924569556,01,01,60.0240193558,PLT_learning_01,N,2014_Jan_21_1725,P02,
stim_fb/ques.jpg,stim_fb/posf.jpg,stim_fb/negf.jpg,stim_01/d.jpg,stim_01/c.jpg,1,2,f,4,42,282,28,f,1,0.566493240703,01,01,60.0240193558,PLT_learning_01,N,2014_Jan_21_1725,P02,
stim_fb/ques.jpg,stim_fb/posf.jpg,stim_fb/negf.jpg,stim_01/e.jpg,stim_01/f.jpg,2,3,j,4,43,283,58,j,1,0.716494747447,01,01,60.0240193558,PLT_learning_01,N,2014_Jan_21_1725,P02,
stim_fb/ques.jpg,stim_fb/negf.jpg,stim_fb/posf.jpg,stim_01/c.jpg,stim_01/d.jpg,2,2,j,4,44,284,31,j,1,0.649812468986,01,01,60.0240193558,PLT_learning_01,N,2014_Jan_21_1725,P02,
stim_fb/ques.jpg,stim_fb/negf.jpg,stim_fb/posf.jpg,stim_01/e.jpg,stim_01/f.jpg,2,3,j,4,45,285,50,f,0,0.766449761658,01,01,60.0240193558,PLT_learning_01,N,2014_Jan_21_1725,P02,
stim_fb/ques.jpg,stim_fb/negf.jpg,stim_fb/posf.jpg,stim_01/d.jpg,stim_01/c.jpg,1,2,f,4,46,286,26,f,1,0.53321479677,01,01,60.0240193558,PLT_learning_01,N,2014_Jan_21_1725,P02,
stim_fb/ques.jpg,stim_fb/posf.jpg,stim_fb/negf.jpg,stim_01/f.jpg,stim_01/e.jpg,1,3,f,4,47,287,48,f,1,0.766515435858,01,01,60.0240193558,PLT_learning_01,N,2014_Jan_21_1725,P02,
stim_fb/ques.jpg,stim_fb/negf.jpg,stim_fb/posf.jpg,stim_01/f.jpg,stim_01/e.jpg,1,3,f,4,48,288,41,f,1,0.649837821988,01,01,60.0240193558,PLT_learning_01,N,2014_Jan_21_1725,P02,
stim_fb/ques.jpg,stim_fb/negf.jpg,stim_fb/posf.jpg,stim_01/a.jpg,stim_01/b.jpg,2,1,j,4,49,289,13,j,1,0.583218005745,01,01,60.0240193558,PLT_learning_01,N,2014_Jan_21_1725,P02,
stim_fb/ques.jpg,stim_fb/negf.jpg,stim_fb/posf.jpg,stim_01/a.jpg,stim_01/b.jpg,2,1,j,4,50,290,10,j,1,0.599860393077,01,01,60.0240193558,PLT_learning_01,N,2014_Jan_21_1725,P02,
stim_fb/ques.jpg,stim_fb/negf.jpg,stim_fb/posf.jpg,stim_01/a.jpg,stim_01/b.jpg,2,1,j,4,51,291,14,j,1,0.516549874438,01,01,60.0240193558,PLT_learning_01,N,2014_Jan_21_1725,P02,
stim_fb/ques.jpg,stim_fb/negf.jpg,stim_fb/posf.jpg,stim_01/b.jpg,stim_01/a.jpg,1,1,f,4,52,292,5,f,1,0.583222547029,01,01,60.0240193558,PLT_learning_01,N,2014_Jan_21_1725,P02,
stim_fb/ques.jpg,stim_fb/negf.jpg,stim_fb/posf.jpg,stim_01/b.jpg,stim_01/a.jpg,1,1,f,4,53,293,4,f,1,0.583254612713,01,01,60.0240193558,PLT_learning_01,N,2014_Jan_21_1725,P02,
stim_fb/ques.jpg,stim_fb/posf.jpg,stim_fb/negf.jpg,stim_01/d.jpg,stim_01/c.jpg,1,2,f,4,54,294,29,f,1,0.633203028526,01,01,60.0240193558,PLT_learning_01,N,2014_Jan_21_1725,P02,
stim_fb/ques.jpg,stim_fb/negf.jpg,stim_fb/posf.jpg,stim_01/c.jpg,stim_01/d.jpg,2,2,j,4,55,295,34,j,1,0.766446997789,01,01,60.0240193558,PLT_learning_01,N,2014_Jan_21_1725,P02,
stim_fb/ques.jpg,stim_fb/negf.jpg,stim_fb/posf.jpg,stim_01/c.jpg,stim_01/d.jpg,2,2,j,4,56,296,32,j,1,0.583196222613,01,01,60.0240193558,PLT_learning_01,N,2014_Jan_21_1725,P02,
stim_fb/ques.jpg,stim_fb/posf.jpg,stim_fb/negf.jpg,stim_01/e.jpg,stim_01/f.jpg,2,3,j,4,57,297,56,f,0,0.783099475196,01,01,60.0240193558,PLT_learning_01,N,2014_Jan_21_1725,P02,
stim_fb/ques.jpg,stim_fb/posf.jpg,stim_fb/negf.jpg,stim_01/f.jpg,stim_01/e.jpg,1,3,f,4,58,298,47,j,0,1.09968158374,01,01,60.0240193558,PLT_learning_01,N,2014_Jan_21_1725,P02,
stim_fb/ques.jpg,stim_fb/negf.jpg,stim_fb/posf.jpg,stim_01/b.jpg,stim_01/a.jpg,1,1,f,4,59,299,7,f,1,1.21623599044,01,01,60.0240193558,PLT_learning_01,N,2014_Jan_21_1725,P02,
stim_fb/ques.jpg,stim_fb/negf.jpg,stim_fb/posf.jpg,stim_01/f.jpg,stim_01/e.jpg,1,3,f,5,0,300,45,f,1,0.749789579104,01,01,60.0240193558,PLT_learning_01,N,2014_Jan_21_1725,P02,
stim_fb/ques.jpg,stim_fb/negf.jpg,stim_fb/posf.jpg,stim_01/a.jpg,stim_01/b.jpg,2,1,j,5,1,301,13,j,1,0.633187681388,01,01,60.0240193558,PLT_learning_01,N,2014_Jan_21_1725,P02,
stim_fb/ques.jpg,stim_fb/negf.jpg,stim_fb/posf.jpg,stim_01/b.jpg,stim_01/a.jpg,1,1,f,5,2,302,7,f,1,0.483220276387,01,01,60.0240193558,PLT_learning_01,N,2014_Jan_21_1725,P02,
stim_fb/ques.jpg,stim_fb/negf.jpg,stim_fb/posf.jpg,stim_01/f.jpg,stim_01/e.jpg,1,3,f,5,3,303,42,j,0,0.599807281093,01,01,60.0240193558,PLT_learning_01,N,2014_Jan_21_1725,P02,
stim_fb/ques.jpg,stim_fb/posf.jpg,stim_fb/negf.jpg,stim_01/f.jpg,stim_01/e.jpg,1,3,f,5,4,304,46,f,1,0.633222910933,01,01,60.0240193558,PLT_learning_01,N,2014_Jan_21_1725,P02,
stim_fb/ques.jpg,stim_fb/negf.jpg,stim_fb/posf.jpg,stim_01/b.jpg,stim_01/a.jpg,1,1,f,5,5,305,1,f,1,0.549857860784,01,01,60.0240193558,PLT_learning_01,N,2014_Jan_21_1725,P02,
stim_fb/ques.jpg,stim_fb/negf.jpg,stim_fb/posf.jpg,stim_01/c.jpg,stim_01/d.jpg,2,2,j,5,6,306,31,j,1,0.599889992632,01,01,60.0240193558,PLT_learning_01,N,2014_Jan_21_1725,P02,
stim_fb/ques.jpg,stim_fb/negf.jpg,stim_fb/posf.jpg,stim_01/e.jpg,stim_01/f.jpg,2,3,j,5,7,307,51,f,0,0.549867890708,01,01,60.0240193558,PLT_learning_01,N,2014_Jan_21_1725,P02,
stim_fb/ques.jpg,stim_fb/negf.jpg,stim_fb/posf.jpg,stim_01/a.jpg,stim_01/b.jpg,2,1,j,5,8,308,14,j,1,0.866432173952,01,01,60.0240193558,PLT_learning_01,N,2014_Jan_21_1725,P02,
stim_fb/ques.jpg,stim_fb/negf.jpg,stim_fb/posf.jpg,stim_01/c.jpg,stim_01/d.jpg,2,2,j,5,9,309,34,j,1,0.733143474534,01,01,60.0240193558,PLT_learning_01,N,2014_Jan_21_1725,P02,
stim_fb/ques.jpg,stim_fb/negf.jpg,stim_fb/posf.jpg,stim_01/c.jpg,stim_01/d.jpg,2,2,j,5,10,310,32,j,1,0.56651781477,01,01,60.0240193558,PLT_learning_01,N,2014_Jan_21_1725,P02,
stim_fb/ques.jpg,stim_fb/negf.jpg,stim_fb/posf.jpg,stim_01/a.jpg,stim_01/b.jpg,2,1,j,5,11,311,15,j,1,1.03407327108,01,01,60.0240193558,PLT_learning_01,N,2014_Jan_21_1725,P02,
stim_fb/ques.jpg,stim_fb/posf.jpg,stim_fb/negf.jpg,stim_01/d.jpg,stim_01/c.jpg,1,2,f,5,12,312,27,f,1,0.616467917775,01,01,60.0240193558,PLT_learning_01,N,2014_Jan_21_1725,P02,
stim_fb/ques.jpg,stim_fb/posf.jpg,stim_fb/negf.jpg,stim_01/b.jpg,stim_01/a.jpg,1,1,f,5,13,313,8,f,1,0.716522277861,01,01,60.0240193558,PLT_learning_01,N,2014_Jan_21_1725,P02,
stim_fb/ques.jpg,stim_fb/posf.jpg,stim_fb/negf.jpg,stim_01/b.jpg,stim_01/a.jpg,1,1,f,5,14,314,9,f,1,0.54992656351,01,01,60.0240193558,PLT_learning_01,N,2014_Jan_21_1725,P02,
stim_fb/ques.jpg,stim_fb/negf.jpg,stim_fb/posf.jpg,stim_01/c.jpg,stim_01/d.jpg,2,2,j,5,15,315,36,j,1,0.549876359754,01,01,60.0240193558,PLT_learning_01,N,2014_Jan_21_1725,P02,
stim_fb/ques.jpg,stim_fb/posf.jpg,stim_fb/negf.jpg,stim_01/c.jpg,stim_01/d.jpg,2,2,j,5,16,316,38,j,1,0.566539862558,01,01,60.0240193558,PLT_learning_01,N,2014_Jan_21_1725,P02,
stim_fb/ques.jpg,stim_fb/posf.jpg,stim_fb/negf.jpg,stim_01/c.jpg,stim_01/d.jpg,2,2,j,5,17,317,39,j,1,0.54987278086,01,01,60.0240193558,PLT_learning_01,N,2014_Jan_21_1725,P02,
stim_fb/ques.jpg,stim_fb/negf.jpg,stim_fb/posf.jpg,stim_01/d.jpg,stim_01/c.jpg,1,2,f,5,18,318,20,f,1,0.583191398626,01,01,60.0240193558,PLT_learning_01,N,2014_Jan_21_1725,P02,
stim_fb/ques.jpg,stim_fb/posf.jpg,stim_fb/negf.jpg,stim_01/d.jpg,stim_01/c.jpg,1,2,f,5,19,319,28,f,1,0.549916265921,01,01,60.0240193558,PLT_learning_01,N,2014_Jan_21_1725,P02,
stim_fb/ques.jpg,stim_fb/negf.jpg,stim_fb/posf.jpg,stim_01/e.jpg,stim_01/f.jpg,2,3,j,5,20,320,55,j,1,0.716469120765,01,01,60.0240193558,PLT_learning_01,N,2014_Jan_21_1725,P02,
stim_fb/ques.jpg,stim_fb/posf.jpg,stim_fb/negf.jpg,stim_01/f.jpg,stim_01/e.jpg,1,3,f,5,21,321,49,f,1,0.616534858123,01,01,60.0240193558,PLT_learning_01,N,2014_Jan_21_1725,P02,
stim_fb/ques.jpg,stim_fb/negf.jpg,stim_fb/posf.jpg,stim_01/b.jpg,stim_01/a.jpg,1,1,f,5,22,322,3,f,1,1.03305028496,01,01,60.0240193558,PLT_learning_01,N,2014_Jan_21_1725,P02,
stim_fb/ques.jpg,stim_fb/negf.jpg,stim_fb/posf.jpg,stim_01/d.jpg,stim_01/c.jpg,1,2,f,5,23,323,26,f,1,0.549876224417,01,01,60.0240193558,PLT_learning_01,N,2014_Jan_21_1725,P02,
stim_fb/ques.jpg,stim_fb/negf.jpg,stim_fb/posf.jpg,stim_01/a.jpg,stim_01/b.jpg,2,1,j,5,24,324,12,j,1,0.599864065202,01,01,60.0240193558,PLT_learning_01,N,2014_Jan_21_1725,P02,
stim_fb/ques.jpg,stim_fb/negf.jpg,stim_fb/posf.jpg,stim_01/b.jpg,stim_01/a.jpg,1,1,f,5,25,325,5,f,1,0.64981904633,01,01,60.0240193558,PLT_learning_01,N,2014_Jan_21_1725,P02,
stim_fb/ques.jpg,stim_fb/negf.jpg,stim_fb/posf.jpg,stim_01/e.jpg,stim_01/f.jpg,2,3,j,5,26,326,53,j,1,0.916357558533,01,01,60.0240193558,PLT_learning_01,N,2014_Jan_21_1725,P02,
stim_fb/ques.jpg,stim_fb/negf.jpg,stim_fb/posf.jpg,stim_01/d.jpg,stim_01/c.jpg,1,2,f,5,27,327,21,f,1,0.58317409663,01,01,60.0240193558,PLT_learning_01,N,2014_Jan_21_1725,P02,
stim_fb/ques.jpg,stim_fb/posf.jpg,stim_fb/negf.jpg,stim_01/a.jpg,stim_01/b.jpg,2,1,j,5,28,328,19,j,1,0.699808264537,01,01,60.0240193558,PLT_learning_01,N,2014_Jan_21_1725,P02,
stim_fb/ques.jpg,stim_fb/negf.jpg,stim_fb/posf.jpg,stim_01/f.jpg,stim_01/e.jpg,1,3,f,5,29,329,43,f,1,0.566518813251,01,01,60.0240193558,PLT_learning_01,N,2014_Jan_21_1725,P02,
stim_fb/ques.jpg,stim_fb/negf.jpg,stim_fb/posf.jpg,stim_01/e.jpg,stim_01/f.jpg,2,3,j,5,30,330,52,j,1,0.649870810965,01,01,60.0240193558,PLT_learning_01,N,2014_Jan_21_1725,P02,
stim_fb/ques.jpg,stim_fb/negf.jpg,stim_fb/posf.jpg,stim_01/b.jpg,stim_01/a.jpg,1,1,f,5,31,331,2,f,1,0.466605602923,01,01,60.0240193558,PLT_learning_01,N,2014_Jan_21_1725,P02,
stim_fb/ques.jpg,stim_fb/negf.jpg,stim_fb/posf.jpg,stim_01/b.jpg,stim_01/a.jpg,1,1,f,5,32,332,4,f,1,0.53321111863,01,01,60.0240193558,PLT_learning_01,N,2014_Jan_21_1725,P02,
stim_fb/ques.jpg,stim_fb/negf.jpg,stim_fb/posf.jpg,stim_01/c.jpg,stim_01/d.jpg,2,2,j,5,33,333,33,j,1,0.74979544067,01,01,60.0240193558,PLT_learning_01,N,2014_Jan_21_1725,P02,
stim_fb/ques.jpg,stim_fb/posf.jpg,stim_fb/negf.jpg,stim_01/f.jpg,stim_01/e.jpg,1,3,f,5,34,334,48,f,1,0.683162235154,01,01,60.0240193558,PLT_learning_01,N,2014_Jan_21_1725,P02,
stim_fb/ques.jpg,stim_fb/posf.jpg,stim_fb/negf.jpg,stim_01/e.jpg,stim_01/f.jpg,2,3,j,5,35,335,58,j,1,0.816406983354,01,01,60.0240193558,PLT_learning_01,N,2014_Jan_21_1725,P02,
stim_fb/ques.jpg,stim_fb/posf.jpg,stim_fb/negf.jpg,stim_01/f.jpg,stim_01/e.jpg,1,3,f,5,36,336,47,f,1,0.483199804514,01,01,60.0240193558,PLT_learning_01,N,2014_Jan_21_1725,P02,
stim_fb/ques.jpg,stim_fb/negf.jpg,stim_fb/posf.jpg,stim_01/d.jpg,stim_01/c.jpg,1,2,f,5,37,337,22,f,1,0.549832252147,01,01,60.0240193558,PLT_learning_01,N,2014_Jan_21_1725,P02,
stim_fb/ques.jpg,stim_fb/negf.jpg,stim_fb/posf.jpg,stim_01/e.jpg,stim_01/f.jpg,2,3,j,5,38,338,54,j,1,0.649840534729,01,01,60.0240193558,PLT_learning_01,N,2014_Jan_21_1725,P02,
stim_fb/ques.jpg,stim_fb/posf.jpg,stim_fb/negf.jpg,stim_01/e.jpg,stim_01/f.jpg,2,3,j,5,39,339,57,j,1,0.816455824724,01,01,60.0240193558,PLT_learning_01,N,2014_Jan_21_1725,P02,
stim_fb/ques.jpg,stim_fb/posf.jpg,stim_fb/negf.jpg,stim_01/c.jpg,stim_01/d.jpg,2,2,j,5,40,340,37,j,1,0.733164514819,01,01,60.0240193558,PLT_learning_01,N,2014_Jan_21_1725,P02,
stim_fb/ques.jpg,stim_fb/posf.jpg,stim_fb/negf.jpg,stim_01/a.jpg,stim_01/b.jpg,2,1,j,5,41,341,18,j,1,0.733074985339,01,01,60.0240193558,PLT_learning_01,N,2014_Jan_21_1725,P02,
stim_fb/ques.jpg,stim_fb/negf.jpg,stim_fb/posf.jpg,stim_01/f.jpg,stim_01/e.jpg,1,3,f,5,42,342,40,f,1,0.683147802289,01,01,60.0240193558,PLT_learning_01,N,2014_Jan_21_1725,P02,
stim_fb/ques.jpg,stim_fb/negf.jpg,stim_fb/posf.jpg,stim_01/a.jpg,stim_01/b.jpg,2,1,j,5,43,343,10,j,1,0.799771365844,01,01,60.0240193558,PLT_learning_01,N,2014_Jan_21_1725,P02,
stim_fb/ques.jpg,stim_fb/negf.jpg,stim_fb/posf.jpg,stim_01/d.jpg,stim_01/c.jpg,1,2,f,5,44,344,23,f,1,0.599827521391,01,01,60.0240193558,PLT_learning_01,N,2014_Jan_21_1725,P02,
stim_fb/ques.jpg,stim_fb/negf.jpg,stim_fb/posf.jpg,stim_01/a.jpg,stim_01/b.jpg,2,1,j,5,45,345,11,j,1,0.566519817747,01,01,60.0240193558,PLT_learning_01,N,2014_Jan_21_1725,P02,
stim_fb/ques.jpg,stim_fb/negf.jpg,stim_fb/posf.jpg,stim_01/a.jpg,stim_01/b.jpg,2,1,j,5,46,346,17,j,1,0.549875168794,01,01,60.0240193558,PLT_learning_01,N,2014_Jan_21_1725,P02,
stim_fb/ques.jpg,stim_fb/negf.jpg,stim_fb/posf.jpg,stim_01/d.jpg,stim_01/c.jpg,1,2,f,5,47,347,24,f,1,0.566539925715,01,01,60.0240193558,PLT_learning_01,N,2014_Jan_21_1725,P02,
stim_fb/ques.jpg,stim_fb/posf.jpg,stim_fb/negf.jpg,stim_01/e.jpg,stim_01/f.jpg,2,3,j,5,48,348,56,j,1,0.866388523481,01,01,60.0240193558,PLT_learning_01,N,2014_Jan_21_1725,P02,
stim_fb/ques.jpg,stim_fb/negf.jpg,stim_fb/posf.jpg,stim_01/b.jpg,stim_01/a.jpg,1,1,f,5,49,349,0,f,1,0.583191290357,01,01,60.0240193558,PLT_learning_01,N,2014_Jan_21_1725,P02,
stim_fb/ques.jpg,stim_fb/negf.jpg,stim_fb/posf.jpg,stim_01/b.jpg,stim_01/a.jpg,1,1,f,5,50,350,6,f,1,0.633160343453,01,01,60.0240193558,PLT_learning_01,N,2014_Jan_21_1725,P02,
stim_fb/ques.jpg,stim_fb/negf.jpg,stim_fb/posf.jpg,stim_01/e.jpg,stim_01/f.jpg,2,3,j,5,51,351,50,f,0,0.799782676952,01,01,60.0240193558,PLT_learning_01,N,2014_Jan_21_1725,P02,
stim_fb/ques.jpg,stim_fb/negf.jpg,stim_fb/posf.jpg,stim_01/c.jpg,stim_01/d.jpg,2,2,j,5,52,352,30,j,1,0.566511369754,01,01,60.0240193558,PLT_learning_01,N,2014_Jan_21_1725,P02,
stim_fb/ques.jpg,stim_fb/negf.jpg,stim_fb/posf.jpg,stim_01/f.jpg,stim_01/e.jpg,1,3,f,5,53,353,44,f,1,0.683156036751,01,01,60.0240193558,PLT_learning_01,N,2014_Jan_21_1725,P02,
stim_fb/ques.jpg,stim_fb/negf.jpg,stim_fb/posf.jpg,stim_01/f.jpg,stim_01/e.jpg,1,3,f,5,54,354,41,j,0,0.649828598066,01,01,60.0240193558,PLT_learning_01,N,2014_Jan_21_1725,P02,
stim_fb/ques.jpg,stim_fb/negf.jpg,stim_fb/posf.jpg,stim_01/d.jpg,stim_01/c.jpg,1,2,f,5,55,355,25,f,1,0.566524283845,01,01,60.0240193558,PLT_learning_01,N,2014_Jan_21_1725,P02,
stim_fb/ques.jpg,stim_fb/negf.jpg,stim_fb/posf.jpg,stim_01/c.jpg,stim_01/d.jpg,2,2,j,5,56,356,35,j,1,0.583176174795,01,01,60.0240193558,PLT_learning_01,N,2014_Jan_21_1725,P02,
stim_fb/ques.jpg,stim_fb/posf.jpg,stim_fb/negf.jpg,stim_01/e.jpg,stim_01/f.jpg,2,3,j,5,57,357,59,j,1,0.783094431662,01,01,60.0240193558,PLT_learning_01,N,2014_Jan_21_1725,P02,
stim_fb/ques.jpg,stim_fb/negf.jpg,stim_fb/posf.jpg,stim_01/a.jpg,stim_01/b.jpg,2,1,j,5,58,358,16,j,1,0.649830742395,01,01,60.0240193558,PLT_learning_01,N,2014_Jan_21_1725,P02,
stim_fb/ques.jpg,stim_fb/posf.jpg,stim_fb/negf.jpg,stim_01/d.jpg,stim_01/c.jpg,1,2,f,5,59,359,29,f,1,0.549890810665,01,01,60.0240193558,PLT_learning_01,N,2014_Jan_21_1725,P02,
