Fb3,Fb2,Fb1,Symbol2,Symbol1,PosCond,Pair,Correct,trials.thisRepN,trials.thisTrialN,trials.thisN,trials.thisIndex,Response.keys,Response.corr,Response.rt,Version,Session Number,frameRate,expName,StimCondition,date,Participant,
stim_fb/ques.jpg,stim_fb/negf.jpg,stim_fb/posf.jpg,stim_01/a.jpg,stim_01/b.jpg,2,1,j,0,0,0,10,f,0,0.999734176435,01,01,60.016178074,PLT_learning_01,N,2014_Jan_30_1715,P03,
stim_fb/ques.jpg,stim_fb/posf.jpg,stim_fb/negf.jpg,stim_01/f.jpg,stim_01/e.jpg,1,3,f,0,1,1,49,j,0,1.36628558883,01,01,60.016178074,PLT_learning_01,N,2014_Jan_30_1715,P03,
stim_fb/ques.jpg,stim_fb/negf.jpg,stim_fb/posf.jpg,stim_01/d.jpg,stim_01/c.jpg,1,2,f,0,2,2,25,None,0,,01,01,60.016178074,PLT_learning_01,N,2014_Jan_30_1715,P03,
stim_fb/ques.jpg,stim_fb/posf.jpg,stim_fb/negf.jpg,stim_01/b.jpg,stim_01/a.jpg,1,1,f,0,3,3,9,j,0,1.23296236269,01,01,60.016178074,PLT_learning_01,N,2014_Jan_30_1715,P03,
stim_fb/ques.jpg,stim_fb/negf.jpg,stim_fb/posf.jpg,stim_01/a.jpg,stim_01/b.jpg,2,1,j,0,4,4,11,None,0,,01,01,60.016178074,PLT_learning_01,N,2014_Jan_30_1715,P03,
stim_fb/ques.jpg,stim_fb/negf.jpg,stim_fb/posf.jpg,stim_01/b.jpg,stim_01/a.jpg,1,1,f,0,5,5,3,j,0,0.949715872813,01,01,60.016178074,PLT_learning_01,N,2014_Jan_30_1715,P03,
stim_fb/ques.jpg,stim_fb/negf.jpg,stim_fb/posf.jpg,stim_01/a.jpg,stim_01/b.jpg,2,1,j,0,6,6,14,f,0,1.09966369275,01,01,60.016178074,PLT_learning_01,N,2014_Jan_30_1715,P03,
stim_fb/ques.jpg,stim_fb/negf.jpg,stim_fb/posf.jpg,stim_01/c.jpg,stim_01/d.jpg,2,2,j,0,7,7,34,j,1,1.0163851159,01,01,60.016178074,PLT_learning_01,N,2014_Jan_30_1715,P03,
stim_fb/ques.jpg,stim_fb/negf.jpg,stim_fb/posf.jpg,stim_01/b.jpg,stim_01/a.jpg,1,1,f,0,8,8,6,j,0,1.14961121195,01,01,60.016178074,PLT_learning_01,N,2014_Jan_30_1715,P03,
stim_fb/ques.jpg,stim_fb/posf.jpg,stim_fb/negf.jpg,stim_01/e.jpg,stim_01/f.jpg,2,3,j,0,9,9,58,f,0,1.33290796911,01,01,60.016178074,PLT_learning_01,N,2014_Jan_30_1715,P03,
stim_fb/ques.jpg,stim_fb/negf.jpg,stim_fb/posf.jpg,stim_01/e.jpg,stim_01/f.jpg,2,3,j,0,10,10,54,f,0,1.23295882287,01,01,60.016178074,PLT_learning_01,N,2014_Jan_30_1715,P03,
stim_fb/ques.jpg,stim_fb/posf.jpg,stim_fb/negf.jpg,stim_01/d.jpg,stim_01/c.jpg,1,2,f,0,11,11,29,j,0,1.03302642837,01,01,60.016178074,PLT_learning_01,N,2014_Jan_30_1715,P03,
stim_fb/ques.jpg,stim_fb/negf.jpg,stim_fb/posf.jpg,stim_01/a.jpg,stim_01/b.jpg,2,1,j,0,12,12,16,j,1,1.46621241645,01,01,60.016178074,PLT_learning_01,N,2014_Jan_30_1715,P03,
stim_fb/ques.jpg,stim_fb/negf.jpg,stim_fb/posf.jpg,stim_01/c.jpg,stim_01/d.jpg,2,2,j,0,13,13,31,f,0,1.44956174766,01,01,60.016178074,PLT_learning_01,N,2014_Jan_30_1715,P03,
stim_fb/ques.jpg,stim_fb/negf.jpg,stim_fb/posf.jpg,stim_01/c.jpg,stim_01/d.jpg,2,2,j,0,14,14,33,j,1,1.06637795806,01,01,60.016178074,PLT_learning_01,N,2014_Jan_30_1715,P03,
stim_fb/ques.jpg,stim_fb/posf.jpg,stim_fb/negf.jpg,stim_01/f.jpg,stim_01/e.jpg,1,3,f,0,15,15,46,j,0,1.08301487959,01,01,60.016178074,PLT_learning_01,N,2014_Jan_30_1715,P03,
stim_fb/ques.jpg,stim_fb/negf.jpg,stim_fb/posf.jpg,stim_01/e.jpg,stim_01/f.jpg,2,3,j,0,16,16,50,j,1,1.14965111841,01,01,60.016178074,PLT_learning_01,N,2014_Jan_30_1715,P03,
stim_fb/ques.jpg,stim_fb/negf.jpg,stim_fb/posf.jpg,stim_01/a.jpg,stim_01/b.jpg,2,1,j,0,17,17,17,f,0,0.949683424937,01,01,60.016178074,PLT_learning_01,N,2014_Jan_30_1715,P03,
stim_fb/ques.jpg,stim_fb/negf.jpg,stim_fb/posf.jpg,stim_01/f.jpg,stim_01/e.jpg,1,3,f,0,18,18,43,j,0,0.949747665055,01,01,60.016178074,PLT_learning_01,N,2014_Jan_30_1715,P03,
stim_fb/ques.jpg,stim_fb/negf.jpg,stim_fb/posf.jpg,stim_01/b.jpg,stim_01/a.jpg,1,1,f,0,19,19,2,f,1,0.916418429937,01,01,60.016178074,PLT_learning_01,N,2014_Jan_30_1715,P03,
stim_fb/ques.jpg,stim_fb/posf.jpg,stim_fb/negf.jpg,stim_01/e.jpg,stim_01/f.jpg,2,3,j,0,20,20,56,f,0,0.816438802716,01,01,60.016178074,PLT_learning_01,N,2014_Jan_30_1715,P03,
stim_fb/ques.jpg,stim_fb/negf.jpg,stim_fb/posf.jpg,stim_01/e.jpg,stim_01/f.jpg,2,3,j,0,21,21,55,j,1,1.03305290637,01,01,60.016178074,PLT_learning_01,N,2014_Jan_30_1715,P03,
stim_fb/ques.jpg,stim_fb/negf.jpg,stim_fb/posf.jpg,stim_01/f.jpg,stim_01/e.jpg,1,3,f,0,22,22,42,j,0,0.899762846896,01,01,60.016178074,PLT_learning_01,N,2014_Jan_30_1715,P03,
stim_fb/ques.jpg,stim_fb/negf.jpg,stim_fb/posf.jpg,stim_01/d.jpg,stim_01/c.jpg,1,2,f,0,23,23,20,f,1,0.933093486515,01,01,60.016178074,PLT_learning_01,N,2014_Jan_30_1715,P03,
stim_fb/ques.jpg,stim_fb/posf.jpg,stim_fb/negf.jpg,stim_01/c.jpg,stim_01/d.jpg,2,2,j,0,24,24,39,f,0,0.699816566793,01,01,60.016178074,PLT_learning_01,N,2014_Jan_30_1715,P03,
stim_fb/ques.jpg,stim_fb/negf.jpg,stim_fb/posf.jpg,stim_01/a.jpg,stim_01/b.jpg,2,1,j,0,25,25,15,f,0,0.749797893249,01,01,60.016178074,PLT_learning_01,N,2014_Jan_30_1715,P03,
stim_fb/ques.jpg,stim_fb/negf.jpg,stim_fb/posf.jpg,stim_01/d.jpg,stim_01/c.jpg,1,2,f,0,26,26,24,j,0,0.649842277877,01,01,60.016178074,PLT_learning_01,N,2014_Jan_30_1715,P03,
stim_fb/ques.jpg,stim_fb/negf.jpg,stim_fb/posf.jpg,stim_01/c.jpg,stim_01/d.jpg,2,2,j,0,27,27,35,f,0,0.749783252757,01,01,60.016178074,PLT_learning_01,N,2014_Jan_30_1715,P03,
stim_fb/ques.jpg,stim_fb/negf.jpg,stim_fb/posf.jpg,stim_01/d.jpg,stim_01/c.jpg,1,2,f,0,28,28,22,j,0,0.866432541109,01,01,60.016178074,PLT_learning_01,N,2014_Jan_30_1715,P03,
stim_fb/ques.jpg,stim_fb/posf.jpg,stim_fb/negf.jpg,stim_01/c.jpg,stim_01/d.jpg,2,2,j,0,29,29,37,j,1,1.04970370448,01,01,60.016178074,PLT_learning_01,N,2014_Jan_30_1715,P03,
stim_fb/ques.jpg,stim_fb/negf.jpg,stim_fb/posf.jpg,stim_01/f.jpg,stim_01/e.jpg,1,3,f,0,30,30,40,f,1,0.933086927166,01,01,60.016178074,PLT_learning_01,N,2014_Jan_30_1715,P03,
stim_fb/ques.jpg,stim_fb/negf.jpg,stim_fb/posf.jpg,stim_01/a.jpg,stim_01/b.jpg,2,1,j,0,31,31,13,f,0,1.33293211028,01,01,60.016178074,PLT_learning_01,N,2014_Jan_30_1715,P03,
stim_fb/ques.jpg,stim_fb/posf.jpg,stim_fb/negf.jpg,stim_01/a.jpg,stim_01/b.jpg,2,1,j,0,32,32,18,j,1,0.949687406862,01,01,60.016178074,PLT_learning_01,N,2014_Jan_30_1715,P03,
stim_fb/ques.jpg,stim_fb/negf.jpg,stim_fb/posf.jpg,stim_01/b.jpg,stim_01/a.jpg,1,1,f,0,33,33,4,j,0,1.18300388418,01,01,60.016178074,PLT_learning_01,N,2014_Jan_30_1715,P03,
stim_fb/ques.jpg,stim_fb/negf.jpg,stim_fb/posf.jpg,stim_01/d.jpg,stim_01/c.jpg,1,2,f,0,34,34,26,f,1,1.24965902512,01,01,60.016178074,PLT_learning_01,N,2014_Jan_30_1715,P03,
stim_fb/ques.jpg,stim_fb/posf.jpg,stim_fb/negf.jpg,stim_01/c.jpg,stim_01/d.jpg,2,2,j,0,35,35,38,f,0,1.04971609236,01,01,60.016178074,PLT_learning_01,N,2014_Jan_30_1715,P03,
stim_fb/ques.jpg,stim_fb/posf.jpg,stim_fb/negf.jpg,stim_01/e.jpg,stim_01/f.jpg,2,3,j,0,36,36,57,f,0,1.48284944023,01,01,60.016178074,PLT_learning_01,N,2014_Jan_30_1715,P03,
stim_fb/ques.jpg,stim_fb/posf.jpg,stim_fb/negf.jpg,stim_01/e.jpg,stim_01/f.jpg,2,3,j,0,37,37,59,j,1,0.666469761881,01,01,60.016178074,PLT_learning_01,N,2014_Jan_30_1715,P03,
stim_fb/ques.jpg,stim_fb/posf.jpg,stim_fb/negf.jpg,stim_01/f.jpg,stim_01/e.jpg,1,3,f,0,38,38,48,None,0,,01,01,60.016178074,PLT_learning_01,N,2014_Jan_30_1715,P03,
stim_fb/ques.jpg,stim_fb/negf.jpg,stim_fb/posf.jpg,stim_01/b.jpg,stim_01/a.jpg,1,1,f,0,39,39,7,j,0,0.949734347862,01,01,60.016178074,PLT_learning_01,N,2014_Jan_30_1715,P03,
stim_fb/ques.jpg,stim_fb/negf.jpg,stim_fb/posf.jpg,stim_01/b.jpg,stim_01/a.jpg,1,1,f,0,40,40,0,f,1,1.04969232713,01,01,60.016178074,PLT_learning_01,N,2014_Jan_30_1715,P03,
stim_fb/ques.jpg,stim_fb/negf.jpg,stim_fb/posf.jpg,stim_01/b.jpg,stim_01/a.jpg,1,1,f,0,41,41,1,f,1,0.799748883091,01,01,60.016178074,PLT_learning_01,N,2014_Jan_30_1715,P03,
stim_fb/ques.jpg,stim_fb/negf.jpg,stim_fb/posf.jpg,stim_01/f.jpg,stim_01/e.jpg,1,3,f,0,42,42,44,f,1,0.51655762889,01,01,60.016178074,PLT_learning_01,N,2014_Jan_30_1715,P03,
stim_fb/ques.jpg,stim_fb/posf.jpg,stim_fb/negf.jpg,stim_01/d.jpg,stim_01/c.jpg,1,2,f,0,43,43,27,j,0,0.849787288817,01,01,60.016178074,PLT_learning_01,N,2014_Jan_30_1715,P03,
stim_fb/ques.jpg,stim_fb/negf.jpg,stim_fb/posf.jpg,stim_01/f.jpg,stim_01/e.jpg,1,3,f,0,44,44,45,j,0,0.649828813317,01,01,60.016178074,PLT_learning_01,N,2014_Jan_30_1715,P03,
stim_fb/ques.jpg,stim_fb/posf.jpg,stim_fb/negf.jpg,stim_01/b.jpg,stim_01/a.jpg,1,1,f,0,45,45,8,f,1,0.966374252825,01,01,60.016178074,PLT_learning_01,N,2014_Jan_30_1715,P03,
stim_fb/ques.jpg,stim_fb/negf.jpg,stim_fb/posf.jpg,stim_01/a.jpg,stim_01/b.jpg,2,1,j,0,46,46,12,j,1,0.866453999594,01,01,60.016178074,PLT_learning_01,N,2014_Jan_30_1715,P03,
stim_fb/ques.jpg,stim_fb/negf.jpg,stim_fb/posf.jpg,stim_01/d.jpg,stim_01/c.jpg,1,2,f,0,47,47,23,j,0,0.949723740423,01,01,60.016178074,PLT_learning_01,N,2014_Jan_30_1715,P03,
stim_fb/ques.jpg,stim_fb/negf.jpg,stim_fb/posf.jpg,stim_01/f.jpg,stim_01/e.jpg,1,3,f,0,48,48,41,f,1,0.866427569717,01,01,60.016178074,PLT_learning_01,N,2014_Jan_30_1715,P03,
stim_fb/ques.jpg,stim_fb/negf.jpg,stim_fb/posf.jpg,stim_01/e.jpg,stim_01/f.jpg,2,3,j,0,49,49,51,f,0,0.94975139435,01,01,60.016178074,PLT_learning_01,N,2014_Jan_30_1715,P03,
stim_fb/ques.jpg,stim_fb/negf.jpg,stim_fb/posf.jpg,stim_01/e.jpg,stim_01/f.jpg,2,3,j,0,50,50,53,j,1,1.38289456771,01,01,60.016178074,PLT_learning_01,N,2014_Jan_30_1715,P03,
stim_fb/ques.jpg,stim_fb/negf.jpg,stim_fb/posf.jpg,stim_01/c.jpg,stim_01/d.jpg,2,2,j,0,51,51,36,j,1,1.53287150924,01,01,60.016178074,PLT_learning_01,N,2014_Jan_30_1715,P03,
stim_fb/ques.jpg,stim_fb/negf.jpg,stim_fb/posf.jpg,stim_01/d.jpg,stim_01/c.jpg,1,2,f,0,52,52,21,f,1,1.06635437929,01,01,60.016178074,PLT_learning_01,N,2014_Jan_30_1715,P03,
stim_fb/ques.jpg,stim_fb/posf.jpg,stim_fb/negf.jpg,stim_01/a.jpg,stim_01/b.jpg,2,1,j,0,53,53,19,j,1,0.933077285133,01,01,60.016178074,PLT_learning_01,N,2014_Jan_30_1715,P03,
stim_fb/ques.jpg,stim_fb/negf.jpg,stim_fb/posf.jpg,stim_01/c.jpg,stim_01/d.jpg,2,2,j,0,54,54,32,f,0,0.333272808475,01,01,60.016178074,PLT_learning_01,N,2014_Jan_30_1715,P03,
stim_fb/ques.jpg,stim_fb/negf.jpg,stim_fb/posf.jpg,stim_01/c.jpg,stim_01/d.jpg,2,2,j,0,55,55,30,j,1,0.533171269389,01,01,60.016178074,PLT_learning_01,N,2014_Jan_30_1715,P03,
stim_fb/ques.jpg,stim_fb/posf.jpg,stim_fb/negf.jpg,stim_01/f.jpg,stim_01/e.jpg,1,3,f,0,56,56,47,j,0,0.549868199487,01,01,60.016178074,PLT_learning_01,N,2014_Jan_30_1715,P03,
stim_fb/ques.jpg,stim_fb/negf.jpg,stim_fb/posf.jpg,stim_01/b.jpg,stim_01/a.jpg,1,1,f,0,57,57,5,j,0,0.566512269832,01,01,60.016178074,PLT_learning_01,N,2014_Jan_30_1715,P03,
stim_fb/ques.jpg,stim_fb/negf.jpg,stim_fb/posf.jpg,stim_01/e.jpg,stim_01/f.jpg,2,3,j,0,58,58,52,f,0,0.549850701874,01,01,60.016178074,PLT_learning_01,N,2014_Jan_30_1715,P03,
stim_fb/ques.jpg,stim_fb/posf.jpg,stim_fb/negf.jpg,stim_01/d.jpg,stim_01/c.jpg,1,2,f,0,59,59,28,f,1,0.366585628679,01,01,60.016178074,PLT_learning_01,N,2014_Jan_30_1715,P03,
stim_fb/ques.jpg,stim_fb/negf.jpg,stim_fb/posf.jpg,stim_01/e.jpg,stim_01/f.jpg,2,3,j,1,0,60,53,f,0,1.23284919362,01,01,60.016178074,PLT_learning_01,N,2014_Jan_30_1715,P03,
stim_fb/ques.jpg,stim_fb/posf.jpg,stim_fb/negf.jpg,stim_01/e.jpg,stim_01/f.jpg,2,3,j,1,1,61,58,j,1,0.716442679378,01,01,60.016178074,PLT_learning_01,N,2014_Jan_30_1715,P03,
stim_fb/ques.jpg,stim_fb/negf.jpg,stim_fb/posf.jpg,stim_01/e.jpg,stim_01/f.jpg,2,3,j,1,2,62,52,j,1,0.783125332892,01,01,60.016178074,PLT_learning_01,N,2014_Jan_30_1715,P03,
stim_fb/ques.jpg,stim_fb/posf.jpg,stim_fb/negf.jpg,stim_01/c.jpg,stim_01/d.jpg,2,2,j,1,3,63,38,j,1,0.733126713333,01,01,60.016178074,PLT_learning_01,N,2014_Jan_30_1715,P03,
stim_fb/ques.jpg,stim_fb/negf.jpg,stim_fb/posf.jpg,stim_01/e.jpg,stim_01/f.jpg,2,3,j,1,4,64,51,f,0,0.183306973632,01,01,60.016178074,PLT_learning_01,N,2014_Jan_30_1715,P03,
stim_fb/ques.jpg,stim_fb/negf.jpg,stim_fb/posf.jpg,stim_01/a.jpg,stim_01/b.jpg,2,1,j,1,5,65,10,f,0,0.483191148939,01,01,60.016178074,PLT_learning_01,N,2014_Jan_30_1715,P03,
stim_fb/ques.jpg,stim_fb/posf.jpg,stim_fb/negf.jpg,stim_01/c.jpg,stim_01/d.jpg,2,2,j,1,6,66,37,j,1,1.2663080428,01,01,60.016178074,PLT_learning_01,N,2014_Jan_30_1715,P03,
stim_fb/ques.jpg,stim_fb/negf.jpg,stim_fb/posf.jpg,stim_01/e.jpg,stim_01/f.jpg,2,3,j,1,7,67,55,f,0,0.666532002015,01,01,60.016178074,PLT_learning_01,N,2014_Jan_30_1715,P03,
stim_fb/ques.jpg,stim_fb/negf.jpg,stim_fb/posf.jpg,stim_01/e.jpg,stim_01/f.jpg,2,3,j,1,8,68,54,j,1,1.06636673108,01,01,60.016178074,PLT_learning_01,N,2014_Jan_30_1715,P03,
stim_fb/ques.jpg,stim_fb/negf.jpg,stim_fb/posf.jpg,stim_01/c.jpg,stim_01/d.jpg,2,2,j,1,9,69,36,j,1,1.28298076556,01,01,60.016178074,PLT_learning_01,N,2014_Jan_30_1715,P03,
stim_fb/ques.jpg,stim_fb/posf.jpg,stim_fb/negf.jpg,stim_01/d.jpg,stim_01/c.jpg,1,2,f,1,10,70,28,None,0,,01,01,60.016178074,PLT_learning_01,N,2014_Jan_30_1715,P03,
stim_fb/ques.jpg,stim_fb/negf.jpg,stim_fb/posf.jpg,stim_01/f.jpg,stim_01/e.jpg,1,3,f,1,11,71,40,j,0,0.933066584462,01,01,60.016178074,PLT_learning_01,N,2014_Jan_30_1715,P03,
stim_fb/ques.jpg,stim_fb/negf.jpg,stim_fb/posf.jpg,stim_01/b.jpg,stim_01/a.jpg,1,1,f,1,12,72,1,j,0,1.01636194314,01,01,60.016178074,PLT_learning_01,N,2014_Jan_30_1715,P03,
stim_fb/ques.jpg,stim_fb/negf.jpg,stim_fb/posf.jpg,stim_01/b.jpg,stim_01/a.jpg,1,1,f,1,13,73,4,f,1,0.999751872542,01,01,60.016178074,PLT_learning_01,N,2014_Jan_30_1715,P03,
stim_fb/ques.jpg,stim_fb/negf.jpg,stim_fb/posf.jpg,stim_01/b.jpg,stim_01/a.jpg,1,1,f,1,14,74,7,f,1,0.866444883873,01,01,60.016178074,PLT_learning_01,N,2014_Jan_30_1715,P03,
stim_fb/ques.jpg,stim_fb/negf.jpg,stim_fb/posf.jpg,stim_01/b.jpg,stim_01/a.jpg,1,1,f,1,15,75,3,f,1,0.933077664078,01,01,60.016178074,PLT_learning_01,N,2014_Jan_30_1715,P03,
stim_fb/ques.jpg,stim_fb/negf.jpg,stim_fb/posf.jpg,stim_01/a.jpg,stim_01/b.jpg,2,1,j,1,16,76,14,j,1,1.23297475658,01,01,60.016178074,PLT_learning_01,N,2014_Jan_30_1715,P03,
stim_fb/ques.jpg,stim_fb/negf.jpg,stim_fb/posf.jpg,stim_01/d.jpg,stim_01/c.jpg,1,2,f,1,17,77,21,None,0,,01,01,60.016178074,PLT_learning_01,N,2014_Jan_30_1715,P03,
stim_fb/ques.jpg,stim_fb/negf.jpg,stim_fb/posf.jpg,stim_01/c.jpg,stim_01/d.jpg,2,2,j,1,18,78,33,j,1,1.0830123954,01,01,60.016178074,PLT_learning_01,N,2014_Jan_30_1715,P03,
stim_fb/ques.jpg,stim_fb/negf.jpg,stim_fb/posf.jpg,stim_01/b.jpg,stim_01/a.jpg,1,1,f,1,19,79,2,None,0,,01,01,60.016178074,PLT_learning_01,N,2014_Jan_30_1715,P03,
stim_fb/ques.jpg,stim_fb/negf.jpg,stim_fb/posf.jpg,stim_01/a.jpg,stim_01/b.jpg,2,1,j,1,20,80,13,f,0,1.43278952489,01,01,60.016178074,PLT_learning_01,N,2014_Jan_30_1715,P03,
stim_fb/ques.jpg,stim_fb/negf.jpg,stim_fb/posf.jpg,stim_01/a.jpg,stim_01/b.jpg,2,1,j,1,21,81,12,j,1,0.999713493884,01,01,60.016178074,PLT_learning_01,N,2014_Jan_30_1715,P03,
stim_fb/ques.jpg,stim_fb/posf.jpg,stim_fb/negf.jpg,stim_01/b.jpg,stim_01/a.jpg,1,1,f,1,22,82,8,f,1,1.24961930211,01,01,60.016178074,PLT_learning_01,N,2014_Jan_30_1715,P03,
stim_fb/ques.jpg,stim_fb/posf.jpg,stim_fb/negf.jpg,stim_01/a.jpg,stim_01/b.jpg,2,1,j,1,23,83,18,j,1,1.16633046368,01,01,60.016178074,PLT_learning_01,N,2014_Jan_30_1715,P03,
stim_fb/ques.jpg,stim_fb/posf.jpg,stim_fb/negf.jpg,stim_01/f.jpg,stim_01/e.jpg,1,3,f,1,24,84,46,j,0,1.06636914008,01,01,60.016178074,PLT_learning_01,N,2014_Jan_30_1715,P03,
stim_fb/ques.jpg,stim_fb/posf.jpg,stim_fb/negf.jpg,stim_01/c.jpg,stim_01/d.jpg,2,2,j,1,25,85,39,f,0,1.18298205878,01,01,60.016178074,PLT_learning_01,N,2014_Jan_30_1715,P03,
stim_fb/ques.jpg,stim_fb/posf.jpg,stim_fb/negf.jpg,stim_01/f.jpg,stim_01/e.jpg,1,3,f,1,26,86,49,j,0,1.0496807633,01,01,60.016178074,PLT_learning_01,N,2014_Jan_30_1715,P03,
stim_fb/ques.jpg,stim_fb/negf.jpg,stim_fb/posf.jpg,stim_01/e.jpg,stim_01/f.jpg,2,3,j,1,27,87,50,f,0,0.999738374899,01,01,60.016178074,PLT_learning_01,N,2014_Jan_30_1715,P03,
stim_fb/ques.jpg,stim_fb/negf.jpg,stim_fb/posf.jpg,stim_01/d.jpg,stim_01/c.jpg,1,2,f,1,28,88,22,j,0,1.18300069323,01,01,60.016178074,PLT_learning_01,N,2014_Jan_30_1715,P03,
stim_fb/ques.jpg,stim_fb/posf.jpg,stim_fb/negf.jpg,stim_01/e.jpg,stim_01/f.jpg,2,3,j,1,29,89,59,j,1,1.48291460966,01,01,60.016178074,PLT_learning_01,N,2014_Jan_30_1715,P03,
stim_fb/ques.jpg,stim_fb/posf.jpg,stim_fb/negf.jpg,stim_01/b.jpg,stim_01/a.jpg,1,1,f,1,30,90,9,f,1,1.58285074548,01,01,60.016178074,PLT_learning_01,N,2014_Jan_30_1715,P03,
stim_fb/ques.jpg,stim_fb/posf.jpg,stim_fb/negf.jpg,stim_01/d.jpg,stim_01/c.jpg,1,2,f,1,31,91,29,f,1,1.03302573063,01,01,60.016178074,PLT_learning_01,N,2014_Jan_30_1715,P03,
stim_fb/ques.jpg,stim_fb/negf.jpg,stim_fb/posf.jpg,stim_01/d.jpg,stim_01/c.jpg,1,2,f,1,32,92,25,f,1,1.01638716401,01,01,60.016178074,PLT_learning_01,N,2014_Jan_30_1715,P03,
stim_fb/ques.jpg,stim_fb/negf.jpg,stim_fb/posf.jpg,stim_01/b.jpg,stim_01/a.jpg,1,1,f,1,33,93,0,j,0,1.46623436816,01,01,60.016178074,PLT_learning_01,N,2014_Jan_30_1715,P03,
stim_fb/ques.jpg,stim_fb/negf.jpg,stim_fb/posf.jpg,stim_01/a.jpg,stim_01/b.jpg,2,1,j,1,34,94,17,j,1,1.31625924316,01,01,60.016178074,PLT_learning_01,N,2014_Jan_30_1715,P03,
stim_fb/ques.jpg,stim_fb/negf.jpg,stim_fb/posf.jpg,stim_01/c.jpg,stim_01/d.jpg,2,2,j,1,35,95,32,None,0,,01,01,60.016178074,PLT_learning_01,N,2014_Jan_30_1715,P03,
stim_fb/ques.jpg,stim_fb/negf.jpg,stim_fb/posf.jpg,stim_01/c.jpg,stim_01/d.jpg,2,2,j,1,36,96,35,f,0,1.04970528342,01,01,60.016178074,PLT_learning_01,N,2014_Jan_30_1715,P03,
stim_fb/ques.jpg,stim_fb/negf.jpg,stim_fb/posf.jpg,stim_01/c.jpg,stim_01/d.jpg,2,2,j,1,37,97,31,j,1,0.783136099729,01,01,60.016178074,PLT_learning_01,N,2014_Jan_30_1715,P03,
stim_fb/ques.jpg,stim_fb/negf.jpg,stim_fb/posf.jpg,stim_01/b.jpg,stim_01/a.jpg,1,1,f,1,38,98,5,f,1,1.48290298268,01,01,60.016178074,PLT_learning_01,N,2014_Jan_30_1715,P03,
stim_fb/ques.jpg,stim_fb/negf.jpg,stim_fb/posf.jpg,stim_01/b.jpg,stim_01/a.jpg,1,1,f,1,39,99,6,f,1,0.916401915775,01,01,60.016178074,PLT_learning_01,N,2014_Jan_30_1715,P03,
stim_fb/ques.jpg,stim_fb/negf.jpg,stim_fb/posf.jpg,stim_01/f.jpg,stim_01/e.jpg,1,3,f,1,40,100,45,j,0,1.19966402358,01,01,60.016178074,PLT_learning_01,N,2014_Jan_30_1715,P03,
stim_fb/ques.jpg,stim_fb/negf.jpg,stim_fb/posf.jpg,stim_01/d.jpg,stim_01/c.jpg,1,2,f,1,41,101,23,None,0,,01,01,60.016178074,PLT_learning_01,N,2014_Jan_30_1715,P03,
stim_fb/ques.jpg,stim_fb/posf.jpg,stim_fb/negf.jpg,stim_01/e.jpg,stim_01/f.jpg,2,3,j,1,42,102,57,f,0,1.14963794558,01,01,60.016178074,PLT_learning_01,N,2014_Jan_30_1715,P03,
stim_fb/ques.jpg,stim_fb/negf.jpg,stim_fb/posf.jpg,stim_01/d.jpg,stim_01/c.jpg,1,2,f,1,43,103,26,j,0,1.33297292502,01,01,60.016178074,PLT_learning_01,N,2014_Jan_30_1715,P03,
stim_fb/ques.jpg,stim_fb/posf.jpg,stim_fb/negf.jpg,stim_01/f.jpg,stim_01/e.jpg,1,3,f,1,44,104,48,j,0,1.28299068127,01,01,60.016178074,PLT_learning_01,N,2014_Jan_30_1715,P03,
stim_fb/ques.jpg,stim_fb/posf.jpg,stim_fb/negf.jpg,stim_01/d.jpg,stim_01/c.jpg,1,2,f,1,45,105,27,j,0,1.0163325178,01,01,60.016178074,PLT_learning_01,N,2014_Jan_30_1715,P03,
stim_fb/ques.jpg,stim_fb/negf.jpg,stim_fb/posf.jpg,stim_01/d.jpg,stim_01/c.jpg,1,2,f,1,46,106,20,j,0,0.949734149367,01,01,60.016178074,PLT_learning_01,N,2014_Jan_30_1715,P03,
stim_fb/ques.jpg,stim_fb/negf.jpg,stim_fb/posf.jpg,stim_01/a.jpg,stim_01/b.jpg,2,1,j,1,47,107,11,f,0,1.09970283231,01,01,60.016178074,PLT_learning_01,N,2014_Jan_30_1715,P03,
stim_fb/ques.jpg,stim_fb/negf.jpg,stim_fb/posf.jpg,stim_01/f.jpg,stim_01/e.jpg,1,3,f,1,48,108,43,f,1,1.36625619055,01,01,60.016178074,PLT_learning_01,N,2014_Jan_30_1715,P03,
stim_fb/ques.jpg,stim_fb/negf.jpg,stim_fb/posf.jpg,stim_01/d.jpg,stim_01/c.jpg,1,2,f,1,49,109,24,f,1,1.48285716348,01,01,60.016178074,PLT_learning_01,N,2014_Jan_30_1715,P03,
stim_fb/ques.jpg,stim_fb/negf.jpg,stim_fb/posf.jpg,stim_01/f.jpg,stim_01/e.jpg,1,3,f,1,50,110,42,j,0,1.38290247141,01,01,60.016178074,PLT_learning_01,N,2014_Jan_30_1715,P03,
stim_fb/ques.jpg,stim_fb/negf.jpg,stim_fb/posf.jpg,stim_01/c.jpg,stim_01/d.jpg,2,2,j,1,51,111,34,f,0,0.916369675416,01,01,60.016178074,PLT_learning_01,N,2014_Jan_30_1715,P03,
stim_fb/ques.jpg,stim_fb/negf.jpg,stim_fb/posf.jpg,stim_01/f.jpg,stim_01/e.jpg,1,3,f,1,52,112,44,j,0,1.16634655379,01,01,60.016178074,PLT_learning_01,N,2014_Jan_30_1715,P03,
stim_fb/ques.jpg,stim_fb/posf.jpg,stim_fb/negf.jpg,stim_01/a.jpg,stim_01/b.jpg,2,1,j,1,53,113,19,f,0,0.76645341614,01,01,60.016178074,PLT_learning_01,N,2014_Jan_30_1715,P03,
stim_fb/ques.jpg,stim_fb/negf.jpg,stim_fb/posf.jpg,stim_01/a.jpg,stim_01/b.jpg,2,1,j,1,54,114,16,f,0,0.61650846535,01,01,60.016178074,PLT_learning_01,N,2014_Jan_30_1715,P03,
stim_fb/ques.jpg,stim_fb/negf.jpg,stim_fb/posf.jpg,stim_01/a.jpg,stim_01/b.jpg,2,1,j,1,55,115,15,j,1,1.01640779543,01,01,60.016178074,PLT_learning_01,N,2014_Jan_30_1715,P03,
stim_fb/ques.jpg,stim_fb/posf.jpg,stim_fb/negf.jpg,stim_01/e.jpg,stim_01/f.jpg,2,3,j,1,56,116,56,f,0,1.14964880866,01,01,60.016178074,PLT_learning_01,N,2014_Jan_30_1715,P03,
stim_fb/ques.jpg,stim_fb/negf.jpg,stim_fb/posf.jpg,stim_01/c.jpg,stim_01/d.jpg,2,2,j,1,57,117,30,f,0,1.46621225705,01,01,60.016178074,PLT_learning_01,N,2014_Jan_30_1715,P03,
stim_fb/ques.jpg,stim_fb/posf.jpg,stim_fb/negf.jpg,stim_01/f.jpg,stim_01/e.jpg,1,3,f,1,58,118,47,j,0,0.749796221081,01,01,60.016178074,PLT_learning_01,N,2014_Jan_30_1715,P03,
stim_fb/ques.jpg,stim_fb/negf.jpg,stim_fb/posf.jpg,stim_01/f.jpg,stim_01/e.jpg,1,3,f,1,59,119,41,j,0,0.783092163217,01,01,60.016178074,PLT_learning_01,N,2014_Jan_30_1715,P03,
stim_fb/ques.jpg,stim_fb/negf.jpg,stim_fb/posf.jpg,stim_01/f.jpg,stim_01/e.jpg,1,3,f,2,0,120,41,j,0,0.899751508635,01,01,60.016178074,PLT_learning_01,N,2014_Jan_30_1715,P03,
stim_fb/ques.jpg,stim_fb/negf.jpg,stim_fb/posf.jpg,stim_01/d.jpg,stim_01/c.jpg,1,2,f,2,1,121,23,f,1,0.849782365546,01,01,60.016178074,PLT_learning_01,N,2014_Jan_30_1715,P03,
stim_fb/ques.jpg,stim_fb/negf.jpg,stim_fb/posf.jpg,stim_01/c.jpg,stim_01/d.jpg,2,2,j,2,2,122,31,j,1,1.31632090586,01,01,60.016178074,PLT_learning_01,N,2014_Jan_30_1715,P03,
stim_fb/ques.jpg,stim_fb/negf.jpg,stim_fb/posf.jpg,stim_01/e.jpg,stim_01/f.jpg,2,3,j,2,3,123,55,f,0,1.08302545094,01,01,60.016178074,PLT_learning_01,N,2014_Jan_30_1715,P03,
stim_fb/ques.jpg,stim_fb/posf.jpg,stim_fb/negf.jpg,stim_01/c.jpg,stim_01/d.jpg,2,2,j,2,4,124,37,j,1,0.833106845813,01,01,60.016178074,PLT_learning_01,N,2014_Jan_30_1715,P03,
stim_fb/ques.jpg,stim_fb/posf.jpg,stim_fb/negf.jpg,stim_01/f.jpg,stim_01/e.jpg,1,3,f,2,5,125,49,f,1,0.84975979128,01,01,60.016178074,PLT_learning_01,N,2014_Jan_30_1715,P03,
stim_fb/ques.jpg,stim_fb/negf.jpg,stim_fb/posf.jpg,stim_01/a.jpg,stim_01/b.jpg,2,1,j,2,6,126,14,f,0,1.18298477154,01,01,60.016178074,PLT_learning_01,N,2014_Jan_30_1715,P03,
stim_fb/ques.jpg,stim_fb/posf.jpg,stim_fb/negf.jpg,stim_01/e.jpg,stim_01/f.jpg,2,3,j,2,7,127,58,f,0,1.06637300171,01,01,60.016178074,PLT_learning_01,N,2014_Jan_30_1715,P03,
stim_fb/ques.jpg,stim_fb/negf.jpg,stim_fb/posf.jpg,stim_01/c.jpg,stim_01/d.jpg,2,2,j,2,8,128,32,f,0,1.48289487447,01,01,60.016178074,PLT_learning_01,N,2014_Jan_30_1715,P03,
stim_fb/ques.jpg,stim_fb/negf.jpg,stim_fb/posf.jpg,stim_01/b.jpg,stim_01/a.jpg,1,1,f,2,9,129,4,j,0,0.949713289374,01,01,60.016178074,PLT_learning_01,N,2014_Jan_30_1715,P03,
stim_fb/ques.jpg,stim_fb/posf.jpg,stim_fb/negf.jpg,stim_01/f.jpg,stim_01/e.jpg,1,3,f,2,10,130,46,f,1,1.11636500477,01,01,60.016178074,PLT_learning_01,N,2014_Jan_30_1715,P03,
stim_fb/ques.jpg,stim_fb/posf.jpg,stim_fb/negf.jpg,stim_01/a.jpg,stim_01/b.jpg,2,1,j,2,11,131,18,j,1,0.71647438741,01,01,60.016178074,PLT_learning_01,N,2014_Jan_30_1715,P03,
stim_fb/ques.jpg,stim_fb/posf.jpg,stim_fb/negf.jpg,stim_01/c.jpg,stim_01/d.jpg,2,2,j,2,12,132,38,f,0,1.39959712483,01,01,60.016178074,PLT_learning_01,N,2014_Jan_30_1715,P03,
stim_fb/ques.jpg,stim_fb/posf.jpg,stim_fb/negf.jpg,stim_01/b.jpg,stim_01/a.jpg,1,1,f,2,13,133,9,None,0,,01,01,60.016178074,PLT_learning_01,N,2014_Jan_30_1715,P03,
stim_fb/ques.jpg,stim_fb/negf.jpg,stim_fb/posf.jpg,stim_01/c.jpg,stim_01/d.jpg,2,2,j,2,14,134,30,j,1,0.716473542304,01,01,60.016178074,PLT_learning_01,N,2014_Jan_30_1715,P03,
stim_fb/ques.jpg,stim_fb/negf.jpg,stim_fb/posf.jpg,stim_01/a.jpg,stim_01/b.jpg,2,1,j,2,15,135,12,f,0,1.43290652852,01,01,60.016178074,PLT_learning_01,N,2014_Jan_30_1715,P03,
stim_fb/ques.jpg,stim_fb/negf.jpg,stim_fb/posf.jpg,stim_01/e.jpg,stim_01/f.jpg,2,3,j,2,16,136,50,f,0,1.19961307659,01,01,60.016178074,PLT_learning_01,N,2014_Jan_30_1715,P03,
stim_fb/ques.jpg,stim_fb/negf.jpg,stim_fb/posf.jpg,stim_01/f.jpg,stim_01/e.jpg,1,3,f,2,17,137,42,j,0,0.716481981339,01,01,60.016178074,PLT_learning_01,N,2014_Jan_30_1715,P03,
stim_fb/ques.jpg,stim_fb/negf.jpg,stim_fb/posf.jpg,stim_01/c.jpg,stim_01/d.jpg,2,2,j,2,18,138,36,f,0,0.783108304449,01,01,60.016178074,PLT_learning_01,N,2014_Jan_30_1715,P03,
stim_fb/ques.jpg,stim_fb/negf.jpg,stim_fb/posf.jpg,stim_01/a.jpg,stim_01/b.jpg,2,1,j,2,19,139,11,f,0,1.03303010654,01,01,60.016178074,PLT_learning_01,N,2014_Jan_30_1715,P03,
stim_fb/ques.jpg,stim_fb/negf.jpg,stim_fb/posf.jpg,stim_01/b.jpg,stim_01/a.jpg,1,1,f,2,20,140,7,j,0,0.649861967955,01,01,60.016178074,PLT_learning_01,N,2014_Jan_30_1715,P03,
stim_fb/ques.jpg,stim_fb/negf.jpg,stim_fb/posf.jpg,stim_01/d.jpg,stim_01/c.jpg,1,2,f,2,21,141,22,f,1,0.816435007255,01,01,60.016178074,PLT_learning_01,N,2014_Jan_30_1715,P03,
stim_fb/ques.jpg,stim_fb/negf.jpg,stim_fb/posf.jpg,stim_01/a.jpg,stim_01/b.jpg,2,1,j,2,22,142,13,None,0,,01,01,60.016178074,PLT_learning_01,N,2014_Jan_30_1715,P03,
stim_fb/ques.jpg,stim_fb/posf.jpg,stim_fb/negf.jpg,stim_01/d.jpg,stim_01/c.jpg,1,2,f,2,23,143,28,f,1,0.64983810648,01,01,60.016178074,PLT_learning_01,N,2014_Jan_30_1715,P03,
stim_fb/ques.jpg,stim_fb/negf.jpg,stim_fb/posf.jpg,stim_01/b.jpg,stim_01/a.jpg,1,1,f,2,24,144,3,j,0,1.03309115571,01,01,60.016178074,PLT_learning_01,N,2014_Jan_30_1715,P03,
stim_fb/ques.jpg,stim_fb/negf.jpg,stim_fb/posf.jpg,stim_01/e.jpg,stim_01/f.jpg,2,3,j,2,25,145,52,f,0,0.599858864219,01,01,60.016178074,PLT_learning_01,N,2014_Jan_30_1715,P03,
stim_fb/ques.jpg,stim_fb/posf.jpg,stim_fb/negf.jpg,stim_01/e.jpg,stim_01/f.jpg,2,3,j,2,26,146,57,f,0,0.916463975459,01,01,60.016178074,PLT_learning_01,N,2014_Jan_30_1715,P03,
stim_fb/ques.jpg,stim_fb/negf.jpg,stim_fb/posf.jpg,stim_01/b.jpg,stim_01/a.jpg,1,1,f,2,27,147,5,j,0,0.983056722882,01,01,60.016178074,PLT_learning_01,N,2014_Jan_30_1715,P03,
stim_fb/ques.jpg,stim_fb/posf.jpg,stim_fb/negf.jpg,stim_01/d.jpg,stim_01/c.jpg,1,2,f,2,28,148,29,f,1,0.866405275148,01,01,60.016178074,PLT_learning_01,N,2014_Jan_30_1715,P03,
stim_fb/ques.jpg,stim_fb/negf.jpg,stim_fb/posf.jpg,stim_01/d.jpg,stim_01/c.jpg,1,2,f,2,29,149,24,j,0,1.09963794257,01,01,60.016178074,PLT_learning_01,N,2014_Jan_30_1715,P03,
stim_fb/ques.jpg,stim_fb/negf.jpg,stim_fb/posf.jpg,stim_01/f.jpg,stim_01/e.jpg,1,3,f,2,30,150,43,j,0,0.949778446779,01,01,60.016178074,PLT_learning_01,N,2014_Jan_30_1715,P03,
stim_fb/ques.jpg,stim_fb/posf.jpg,stim_fb/negf.jpg,stim_01/e.jpg,stim_01/f.jpg,2,3,j,2,31,151,59,f,0,0.499886439952,01,01,60.016178074,PLT_learning_01,N,2014_Jan_30_1715,P03,
stim_fb/ques.jpg,stim_fb/posf.jpg,stim_fb/negf.jpg,stim_01/f.jpg,stim_01/e.jpg,1,3,f,2,32,152,48,j,0,1.31629474365,01,01,60.016178074,PLT_learning_01,N,2014_Jan_30_1715,P03,
stim_fb/ques.jpg,stim_fb/negf.jpg,stim_fb/posf.jpg,stim_01/f.jpg,stim_01/e.jpg,1,3,f,2,33,153,45,j,0,0.749799075195,01,01,60.016178074,PLT_learning_01,N,2014_Jan_30_1715,P03,
stim_fb/ques.jpg,stim_fb/posf.jpg,stim_fb/negf.jpg,stim_01/d.jpg,stim_01/c.jpg,1,2,f,2,34,154,27,f,1,0.566553716137,01,01,60.016178074,PLT_learning_01,N,2014_Jan_30_1715,P03,
stim_fb/ques.jpg,stim_fb/negf.jpg,stim_fb/posf.jpg,stim_01/a.jpg,stim_01/b.jpg,2,1,j,2,35,155,15,None,0,,01,01,60.016178074,PLT_learning_01,N,2014_Jan_30_1715,P03,
stim_fb/ques.jpg,stim_fb/negf.jpg,stim_fb/posf.jpg,stim_01/c.jpg,stim_01/d.jpg,2,2,j,2,36,156,33,j,1,0.449791751942,01,01,60.016178074,PLT_learning_01,N,2014_Jan_30_1715,P03,
stim_fb/ques.jpg,stim_fb/posf.jpg,stim_fb/negf.jpg,stim_01/e.jpg,stim_01/f.jpg,2,3,j,2,37,157,56,f,0,0.833117627687,01,01,60.016178074,PLT_learning_01,N,2014_Jan_30_1715,P03,
stim_fb/ques.jpg,stim_fb/posf.jpg,stim_fb/negf.jpg,stim_01/a.jpg,stim_01/b.jpg,2,1,j,2,38,158,19,j,1,1.16634854475,01,01,60.016178074,PLT_learning_01,N,2014_Jan_30_1715,P03,
stim_fb/ques.jpg,stim_fb/posf.jpg,stim_fb/negf.jpg,stim_01/f.jpg,stim_01/e.jpg,1,3,f,2,39,159,47,f,1,0.999716119428,01,01,60.016178074,PLT_learning_01,N,2014_Jan_30_1715,P03,
stim_fb/ques.jpg,stim_fb/negf.jpg,stim_fb/posf.jpg,stim_01/a.jpg,stim_01/b.jpg,2,1,j,2,40,160,16,j,1,0.916389642183,01,01,60.016178074,PLT_learning_01,N,2014_Jan_30_1715,P03,
stim_fb/ques.jpg,stim_fb/negf.jpg,stim_fb/posf.jpg,stim_01/d.jpg,stim_01/c.jpg,1,2,f,2,41,161,25,f,1,0.449894996278,01,01,60.016178074,PLT_learning_01,N,2014_Jan_30_1715,P03,
stim_fb/ques.jpg,stim_fb/negf.jpg,stim_fb/posf.jpg,stim_01/d.jpg,stim_01/c.jpg,1,2,f,2,42,162,26,f,1,0.549889369253,01,01,60.016178074,PLT_learning_01,N,2014_Jan_30_1715,P03,
stim_fb/ques.jpg,stim_fb/posf.jpg,stim_fb/negf.jpg,stim_01/b.jpg,stim_01/a.jpg,1,1,f,2,43,163,8,j,0,1.11631413899,01,01,60.016178074,PLT_learning_01,N,2014_Jan_30_1715,P03,
stim_fb/ques.jpg,stim_fb/negf.jpg,stim_fb/posf.jpg,stim_01/b.jpg,stim_01/a.jpg,1,1,f,2,44,164,0,f,1,1.26630476463,01,01,60.016178074,PLT_learning_01,N,2014_Jan_30_1715,P03,
stim_fb/ques.jpg,stim_fb/negf.jpg,stim_fb/posf.jpg,stim_01/b.jpg,stim_01/a.jpg,1,1,f,2,45,165,1,f,1,0.71646326569,01,01,60.016178074,PLT_learning_01,N,2014_Jan_30_1715,P03,
stim_fb/ques.jpg,stim_fb/negf.jpg,stim_fb/posf.jpg,stim_01/f.jpg,stim_01/e.jpg,1,3,f,2,46,166,44,j,0,1.13297991744,01,01,60.016178074,PLT_learning_01,N,2014_Jan_30_1715,P03,
stim_fb/ques.jpg,stim_fb/negf.jpg,stim_fb/posf.jpg,stim_01/a.jpg,stim_01/b.jpg,2,1,j,2,47,167,17,f,0,1.19964669739,01,01,60.016178074,PLT_learning_01,N,2014_Jan_30_1715,P03,
stim_fb/ques.jpg,stim_fb/posf.jpg,stim_fb/negf.jpg,stim_01/c.jpg,stim_01/d.jpg,2,2,j,2,48,168,39,j,1,1.03304155006,01,01,60.016178074,PLT_learning_01,N,2014_Jan_30_1715,P03,
stim_fb/ques.jpg,stim_fb/negf.jpg,stim_fb/posf.jpg,stim_01/b.jpg,stim_01/a.jpg,1,1,f,2,49,169,2,f,1,0.483213566815,01,01,60.016178074,PLT_learning_01,N,2014_Jan_30_1715,P03,
stim_fb/ques.jpg,stim_fb/negf.jpg,stim_fb/posf.jpg,stim_01/f.jpg,stim_01/e.jpg,1,3,f,2,50,170,40,f,1,1.3496246344,01,01,60.016178074,PLT_learning_01,N,2014_Jan_30_1715,P03,
stim_fb/ques.jpg,stim_fb/negf.jpg,stim_fb/posf.jpg,stim_01/e.jpg,stim_01/f.jpg,2,3,j,2,51,171,53,f,0,0.699826738145,01,01,60.016178074,PLT_learning_01,N,2014_Jan_30_1715,P03,
stim_fb/ques.jpg,stim_fb/negf.jpg,stim_fb/posf.jpg,stim_01/d.jpg,stim_01/c.jpg,1,2,f,2,52,172,21,f,1,0.966396655664,01,01,60.016178074,PLT_learning_01,N,2014_Jan_30_1715,P03,
stim_fb/ques.jpg,stim_fb/negf.jpg,stim_fb/posf.jpg,stim_01/d.jpg,stim_01/c.jpg,1,2,f,2,53,173,20,f,1,0.699818422418,01,01,60.016178074,PLT_learning_01,N,2014_Jan_30_1715,P03,
stim_fb/ques.jpg,stim_fb/negf.jpg,stim_fb/posf.jpg,stim_01/c.jpg,stim_01/d.jpg,2,2,j,2,54,174,35,j,1,1.04964243276,01,01,60.016178074,PLT_learning_01,N,2014_Jan_30_1715,P03,
stim_fb/ques.jpg,stim_fb/negf.jpg,stim_fb/posf.jpg,stim_01/a.jpg,stim_01/b.jpg,2,1,j,2,55,175,10,f,0,0.933046569575,01,01,60.016178074,PLT_learning_01,N,2014_Jan_30_1715,P03,
stim_fb/ques.jpg,stim_fb/negf.jpg,stim_fb/posf.jpg,stim_01/e.jpg,stim_01/f.jpg,2,3,j,2,56,176,51,j,1,0.983090993301,01,01,60.016178074,PLT_learning_01,N,2014_Jan_30_1715,P03,
stim_fb/ques.jpg,stim_fb/negf.jpg,stim_fb/posf.jpg,stim_01/b.jpg,stim_01/a.jpg,1,1,f,2,57,177,6,f,1,0.999723593056,01,01,60.016178074,PLT_learning_01,N,2014_Jan_30_1715,P03,
stim_fb/ques.jpg,stim_fb/negf.jpg,stim_fb/posf.jpg,stim_01/e.jpg,stim_01/f.jpg,2,3,j,2,58,178,54,f,0,0.733150926685,01,01,60.016178074,PLT_learning_01,N,2014_Jan_30_1715,P03,
stim_fb/ques.jpg,stim_fb/negf.jpg,stim_fb/posf.jpg,stim_01/c.jpg,stim_01/d.jpg,2,2,j,2,59,179,34,j,1,1.19969414365,01,01,60.016178074,PLT_learning_01,N,2014_Jan_30_1715,P03,
stim_fb/ques.jpg,stim_fb/negf.jpg,stim_fb/posf.jpg,stim_01/a.jpg,stim_01/b.jpg,2,1,j,3,0,180,11,j,1,1.23298588432,01,01,60.016178074,PLT_learning_01,N,2014_Jan_30_1715,P03,
stim_fb/ques.jpg,stim_fb/negf.jpg,stim_fb/posf.jpg,stim_01/f.jpg,stim_01/e.jpg,1,3,f,3,1,181,44,j,0,0.899747105661,01,01,60.016178074,PLT_learning_01,N,2014_Jan_30_1715,P03,
stim_fb/ques.jpg,stim_fb/negf.jpg,stim_fb/posf.jpg,stim_01/b.jpg,stim_01/a.jpg,1,1,f,3,2,182,7,j,0,1.38294005007,01,01,60.016178074,PLT_learning_01,N,2014_Jan_30_1715,P03,
stim_fb/ques.jpg,stim_fb/posf.jpg,stim_fb/negf.jpg,stim_01/b.jpg,stim_01/a.jpg,1,1,f,3,3,183,8,f,1,0.716489409854,01,01,60.016178074,PLT_learning_01,N,2014_Jan_30_1715,P03,
stim_fb/ques.jpg,stim_fb/negf.jpg,stim_fb/posf.jpg,stim_01/d.jpg,stim_01/c.jpg,1,2,f,3,4,184,24,f,1,0.850082570808,01,01,60.016178074,PLT_learning_01,N,2014_Jan_30_1715,P03,
stim_fb/ques.jpg,stim_fb/negf.jpg,stim_fb/posf.jpg,stim_01/e.jpg,stim_01/f.jpg,2,3,j,3,5,185,51,f,0,0.8164490673,01,01,60.016178074,PLT_learning_01,N,2014_Jan_30_1715,P03,
stim_fb/ques.jpg,stim_fb/negf.jpg,stim_fb/posf.jpg,stim_01/a.jpg,stim_01/b.jpg,2,1,j,3,6,186,15,j,1,0.483218321667,01,01,60.016178074,PLT_learning_01,N,2014_Jan_30_1715,P03,
stim_fb/ques.jpg,stim_fb/negf.jpg,stim_fb/posf.jpg,stim_01/f.jpg,stim_01/e.jpg,1,3,f,3,7,187,43,j,0,0.633216514162,01,01,60.016178074,PLT_learning_01,N,2014_Jan_30_1715,P03,
stim_fb/ques.jpg,stim_fb/negf.jpg,stim_fb/posf.jpg,stim_01/b.jpg,stim_01/a.jpg,1,1,f,3,8,188,2,f,1,1.63280028872,01,01,60.016178074,PLT_learning_01,N,2014_Jan_30_1715,P03,
stim_fb/ques.jpg,stim_fb/negf.jpg,stim_fb/posf.jpg,stim_01/f.jpg,stim_01/e.jpg,1,3,f,3,9,189,41,j,0,0.899743499673,01,01,60.016178074,PLT_learning_01,N,2014_Jan_30_1715,P03,
stim_fb/ques.jpg,stim_fb/negf.jpg,stim_fb/posf.jpg,stim_01/e.jpg,stim_01/f.jpg,2,3,j,3,10,190,55,f,0,0.649810461575,01,01,60.016178074,PLT_learning_01,N,2014_Jan_30_1715,P03,
stim_fb/ques.jpg,stim_fb/negf.jpg,stim_fb/posf.jpg,stim_01/a.jpg,stim_01/b.jpg,2,1,j,3,11,191,17,f,0,1.06635047857,01,01,60.016178074,PLT_learning_01,N,2014_Jan_30_1715,P03,
stim_fb/ques.jpg,stim_fb/negf.jpg,stim_fb/posf.jpg,stim_01/e.jpg,stim_01/f.jpg,2,3,j,3,12,192,54,j,1,0.883090548191,01,01,60.016178074,PLT_learning_01,N,2014_Jan_30_1715,P03,
stim_fb/ques.jpg,stim_fb/negf.jpg,stim_fb/posf.jpg,stim_01/a.jpg,stim_01/b.jpg,2,1,j,3,13,193,13,f,0,0.683157919113,01,01,60.016178074,PLT_learning_01,N,2014_Jan_30_1715,P03,
stim_fb/ques.jpg,stim_fb/negf.jpg,stim_fb/posf.jpg,stim_01/d.jpg,stim_01/c.jpg,1,2,f,3,14,194,25,j,0,0.733158725122,01,01,60.016178074,PLT_learning_01,N,2014_Jan_30_1715,P03,
stim_fb/ques.jpg,stim_fb/negf.jpg,stim_fb/posf.jpg,stim_01/c.jpg,stim_01/d.jpg,2,2,j,3,15,195,31,j,1,0.916428959181,01,01,60.016178074,PLT_learning_01,N,2014_Jan_30_1715,P03,
stim_fb/ques.jpg,stim_fb/posf.jpg,stim_fb/negf.jpg,stim_01/d.jpg,stim_01/c.jpg,1,2,f,3,16,196,28,f,1,0.983074575379,01,01,60.016178074,PLT_learning_01,N,2014_Jan_30_1715,P03,
stim_fb/ques.jpg,stim_fb/negf.jpg,stim_fb/posf.jpg,stim_01/b.jpg,stim_01/a.jpg,1,1,f,3,17,197,6,j,0,1.38291457057,01,01,60.016178074,PLT_learning_01,N,2014_Jan_30_1715,P03,
stim_fb/ques.jpg,stim_fb/negf.jpg,stim_fb/posf.jpg,stim_01/d.jpg,stim_01/c.jpg,1,2,f,3,18,198,21,f,1,0.733125417102,01,01,60.016178074,PLT_learning_01,N,2014_Jan_30_1715,P03,
stim_fb/ques.jpg,stim_fb/negf.jpg,stim_fb/posf.jpg,stim_01/c.jpg,stim_01/d.jpg,2,2,j,3,19,199,35,j,1,0.866434628311,01,01,60.016178074,PLT_learning_01,N,2014_Jan_30_1715,P03,
stim_fb/ques.jpg,stim_fb/negf.jpg,stim_fb/posf.jpg,stim_01/c.jpg,stim_01/d.jpg,2,2,j,3,20,200,36,j,1,0.666527460696,01,01,60.016178074,PLT_learning_01,N,2014_Jan_30_1715,P03,
stim_fb/ques.jpg,stim_fb/posf.jpg,stim_fb/negf.jpg,stim_01/e.jpg,stim_01/f.jpg,2,3,j,3,21,201,59,f,0,0.9664254765,01,01,60.016178074,PLT_learning_01,N,2014_Jan_30_1715,P03,
stim_fb/ques.jpg,stim_fb/posf.jpg,stim_fb/negf.jpg,stim_01/f.jpg,stim_01/e.jpg,1,3,f,3,22,202,46,j,0,0.849636237322,01,01,60.016178074,PLT_learning_01,N,2014_Jan_30_1715,P03,
stim_fb/ques.jpg,stim_fb/negf.jpg,stim_fb/posf.jpg,stim_01/a.jpg,stim_01/b.jpg,2,1,j,3,23,203,16,j,1,1.39958169337,01,01,60.016178074,PLT_learning_01,N,2014_Jan_30_1715,P03,
stim_fb/ques.jpg,stim_fb/posf.jpg,stim_fb/negf.jpg,stim_01/d.jpg,stim_01/c.jpg,1,2,f,3,24,204,29,f,1,1.49958361516,01,01,60.016178074,PLT_learning_01,N,2014_Jan_30_1715,P03,
stim_fb/ques.jpg,stim_fb/negf.jpg,stim_fb/posf.jpg,stim_01/c.jpg,stim_01/d.jpg,2,2,j,3,25,205,30,f,0,1.49954606657,01,01,60.016178074,PLT_learning_01,N,2014_Jan_30_1715,P03,
stim_fb/ques.jpg,stim_fb/negf.jpg,stim_fb/posf.jpg,stim_01/b.jpg,stim_01/a.jpg,1,1,f,3,26,206,0,None,0,,01,01,60.016178074,PLT_learning_01,N,2014_Jan_30_1715,P03,
stim_fb/ques.jpg,stim_fb/negf.jpg,stim_fb/posf.jpg,stim_01/b.jpg,stim_01/a.jpg,1,1,f,3,27,207,4,j,0,0.849786007624,01,01,60.016178074,PLT_learning_01,N,2014_Jan_30_1715,P03,
stim_fb/ques.jpg,stim_fb/negf.jpg,stim_fb/posf.jpg,stim_01/a.jpg,stim_01/b.jpg,2,1,j,3,28,208,12,j,1,1.19956088751,01,01,60.016178074,PLT_learning_01,N,2014_Jan_30_1715,P03,
stim_fb/ques.jpg,stim_fb/posf.jpg,stim_fb/negf.jpg,stim_01/a.jpg,stim_01/b.jpg,2,1,j,3,29,209,18,j,1,0.816451196608,01,01,60.016178074,PLT_learning_01,N,2014_Jan_30_1715,P03,
stim_fb/ques.jpg,stim_fb/posf.jpg,stim_fb/negf.jpg,stim_01/e.jpg,stim_01/f.jpg,2,3,j,3,30,210,56,f,0,0.916412754791,01,01,60.016178074,PLT_learning_01,N,2014_Jan_30_1715,P03,
stim_fb/ques.jpg,stim_fb/posf.jpg,stim_fb/negf.jpg,stim_01/f.jpg,stim_01/e.jpg,1,3,f,3,31,211,49,j,0,0.833096328599,01,01,60.016178074,PLT_learning_01,N,2014_Jan_30_1715,P03,
stim_fb/ques.jpg,stim_fb/negf.jpg,stim_fb/posf.jpg,stim_01/d.jpg,stim_01/c.jpg,1,2,f,3,32,212,23,j,0,1.43289213765,01,01,60.016178074,PLT_learning_01,N,2014_Jan_30_1715,P03,
stim_fb/ques.jpg,stim_fb/posf.jpg,stim_fb/negf.jpg,stim_01/b.jpg,stim_01/a.jpg,1,1,f,3,33,213,9,f,1,1.34962711258,01,01,60.016178074,PLT_learning_01,N,2014_Jan_30_1715,P03,
stim_fb/ques.jpg,stim_fb/negf.jpg,stim_fb/posf.jpg,stim_01/d.jpg,stim_01/c.jpg,1,2,f,3,34,214,20,j,0,1.14968179187,01,01,60.016178074,PLT_learning_01,N,2014_Jan_30_1715,P03,
stim_fb/ques.jpg,stim_fb/negf.jpg,stim_fb/posf.jpg,stim_01/a.jpg,stim_01/b.jpg,2,1,j,3,35,215,14,f,0,1.31628188059,01,01,60.016178074,PLT_learning_01,N,2014_Jan_30_1715,P03,
stim_fb/ques.jpg,stim_fb/negf.jpg,stim_fb/posf.jpg,stim_01/d.jpg,stim_01/c.jpg,1,2,f,3,36,216,22,None,0,,01,01,60.016178074,PLT_learning_01,N,2014_Jan_30_1715,P03,
stim_fb/ques.jpg,stim_fb/negf.jpg,stim_fb/posf.jpg,stim_01/c.jpg,stim_01/d.jpg,2,2,j,3,37,217,33,f,0,1.1496503124,01,01,60.016178074,PLT_learning_01,N,2014_Jan_30_1715,P03,
stim_fb/ques.jpg,stim_fb/negf.jpg,stim_fb/posf.jpg,stim_01/c.jpg,stim_01/d.jpg,2,2,j,3,38,218,32,j,1,0.566545102668,01,01,60.016178074,PLT_learning_01,N,2014_Jan_30_1715,P03,
stim_fb/ques.jpg,stim_fb/negf.jpg,stim_fb/posf.jpg,stim_01/b.jpg,stim_01/a.jpg,1,1,f,3,39,219,1,j,0,1.23302893061,01,01,60.016178074,PLT_learning_01,N,2014_Jan_30_1715,P03,
stim_fb/ques.jpg,stim_fb/posf.jpg,stim_fb/negf.jpg,stim_01/c.jpg,stim_01/d.jpg,2,2,j,3,40,220,37,f,0,1.16634823197,01,01,60.016178074,PLT_learning_01,N,2014_Jan_30_1715,P03,
stim_fb/ques.jpg,stim_fb/negf.jpg,stim_fb/posf.jpg,stim_01/f.jpg,stim_01/e.jpg,1,3,f,3,41,221,42,f,1,1.28300798641,01,01,60.016178074,PLT_learning_01,N,2014_Jan_30_1715,P03,
stim_fb/ques.jpg,stim_fb/negf.jpg,stim_fb/posf.jpg,stim_01/f.jpg,stim_01/e.jpg,1,3,f,3,42,222,40,f,1,0.799772846821,01,01,60.016178074,PLT_learning_01,N,2014_Jan_30_1715,P03,
stim_fb/ques.jpg,stim_fb/negf.jpg,stim_fb/posf.jpg,stim_01/b.jpg,stim_01/a.jpg,1,1,f,3,43,223,5,j,0,1.16636561229,01,01,60.016178074,PLT_learning_01,N,2014_Jan_30_1715,P03,
stim_fb/ques.jpg,stim_fb/posf.jpg,stim_fb/negf.jpg,stim_01/d.jpg,stim_01/c.jpg,1,2,f,3,44,224,27,f,1,1.39965066729,01,01,60.016178074,PLT_learning_01,N,2014_Jan_30_1715,P03,
stim_fb/ques.jpg,stim_fb/negf.jpg,stim_fb/posf.jpg,stim_01/b.jpg,stim_01/a.jpg,1,1,f,3,45,225,3,f,1,1.29968676927,01,01,60.016178074,PLT_learning_01,N,2014_Jan_30_1715,P03,
stim_fb/ques.jpg,stim_fb/posf.jpg,stim_fb/negf.jpg,stim_01/a.jpg,stim_01/b.jpg,2,1,j,3,46,226,19,j,1,1.01638824971,01,01,60.016178074,PLT_learning_01,N,2014_Jan_30_1715,P03,
stim_fb/ques.jpg,stim_fb/negf.jpg,stim_fb/posf.jpg,stim_01/e.jpg,stim_01/f.jpg,2,3,j,3,47,227,52,f,0,1.13304700566,01,01,60.016178074,PLT_learning_01,N,2014_Jan_30_1715,P03,
stim_fb/ques.jpg,stim_fb/posf.jpg,stim_fb/negf.jpg,stim_01/c.jpg,stim_01/d.jpg,2,2,j,3,48,228,39,j,1,0.78312555244,01,01,60.016178074,PLT_learning_01,N,2014_Jan_30_1715,P03,
stim_fb/ques.jpg,stim_fb/posf.jpg,stim_fb/negf.jpg,stim_01/c.jpg,stim_01/d.jpg,2,2,j,3,49,229,38,f,0,1.18299505718,01,01,60.016178074,PLT_learning_01,N,2014_Jan_30_1715,P03,
stim_fb/ques.jpg,stim_fb/negf.jpg,stim_fb/posf.jpg,stim_01/d.jpg,stim_01/c.jpg,1,2,f,3,50,230,26,j,0,0.76645341614,01,01,60.016178074,PLT_learning_01,N,2014_Jan_30_1715,P03,
stim_fb/ques.jpg,stim_fb/posf.jpg,stim_fb/negf.jpg,stim_01/e.jpg,stim_01/f.jpg,2,3,j,3,51,231,58,f,0,0.899752952233,01,01,60.016178074,PLT_learning_01,N,2014_Jan_30_1715,P03,
stim_fb/ques.jpg,stim_fb/negf.jpg,stim_fb/posf.jpg,stim_01/a.jpg,stim_01/b.jpg,2,1,j,3,52,232,10,j,1,1.59957304682,01,01,60.016178074,PLT_learning_01,N,2014_Jan_30_1715,P03,
stim_fb/ques.jpg,stim_fb/negf.jpg,stim_fb/posf.jpg,stim_01/e.jpg,stim_01/f.jpg,2,3,j,3,53,233,50,j,1,1.48290219773,01,01,60.016178074,PLT_learning_01,N,2014_Jan_30_1715,P03,
stim_fb/ques.jpg,stim_fb/negf.jpg,stim_fb/posf.jpg,stim_01/c.jpg,stim_01/d.jpg,2,2,j,3,54,234,34,j,1,1.56623467192,01,01,60.016178074,PLT_learning_01,N,2014_Jan_30_1715,P03,
stim_fb/ques.jpg,stim_fb/posf.jpg,stim_fb/negf.jpg,stim_01/e.jpg,stim_01/f.jpg,2,3,j,3,55,235,57,f,0,1.21627811821,01,01,60.016178074,PLT_learning_01,N,2014_Jan_30_1715,P03,
stim_fb/ques.jpg,stim_fb/negf.jpg,stim_fb/posf.jpg,stim_01/f.jpg,stim_01/e.jpg,1,3,f,3,56,236,45,j,0,1.33288296178,01,01,60.016178074,PLT_learning_01,N,2014_Jan_30_1715,P03,
stim_fb/ques.jpg,stim_fb/posf.jpg,stim_fb/negf.jpg,stim_01/f.jpg,stim_01/e.jpg,1,3,f,3,57,237,48,None,0,,01,01,60.016178074,PLT_learning_01,N,2014_Jan_30_1715,P03,
stim_fb/ques.jpg,stim_fb/posf.jpg,stim_fb/negf.jpg,stim_01/f.jpg,stim_01/e.jpg,1,3,f,3,58,238,47,f,1,0.599837517011,01,01,60.016178074,PLT_learning_01,N,2014_Jan_30_1715,P03,
stim_fb/ques.jpg,stim_fb/negf.jpg,stim_fb/posf.jpg,stim_01/e.jpg,stim_01/f.jpg,2,3,j,3,59,239,53,f,0,1.39957170548,01,01,60.016178074,PLT_learning_01,N,2014_Jan_30_1715,P03,
stim_fb/ques.jpg,stim_fb/negf.jpg,stim_fb/posf.jpg,stim_01/e.jpg,stim_01/f.jpg,2,3,j,4,0,240,54,f,0,0.916341128262,01,01,60.016178074,PLT_learning_01,N,2014_Jan_30_1715,P03,
stim_fb/ques.jpg,stim_fb/negf.jpg,stim_fb/posf.jpg,stim_01/e.jpg,stim_01/f.jpg,2,3,j,4,1,241,50,j,1,0.849752831934,01,01,60.016178074,PLT_learning_01,N,2014_Jan_30_1715,P03,
stim_fb/ques.jpg,stim_fb/negf.jpg,stim_fb/posf.jpg,stim_01/c.jpg,stim_01/d.jpg,2,2,j,4,2,242,33,j,1,1.19964005083,01,01,60.016178074,PLT_learning_01,N,2014_Jan_30_1715,P03,
stim_fb/ques.jpg,stim_fb/posf.jpg,stim_fb/negf.jpg,stim_01/d.jpg,stim_01/c.jpg,1,2,f,4,3,243,29,f,1,0.799777980617,01,01,60.016178074,PLT_learning_01,N,2014_Jan_30_1715,P03,
stim_fb/ques.jpg,stim_fb/negf.jpg,stim_fb/posf.jpg,stim_01/b.jpg,stim_01/a.jpg,1,1,f,4,4,244,7,j,0,1.06642029158,01,01,60.016178074,PLT_learning_01,N,2014_Jan_30_1715,P03,
stim_fb/ques.jpg,stim_fb/negf.jpg,stim_fb/posf.jpg,stim_01/e.jpg,stim_01/f.jpg,2,3,j,4,5,245,55,f,0,1.06636340779,01,01,60.016178074,PLT_learning_01,N,2014_Jan_30_1715,P03,
stim_fb/ques.jpg,stim_fb/posf.jpg,stim_fb/negf.jpg,stim_01/c.jpg,stim_01/d.jpg,2,2,j,4,6,246,37,j,1,0.749736841076,01,01,60.016178074,PLT_learning_01,N,2014_Jan_30_1715,P03,
stim_fb/ques.jpg,stim_fb/negf.jpg,stim_fb/posf.jpg,stim_01/c.jpg,stim_01/d.jpg,2,2,j,4,7,247,34,f,0,0.81643392155,01,01,60.016178074,PLT_learning_01,N,2014_Jan_30_1715,P03,
stim_fb/ques.jpg,stim_fb/posf.jpg,stim_fb/negf.jpg,stim_01/a.jpg,stim_01/b.jpg,2,1,j,4,8,248,19,j,1,0.816420739694,01,01,60.016178074,PLT_learning_01,N,2014_Jan_30_1715,P03,
stim_fb/ques.jpg,stim_fb/posf.jpg,stim_fb/negf.jpg,stim_01/f.jpg,stim_01/e.jpg,1,3,f,4,9,249,47,f,1,0.999726474237,01,01,60.016178074,PLT_learning_01,N,2014_Jan_30_1715,P03,
stim_fb/ques.jpg,stim_fb/negf.jpg,stim_fb/posf.jpg,stim_01/e.jpg,stim_01/f.jpg,2,3,j,4,10,250,52,j,1,0.899756371757,01,01,60.016178074,PLT_learning_01,N,2014_Jan_30_1715,P03,
stim_fb/ques.jpg,stim_fb/negf.jpg,stim_fb/posf.jpg,stim_01/a.jpg,stim_01/b.jpg,2,1,j,4,11,251,11,f,0,1.03309144443,01,01,60.016178074,PLT_learning_01,N,2014_Jan_30_1715,P03,
stim_fb/ques.jpg,stim_fb/negf.jpg,stim_fb/posf.jpg,stim_01/a.jpg,stim_01/b.jpg,2,1,j,4,12,252,16,j,1,0.783100115037,01,01,60.016178074,PLT_learning_01,N,2014_Jan_30_1715,P03,
stim_fb/ques.jpg,stim_fb/negf.jpg,stim_fb/posf.jpg,stim_01/b.jpg,stim_01/a.jpg,1,1,f,4,13,253,5,f,1,0.999724516357,01,01,60.016178074,PLT_learning_01,N,2014_Jan_30_1715,P03,
stim_fb/ques.jpg,stim_fb/negf.jpg,stim_fb/posf.jpg,stim_01/b.jpg,stim_01/a.jpg,1,1,f,4,14,254,1,j,0,0.933082521184,01,01,60.016178074,PLT_learning_01,N,2014_Jan_30_1715,P03,
stim_fb/ques.jpg,stim_fb/posf.jpg,stim_fb/negf.jpg,stim_01/a.jpg,stim_01/b.jpg,2,1,j,4,15,255,18,f,0,0.749776606191,01,01,60.016178074,PLT_learning_01,N,2014_Jan_30_1715,P03,
stim_fb/ques.jpg,stim_fb/posf.jpg,stim_fb/negf.jpg,stim_01/e.jpg,stim_01/f.jpg,2,3,j,4,16,256,57,f,0,0.866421506605,01,01,60.016178074,PLT_learning_01,N,2014_Jan_30_1715,P03,
stim_fb/ques.jpg,stim_fb/negf.jpg,stim_fb/posf.jpg,stim_01/d.jpg,stim_01/c.jpg,1,2,f,4,17,257,23,f,1,0.799796353411,01,01,60.016178074,PLT_learning_01,N,2014_Jan_30_1715,P03,
stim_fb/ques.jpg,stim_fb/posf.jpg,stim_fb/negf.jpg,stim_01/b.jpg,stim_01/a.jpg,1,1,f,4,18,258,8,j,0,1.14968263096,01,01,60.016178074,PLT_learning_01,N,2014_Jan_30_1715,P03,
stim_fb/ques.jpg,stim_fb/negf.jpg,stim_fb/posf.jpg,stim_01/a.jpg,stim_01/b.jpg,2,1,j,4,19,259,14,f,0,1.0330521545,01,01,60.016178074,PLT_learning_01,N,2014_Jan_30_1715,P03,
stim_fb/ques.jpg,stim_fb/posf.jpg,stim_fb/negf.jpg,stim_01/e.jpg,stim_01/f.jpg,2,3,j,4,20,260,59,j,1,0.816402935316,01,01,60.016178074,PLT_learning_01,N,2014_Jan_30_1715,P03,
stim_fb/ques.jpg,stim_fb/negf.jpg,stim_fb/posf.jpg,stim_01/d.jpg,stim_01/c.jpg,1,2,f,4,21,261,22,f,1,0.415544607935,01,01,60.016178074,PLT_learning_01,N,2014_Jan_30_1715,P03,
stim_fb/ques.jpg,stim_fb/negf.jpg,stim_fb/posf.jpg,stim_01/d.jpg,stim_01/c.jpg,1,2,f,4,22,262,24,j,0,0.866437768137,01,01,60.016178074,PLT_learning_01,N,2014_Jan_30_1715,P03,
stim_fb/ques.jpg,stim_fb/posf.jpg,stim_fb/negf.jpg,stim_01/d.jpg,stim_01/c.jpg,1,2,f,4,23,263,27,f,1,0.916424691544,01,01,60.016178074,PLT_learning_01,N,2014_Jan_30_1715,P03,
stim_fb/ques.jpg,stim_fb/negf.jpg,stim_fb/posf.jpg,stim_01/d.jpg,stim_01/c.jpg,1,2,f,4,24,264,20,j,0,0.749801872166,01,01,60.016178074,PLT_learning_01,N,2014_Jan_30_1715,P03,
stim_fb/ques.jpg,stim_fb/negf.jpg,stim_fb/posf.jpg,stim_01/e.jpg,stim_01/f.jpg,2,3,j,4,25,265,51,f,0,0.61651833896,01,01,60.016178074,PLT_learning_01,N,2014_Jan_30_1715,P03,
stim_fb/ques.jpg,stim_fb/negf.jpg,stim_fb/posf.jpg,stim_01/d.jpg,stim_01/c.jpg,1,2,f,4,26,266,21,j,0,0.649860849167,01,01,60.016178074,PLT_learning_01,N,2014_Jan_30_1715,P03,
stim_fb/ques.jpg,stim_fb/negf.jpg,stim_fb/posf.jpg,stim_01/c.jpg,stim_01/d.jpg,2,2,j,4,27,267,31,f,0,0.76647638138,01,01,60.016178074,PLT_learning_01,N,2014_Jan_30_1715,P03,
stim_fb/ques.jpg,stim_fb/posf.jpg,stim_fb/negf.jpg,stim_01/e.jpg,stim_01/f.jpg,2,3,j,4,28,268,56,j,1,0.699800025564,01,01,60.016178074,PLT_learning_01,N,2014_Jan_30_1715,P03,
stim_fb/ques.jpg,stim_fb/negf.jpg,stim_fb/posf.jpg,stim_01/b.jpg,stim_01/a.jpg,1,1,f,4,29,269,3,f,1,1.03302585394,01,01,60.016178074,PLT_learning_01,N,2014_Jan_30_1715,P03,
stim_fb/ques.jpg,stim_fb/negf.jpg,stim_fb/posf.jpg,stim_01/f.jpg,stim_01/e.jpg,1,3,f,4,30,270,45,j,0,1.14965501312,01,01,60.016178074,PLT_learning_01,N,2014_Jan_30_1715,P03,
stim_fb/ques.jpg,stim_fb/negf.jpg,stim_fb/posf.jpg,stim_01/b.jpg,stim_01/a.jpg,1,1,f,4,31,271,2,f,1,1.04970463079,01,01,60.016178074,PLT_learning_01,N,2014_Jan_30_1715,P03,
stim_fb/ques.jpg,stim_fb/negf.jpg,stim_fb/posf.jpg,stim_01/d.jpg,stim_01/c.jpg,1,2,f,4,32,272,25,f,1,1.16629366095,01,01,60.016178074,PLT_learning_01,N,2014_Jan_30_1715,P03,
stim_fb/ques.jpg,stim_fb/negf.jpg,stim_fb/posf.jpg,stim_01/c.jpg,stim_01/d.jpg,2,2,j,4,33,273,30,j,1,0.749778482868,01,01,60.016178074,PLT_learning_01,N,2014_Jan_30_1715,P03,
stim_fb/ques.jpg,stim_fb/negf.jpg,stim_fb/posf.jpg,stim_01/a.jpg,stim_01/b.jpg,2,1,j,4,34,274,13,f,0,1.33294099744,01,01,60.016178074,PLT_learning_01,N,2014_Jan_30_1715,P03,
stim_fb/ques.jpg,stim_fb/posf.jpg,stim_fb/negf.jpg,stim_01/f.jpg,stim_01/e.jpg,1,3,f,4,35,275,48,j,0,1.11633591026,01,01,60.016178074,PLT_learning_01,N,2014_Jan_30_1715,P03,
stim_fb/ques.jpg,stim_fb/negf.jpg,stim_fb/posf.jpg,stim_01/f.jpg,stim_01/e.jpg,1,3,f,4,36,276,41,j,0,0.899694269968,01,01,60.016178074,PLT_learning_01,N,2014_Jan_30_1715,P03,
stim_fb/ques.jpg,stim_fb/posf.jpg,stim_fb/negf.jpg,stim_01/d.jpg,stim_01/c.jpg,1,2,f,4,37,277,28,j,0,1.21630441876,01,01,60.016178074,PLT_learning_01,N,2014_Jan_30_1715,P03,
stim_fb/ques.jpg,stim_fb/negf.jpg,stim_fb/posf.jpg,stim_01/b.jpg,stim_01/a.jpg,1,1,f,4,38,278,6,None,0,,01,01,60.016178074,PLT_learning_01,N,2014_Jan_30_1715,P03,
stim_fb/ques.jpg,stim_fb/negf.jpg,stim_fb/posf.jpg,stim_01/f.jpg,stim_01/e.jpg,1,3,f,4,39,279,42,f,1,1.083042329,01,01,60.016178074,PLT_learning_01,N,2014_Jan_30_1715,P03,
stim_fb/ques.jpg,stim_fb/negf.jpg,stim_fb/posf.jpg,stim_01/d.jpg,stim_01/c.jpg,1,2,f,4,40,280,26,f,1,1.14967100999,01,01,60.016178074,PLT_learning_01,N,2014_Jan_30_1715,P03,
stim_fb/ques.jpg,stim_fb/negf.jpg,stim_fb/posf.jpg,stim_01/f.jpg,stim_01/e.jpg,1,3,f,4,41,281,44,j,0,1.21631420516,01,01,60.016178074,PLT_learning_01,N,2014_Jan_30_1715,P03,
stim_fb/ques.jpg,stim_fb/posf.jpg,stim_fb/negf.jpg,stim_01/e.jpg,stim_01/f.jpg,2,3,j,4,42,282,58,f,0,0.833126490778,01,01,60.016178074,PLT_learning_01,N,2014_Jan_30_1715,P03,
stim_fb/ques.jpg,stim_fb/negf.jpg,stim_fb/posf.jpg,stim_01/c.jpg,stim_01/d.jpg,2,2,j,4,43,283,32,j,1,1.29961167209,01,01,60.016178074,PLT_learning_01,N,2014_Jan_30_1715,P03,
stim_fb/ques.jpg,stim_fb/negf.jpg,stim_fb/posf.jpg,stim_01/a.jpg,stim_01/b.jpg,2,1,j,4,44,284,17,f,0,1.04962960278,01,01,60.016178074,PLT_learning_01,N,2014_Jan_30_1715,P03,
stim_fb/ques.jpg,stim_fb/posf.jpg,stim_fb/negf.jpg,stim_01/c.jpg,stim_01/d.jpg,2,2,j,4,45,285,39,f,0,1.06634619289,01,01,60.016178074,PLT_learning_01,N,2014_Jan_30_1715,P03,
stim_fb/ques.jpg,stim_fb/negf.jpg,stim_fb/posf.jpg,stim_01/e.jpg,stim_01/f.jpg,2,3,j,4,46,286,53,j,1,1.23295361388,01,01,60.016178074,PLT_learning_01,N,2014_Jan_30_1715,P03,
stim_fb/ques.jpg,stim_fb/negf.jpg,stim_fb/posf.jpg,stim_01/a.jpg,stim_01/b.jpg,2,1,j,4,47,287,10,f,0,1.19967222803,01,01,60.016178074,PLT_learning_01,N,2014_Jan_30_1715,P03,
stim_fb/ques.jpg,stim_fb/negf.jpg,stim_fb/posf.jpg,stim_01/c.jpg,stim_01/d.jpg,2,2,j,4,48,288,36,None,0,,01,01,60.016178074,PLT_learning_01,N,2014_Jan_30_1715,P03,
stim_fb/ques.jpg,stim_fb/negf.jpg,stim_fb/posf.jpg,stim_01/c.jpg,stim_01/d.jpg,2,2,j,4,49,289,35,f,0,1.03303618168,01,01,60.016178074,PLT_learning_01,N,2014_Jan_30_1715,P03,
stim_fb/ques.jpg,stim_fb/negf.jpg,stim_fb/posf.jpg,stim_01/a.jpg,stim_01/b.jpg,2,1,j,4,50,290,15,None,0,,01,01,60.016178074,PLT_learning_01,N,2014_Jan_30_1715,P03,
stim_fb/ques.jpg,stim_fb/posf.jpg,stim_fb/negf.jpg,stim_01/f.jpg,stim_01/e.jpg,1,3,f,4,51,291,49,f,1,0.949735556876,01,01,60.016178074,PLT_learning_01,N,2014_Jan_30_1715,P03,
stim_fb/ques.jpg,stim_fb/negf.jpg,stim_fb/posf.jpg,stim_01/b.jpg,stim_01/a.jpg,1,1,f,4,52,292,0,j,0,0.833101690965,01,01,60.016178074,PLT_learning_01,N,2014_Jan_30_1715,P03,
stim_fb/ques.jpg,stim_fb/negf.jpg,stim_fb/posf.jpg,stim_01/b.jpg,stim_01/a.jpg,1,1,f,4,53,293,4,j,0,1.43284369591,01,01,60.016178074,PLT_learning_01,N,2014_Jan_30_1715,P03,
stim_fb/ques.jpg,stim_fb/posf.jpg,stim_fb/negf.jpg,stim_01/b.jpg,stim_01/a.jpg,1,1,f,4,54,294,9,f,1,0.949715650258,01,01,60.016178074,PLT_learning_01,N,2014_Jan_30_1715,P03,
stim_fb/ques.jpg,stim_fb/posf.jpg,stim_fb/negf.jpg,stim_01/c.jpg,stim_01/d.jpg,2,2,j,4,55,295,38,f,0,1.06634791618,01,01,60.016178074,PLT_learning_01,N,2014_Jan_30_1715,P03,
stim_fb/ques.jpg,stim_fb/negf.jpg,stim_fb/posf.jpg,stim_01/a.jpg,stim_01/b.jpg,2,1,j,4,56,296,12,f,0,1.33294945752,01,01,60.016178074,PLT_learning_01,N,2014_Jan_30_1715,P03,
stim_fb/ques.jpg,stim_fb/posf.jpg,stim_fb/negf.jpg,stim_01/f.jpg,stim_01/e.jpg,1,3,f,4,57,297,46,j,0,0.983064804024,01,01,60.016178074,PLT_learning_01,N,2014_Jan_30_1715,P03,
stim_fb/ques.jpg,stim_fb/negf.jpg,stim_fb/posf.jpg,stim_01/f.jpg,stim_01/e.jpg,1,3,f,4,58,298,43,None,0,,01,01,60.016178074,PLT_learning_01,N,2014_Jan_30_1715,P03,
stim_fb/ques.jpg,stim_fb/negf.jpg,stim_fb/posf.jpg,stim_01/f.jpg,stim_01/e.jpg,1,3,f,4,59,299,40,f,1,0.883091248938,01,01,60.016178074,PLT_learning_01,N,2014_Jan_30_1715,P03,
stim_fb/ques.jpg,stim_fb/negf.jpg,stim_fb/posf.jpg,stim_01/b.jpg,stim_01/a.jpg,1,1,f,5,0,300,6,f,1,0.899739941805,01,01,60.016178074,PLT_learning_01,N,2014_Jan_30_1715,P03,
stim_fb/ques.jpg,stim_fb/negf.jpg,stim_fb/posf.jpg,stim_01/b.jpg,stim_01/a.jpg,1,1,f,5,1,301,1,j,0,1.16636018376,01,01,60.016178074,PLT_learning_01,N,2014_Jan_30_1715,P03,
stim_fb/ques.jpg,stim_fb/negf.jpg,stim_fb/posf.jpg,stim_01/b.jpg,stim_01/a.jpg,1,1,f,5,2,302,0,f,1,0.999626017849,01,01,60.016178074,PLT_learning_01,N,2014_Jan_30_1715,P03,
stim_fb/ques.jpg,stim_fb/negf.jpg,stim_fb/posf.jpg,stim_01/d.jpg,stim_01/c.jpg,1,2,f,5,3,303,22,j,0,1.01636008752,01,01,60.016178074,PLT_learning_01,N,2014_Jan_30_1715,P03,
stim_fb/ques.jpg,stim_fb/negf.jpg,stim_fb/posf.jpg,stim_01/d.jpg,stim_01/c.jpg,1,2,f,5,4,304,23,f,1,0.999734293727,01,01,60.016178074,PLT_learning_01,N,2014_Jan_30_1715,P03,
stim_fb/ques.jpg,stim_fb/negf.jpg,stim_fb/posf.jpg,stim_01/c.jpg,stim_01/d.jpg,2,2,j,5,5,305,30,j,1,1.6495004218,01,01,60.016178074,PLT_learning_01,N,2014_Jan_30_1715,P03,
stim_fb/ques.jpg,stim_fb/negf.jpg,stim_fb/posf.jpg,stim_01/a.jpg,stim_01/b.jpg,2,1,j,5,6,306,10,j,1,1.49959193089,01,01,60.016178074,PLT_learning_01,N,2014_Jan_30_1715,P03,
stim_fb/ques.jpg,stim_fb/negf.jpg,stim_fb/posf.jpg,stim_01/d.jpg,stim_01/c.jpg,1,2,f,5,7,307,21,j,0,1.34959577146,01,01,60.016178074,PLT_learning_01,N,2014_Jan_30_1715,P03,
stim_fb/ques.jpg,stim_fb/negf.jpg,stim_fb/posf.jpg,stim_01/c.jpg,stim_01/d.jpg,2,2,j,5,8,308,31,f,0,1.48291332546,01,01,60.016178074,PLT_learning_01,N,2014_Jan_30_1715,P03,
stim_fb/ques.jpg,stim_fb/posf.jpg,stim_fb/negf.jpg,stim_01/c.jpg,stim_01/d.jpg,2,2,j,5,9,309,37,j,1,0.966413437493,01,01,60.016178074,PLT_learning_01,N,2014_Jan_30_1715,P03,
stim_fb/ques.jpg,stim_fb/negf.jpg,stim_fb/posf.jpg,stim_01/a.jpg,stim_01/b.jpg,2,1,j,5,10,310,17,f,0,1.1663377328,01,01,60.016178074,PLT_learning_01,N,2014_Jan_30_1715,P03,
stim_fb/ques.jpg,stim_fb/negf.jpg,stim_fb/posf.jpg,stim_01/a.jpg,stim_01/b.jpg,2,1,j,5,11,311,11,j,1,1.21628987752,01,01,60.016178074,PLT_learning_01,N,2014_Jan_30_1715,P03,
stim_fb/ques.jpg,stim_fb/posf.jpg,stim_fb/negf.jpg,stim_01/f.jpg,stim_01/e.jpg,1,3,f,5,12,312,48,f,1,1.16635015376,01,01,60.016178074,PLT_learning_01,N,2014_Jan_30_1715,P03,
stim_fb/ques.jpg,stim_fb/posf.jpg,stim_fb/negf.jpg,stim_01/b.jpg,stim_01/a.jpg,1,1,f,5,13,313,8,j,0,0.966400075187,01,01,60.016178074,PLT_learning_01,N,2014_Jan_30_1715,P03,
stim_fb/ques.jpg,stim_fb/negf.jpg,stim_fb/posf.jpg,stim_01/c.jpg,stim_01/d.jpg,2,2,j,5,14,314,36,f,0,1.28299374591,01,01,60.016178074,PLT_learning_01,N,2014_Jan_30_1715,P03,
stim_fb/ques.jpg,stim_fb/negf.jpg,stim_fb/posf.jpg,stim_01/f.jpg,stim_01/e.jpg,1,3,f,5,15,315,44,j,0,1.11633499297,01,01,60.016178074,PLT_learning_01,N,2014_Jan_30_1715,P03,
stim_fb/ques.jpg,stim_fb/negf.jpg,stim_fb/posf.jpg,stim_01/b.jpg,stim_01/a.jpg,1,1,f,5,16,316,2,j,0,1.28297595958,01,01,60.016178074,PLT_learning_01,N,2014_Jan_30_1715,P03,
stim_fb/ques.jpg,stim_fb/negf.jpg,stim_fb/posf.jpg,stim_01/a.jpg,stim_01/b.jpg,2,1,j,5,17,317,16,f,0,0.733141726754,01,01,60.016178074,PLT_learning_01,N,2014_Jan_30_1715,P03,
stim_fb/ques.jpg,stim_fb/negf.jpg,stim_fb/posf.jpg,stim_01/b.jpg,stim_01/a.jpg,1,1,f,5,18,318,7,j,0,0.816455440185,01,01,60.016178074,PLT_learning_01,N,2014_Jan_30_1715,P03,
stim_fb/ques.jpg,stim_fb/negf.jpg,stim_fb/posf.jpg,stim_01/d.jpg,stim_01/c.jpg,1,2,f,5,19,319,20,f,1,0.699788473771,01,01,60.016178074,PLT_learning_01,N,2014_Jan_30_1715,P03,
stim_fb/ques.jpg,stim_fb/negf.jpg,stim_fb/posf.jpg,stim_01/e.jpg,stim_01/f.jpg,2,3,j,5,20,320,55,j,1,1.09968024301,01,01,60.016178074,PLT_learning_01,N,2014_Jan_30_1715,P03,
stim_fb/ques.jpg,stim_fb/posf.jpg,stim_fb/negf.jpg,stim_01/e.jpg,stim_01/f.jpg,2,3,j,5,21,321,58,j,1,1.06637160924,01,01,60.016178074,PLT_learning_01,N,2014_Jan_30_1715,P03,
stim_fb/ques.jpg,stim_fb/negf.jpg,stim_fb/posf.jpg,stim_01/e.jpg,stim_01/f.jpg,2,3,j,5,22,322,51,f,0,0.999713289374,01,01,60.016178074,PLT_learning_01,N,2014_Jan_30_1715,P03,
stim_fb/ques.jpg,stim_fb/negf.jpg,stim_fb/posf.jpg,stim_01/f.jpg,stim_01/e.jpg,1,3,f,5,23,323,42,f,1,1.44959007827,01,01,60.016178074,PLT_learning_01,N,2014_Jan_30_1715,P03,
stim_fb/ques.jpg,stim_fb/posf.jpg,stim_fb/negf.jpg,stim_01/f.jpg,stim_01/e.jpg,1,3,f,5,24,324,47,f,1,0.866392574492,01,01,60.016178074,PLT_learning_01,N,2014_Jan_30_1715,P03,
stim_fb/ques.jpg,stim_fb/posf.jpg,stim_fb/negf.jpg,stim_01/d.jpg,stim_01/c.jpg,1,2,f,5,25,325,29,j,0,0.799817604379,01,01,60.016178074,PLT_learning_01,N,2014_Jan_30_1715,P03,
stim_fb/ques.jpg,stim_fb/negf.jpg,stim_fb/posf.jpg,stim_01/e.jpg,stim_01/f.jpg,2,3,j,5,26,326,50,j,1,1.03303890647,01,01,60.016178074,PLT_learning_01,N,2014_Jan_30_1715,P03,
stim_fb/ques.jpg,stim_fb/negf.jpg,stim_fb/posf.jpg,stim_01/c.jpg,stim_01/d.jpg,2,2,j,5,27,327,34,j,1,1.09965608379,01,01,60.016178074,PLT_learning_01,N,2014_Jan_30_1715,P03,
stim_fb/ques.jpg,stim_fb/negf.jpg,stim_fb/posf.jpg,stim_01/b.jpg,stim_01/a.jpg,1,1,f,5,28,328,5,j,0,1.01638582266,01,01,60.016178074,PLT_learning_01,N,2014_Jan_30_1715,P03,
stim_fb/ques.jpg,stim_fb/posf.jpg,stim_fb/negf.jpg,stim_01/d.jpg,stim_01/c.jpg,1,2,f,5,29,329,28,j,0,1.58285427628,01,01,60.016178074,PLT_learning_01,N,2014_Jan_30_1715,P03,
stim_fb/ques.jpg,stim_fb/negf.jpg,stim_fb/posf.jpg,stim_01/f.jpg,stim_01/e.jpg,1,3,f,5,30,330,40,f,1,0.999706056346,01,01,60.016178074,PLT_learning_01,N,2014_Jan_30_1715,P03,
stim_fb/ques.jpg,stim_fb/negf.jpg,stim_fb/posf.jpg,stim_01/b.jpg,stim_01/a.jpg,1,1,f,5,31,331,3,j,0,1.18297613101,01,01,60.016178074,PLT_learning_01,N,2014_Jan_30_1715,P03,
stim_fb/ques.jpg,stim_fb/negf.jpg,stim_fb/posf.jpg,stim_01/f.jpg,stim_01/e.jpg,1,3,f,5,32,332,45,j,0,1.28296773708,01,01,60.016178074,PLT_learning_01,N,2014_Jan_30_1715,P03,
stim_fb/ques.jpg,stim_fb/posf.jpg,stim_fb/negf.jpg,stim_01/e.jpg,stim_01/f.jpg,2,3,j,5,33,333,59,None,0,,01,01,60.016178074,PLT_learning_01,N,2014_Jan_30_1715,P03,
stim_fb/ques.jpg,stim_fb/posf.jpg,stim_fb/negf.jpg,stim_01/a.jpg,stim_01/b.jpg,2,1,j,5,34,334,19,f,0,1.24963002383,01,01,60.016178074,PLT_learning_01,N,2014_Jan_30_1715,P03,
stim_fb/ques.jpg,stim_fb/posf.jpg,stim_fb/negf.jpg,stim_01/e.jpg,stim_01/f.jpg,2,3,j,5,35,335,56,None,0,,01,01,60.016178074,PLT_learning_01,N,2014_Jan_30_1715,P03,
stim_fb/ques.jpg,stim_fb/negf.jpg,stim_fb/posf.jpg,stim_01/e.jpg,stim_01/f.jpg,2,3,j,5,36,336,54,f,0,0.733132983963,01,01,60.016178074,PLT_learning_01,N,2014_Jan_30_1715,P03,
stim_fb/ques.jpg,stim_fb/posf.jpg,stim_fb/negf.jpg,stim_01/d.jpg,stim_01/c.jpg,1,2,f,5,37,337,27,f,1,1.2996487064,01,01,60.016178074,PLT_learning_01,N,2014_Jan_30_1715,P03,
stim_fb/ques.jpg,stim_fb/posf.jpg,stim_fb/negf.jpg,stim_01/c.jpg,stim_01/d.jpg,2,2,j,5,38,338,39,f,0,1.34957649642,01,01,60.016178074,PLT_learning_01,N,2014_Jan_30_1715,P03,
stim_fb/ques.jpg,stim_fb/negf.jpg,stim_fb/posf.jpg,stim_01/f.jpg,stim_01/e.jpg,1,3,f,5,39,339,43,j,0,1.14966721453,01,01,60.016178074,PLT_learning_01,N,2014_Jan_30_1715,P03,
stim_fb/ques.jpg,stim_fb/negf.jpg,stim_fb/posf.jpg,stim_01/b.jpg,stim_01/a.jpg,1,1,f,5,40,340,4,f,1,0.999735941835,01,01,60.016178074,PLT_learning_01,N,2014_Jan_30_1715,P03,
stim_fb/ques.jpg,stim_fb/negf.jpg,stim_fb/posf.jpg,stim_01/a.jpg,stim_01/b.jpg,2,1,j,5,41,341,15,j,1,1.01637058067,01,01,60.016178074,PLT_learning_01,N,2014_Jan_30_1715,P03,
stim_fb/ques.jpg,stim_fb/posf.jpg,stim_fb/negf.jpg,stim_01/b.jpg,stim_01/a.jpg,1,1,f,5,42,342,9,f,1,1.63283394862,01,01,60.016178074,PLT_learning_01,N,2014_Jan_30_1715,P03,
stim_fb/ques.jpg,stim_fb/negf.jpg,stim_fb/posf.jpg,stim_01/c.jpg,stim_01/d.jpg,2,2,j,5,43,343,32,j,1,1.04972127127,01,01,60.016178074,PLT_learning_01,N,2014_Jan_30_1715,P03,
stim_fb/ques.jpg,stim_fb/negf.jpg,stim_fb/posf.jpg,stim_01/c.jpg,stim_01/d.jpg,2,2,j,5,44,344,33,j,1,1.0330503109,01,01,60.016178074,PLT_learning_01,N,2014_Jan_30_1715,P03,
stim_fb/ques.jpg,stim_fb/posf.jpg,stim_fb/negf.jpg,stim_01/f.jpg,stim_01/e.jpg,1,3,f,5,45,345,49,j,0,1.19963408696,01,01,60.016178074,PLT_learning_01,N,2014_Jan_30_1715,P03,
stim_fb/ques.jpg,stim_fb/negf.jpg,stim_fb/posf.jpg,stim_01/a.jpg,stim_01/b.jpg,2,1,j,5,46,346,13,f,0,1.13300510222,01,01,60.016178074,PLT_learning_01,N,2014_Jan_30_1715,P03,
stim_fb/ques.jpg,stim_fb/posf.jpg,stim_fb/negf.jpg,stim_01/c.jpg,stim_01/d.jpg,2,2,j,5,47,347,38,f,0,1.18299435343,01,01,60.016178074,PLT_learning_01,N,2014_Jan_30_1715,P03,
stim_fb/ques.jpg,stim_fb/negf.jpg,stim_fb/posf.jpg,stim_01/e.jpg,stim_01/f.jpg,2,3,j,5,48,348,52,j,1,1.21631255103,01,01,60.016178074,PLT_learning_01,N,2014_Jan_30_1715,P03,
stim_fb/ques.jpg,stim_fb/negf.jpg,stim_fb/posf.jpg,stim_01/a.jpg,stim_01/b.jpg,2,1,j,5,49,349,14,j,1,1.31629090608,01,01,60.016178074,PLT_learning_01,N,2014_Jan_30_1715,P03,
stim_fb/ques.jpg,stim_fb/negf.jpg,stim_fb/posf.jpg,stim_01/f.jpg,stim_01/e.jpg,1,3,f,5,50,350,41,None,0,,01,01,60.016178074,PLT_learning_01,N,2014_Jan_30_1715,P03,
stim_fb/ques.jpg,stim_fb/negf.jpg,stim_fb/posf.jpg,stim_01/d.jpg,stim_01/c.jpg,1,2,f,5,51,351,24,f,1,1.08301727957,01,01,60.016178074,PLT_learning_01,N,2014_Jan_30_1715,P03,
stim_fb/ques.jpg,stim_fb/negf.jpg,stim_fb/posf.jpg,stim_01/e.jpg,stim_01/f.jpg,2,3,j,5,52,352,53,f,0,1.19965354847,01,01,60.016178074,PLT_learning_01,N,2014_Jan_30_1715,P03,
stim_fb/ques.jpg,stim_fb/negf.jpg,stim_fb/posf.jpg,stim_01/c.jpg,stim_01/d.jpg,2,2,j,5,53,353,35,j,1,1.09970883828,01,01,60.016178074,PLT_learning_01,N,2014_Jan_30_1715,P03,
stim_fb/ques.jpg,stim_fb/posf.jpg,stim_fb/negf.jpg,stim_01/f.jpg,stim_01/e.jpg,1,3,f,5,54,354,46,j,0,1.24963784633,01,01,60.016178074,PLT_learning_01,N,2014_Jan_30_1715,P03,
stim_fb/ques.jpg,stim_fb/negf.jpg,stim_fb/posf.jpg,stim_01/d.jpg,stim_01/c.jpg,1,2,f,5,55,355,25,f,1,1.13299442561,01,01,60.016178074,PLT_learning_01,N,2014_Jan_30_1715,P03,
stim_fb/ques.jpg,stim_fb/negf.jpg,stim_fb/posf.jpg,stim_01/d.jpg,stim_01/c.jpg,1,2,f,5,56,356,26,f,1,1.43291729536,01,01,60.016178074,PLT_learning_01,N,2014_Jan_30_1715,P03,
stim_fb/ques.jpg,stim_fb/negf.jpg,stim_fb/posf.jpg,stim_01/a.jpg,stim_01/b.jpg,2,1,j,5,57,357,12,j,1,1.04971533748,01,01,60.016178074,PLT_learning_01,N,2014_Jan_30_1715,P03,
stim_fb/ques.jpg,stim_fb/posf.jpg,stim_fb/negf.jpg,stim_01/a.jpg,stim_01/b.jpg,2,1,j,5,58,358,18,j,1,1.24961891715,01,01,60.016178074,PLT_learning_01,N,2014_Jan_30_1715,P03,
stim_fb/ques.jpg,stim_fb/posf.jpg,stim_fb/negf.jpg,stim_01/e.jpg,stim_01/f.jpg,2,3,j,5,59,359,57,f,0,1.18297625431,01,01,60.016178074,PLT_learning_01,N,2014_Jan_30_1715,P03,
