Fb3,Fb2,Fb1,Symbol2,Symbol1,PosCond,Pair,Correct,trials.thisRepN,trials.thisTrialN,trials.thisN,trials.thisIndex,Response.keys,Response.corr,Response.rt,Version,Session Number,frameRate,expName,StimCondition,date,Participant,
stim_fb/ques.jpg,stim_fb/posf.jpg,stim_fb/negf.jpg,stim_01/c.jpg,stim_01/d.jpg,2,2,j,0,0,0,37,j,1,0.7997342426,01,01,60.0177553748,PLT_learning_01,N,2014_Jan_28_1816,P04,
stim_fb/ques.jpg,stim_fb/negf.jpg,stim_fb/posf.jpg,stim_01/a.jpg,stim_01/b.jpg,2,1,j,0,1,1,13,j,1,1.11635141089,01,01,60.0177553748,PLT_learning_01,N,2014_Jan_28_1816,P04,
stim_fb/ques.jpg,stim_fb/negf.jpg,stim_fb/posf.jpg,stim_01/f.jpg,stim_01/e.jpg,1,3,f,0,2,2,40,j,0,0.816434369666,01,01,60.0177553748,PLT_learning_01,N,2014_Jan_28_1816,P04,
stim_fb/ques.jpg,stim_fb/negf.jpg,stim_fb/posf.jpg,stim_01/f.jpg,stim_01/e.jpg,1,3,f,0,3,3,44,f,1,0.899799995489,01,01,60.0177553748,PLT_learning_01,N,2014_Jan_28_1816,P04,
stim_fb/ques.jpg,stim_fb/posf.jpg,stim_fb/negf.jpg,stim_01/d.jpg,stim_01/c.jpg,1,2,f,0,4,4,29,j,0,1.09970398719,01,01,60.0177553748,PLT_learning_01,N,2014_Jan_28_1816,P04,
stim_fb/ques.jpg,stim_fb/posf.jpg,stim_fb/negf.jpg,stim_01/f.jpg,stim_01/e.jpg,1,3,f,0,5,5,48,f,1,1.38293417042,01,01,60.0177553748,PLT_learning_01,N,2014_Jan_28_1816,P04,
stim_fb/ques.jpg,stim_fb/negf.jpg,stim_fb/posf.jpg,stim_01/b.jpg,stim_01/a.jpg,1,1,f,0,6,6,1,f,1,1.13301738483,01,01,60.0177553748,PLT_learning_01,N,2014_Jan_28_1816,P04,
stim_fb/ques.jpg,stim_fb/negf.jpg,stim_fb/posf.jpg,stim_01/c.jpg,stim_01/d.jpg,2,2,j,0,7,7,31,f,0,0.916417611898,01,01,60.0177553748,PLT_learning_01,N,2014_Jan_28_1816,P04,
stim_fb/ques.jpg,stim_fb/negf.jpg,stim_fb/posf.jpg,stim_01/d.jpg,stim_01/c.jpg,1,2,f,0,8,8,23,j,0,1.64952082766,01,01,60.0177553748,PLT_learning_01,N,2014_Jan_28_1816,P04,
stim_fb/ques.jpg,stim_fb/posf.jpg,stim_fb/negf.jpg,stim_01/f.jpg,stim_01/e.jpg,1,3,f,0,9,9,46,j,0,1.2496293261,01,01,60.0177553748,PLT_learning_01,N,2014_Jan_28_1816,P04,
stim_fb/ques.jpg,stim_fb/posf.jpg,stim_fb/negf.jpg,stim_01/b.jpg,stim_01/a.jpg,1,1,f,0,10,10,9,f,1,1.08297709341,01,01,60.0177553748,PLT_learning_01,N,2014_Jan_28_1816,P04,
stim_fb/ques.jpg,stim_fb/negf.jpg,stim_fb/posf.jpg,stim_01/d.jpg,stim_01/c.jpg,1,2,f,0,11,11,25,f,1,1.14968050165,01,01,60.0177553748,PLT_learning_01,N,2014_Jan_28_1816,P04,
stim_fb/ques.jpg,stim_fb/negf.jpg,stim_fb/posf.jpg,stim_01/b.jpg,stim_01/a.jpg,1,1,f,0,12,12,3,j,0,1.28294709363,01,01,60.0177553748,PLT_learning_01,N,2014_Jan_28_1816,P04,
stim_fb/ques.jpg,stim_fb/negf.jpg,stim_fb/posf.jpg,stim_01/f.jpg,stim_01/e.jpg,1,3,f,0,13,13,45,j,0,1.49956347095,01,01,60.0177553748,PLT_learning_01,N,2014_Jan_28_1816,P04,
stim_fb/ques.jpg,stim_fb/negf.jpg,stim_fb/posf.jpg,stim_01/a.jpg,stim_01/b.jpg,2,1,j,0,14,14,17,f,0,1.29961840888,01,01,60.0177553748,PLT_learning_01,N,2014_Jan_28_1816,P04,
stim_fb/ques.jpg,stim_fb/negf.jpg,stim_fb/posf.jpg,stim_01/b.jpg,stim_01/a.jpg,1,1,f,0,15,15,6,f,1,0.783128947903,01,01,60.0177553748,PLT_learning_01,N,2014_Jan_28_1816,P04,
stim_fb/ques.jpg,stim_fb/posf.jpg,stim_fb/negf.jpg,stim_01/c.jpg,stim_01/d.jpg,2,2,j,0,16,16,39,f,0,1.09966018,01,01,60.0177553748,PLT_learning_01,N,2014_Jan_28_1816,P04,
stim_fb/ques.jpg,stim_fb/negf.jpg,stim_fb/posf.jpg,stim_01/d.jpg,stim_01/c.jpg,1,2,f,0,17,17,22,j,0,1.06633576289,01,01,60.0177553748,PLT_learning_01,N,2014_Jan_28_1816,P04,
stim_fb/ques.jpg,stim_fb/negf.jpg,stim_fb/posf.jpg,stim_01/e.jpg,stim_01/f.jpg,2,3,j,0,18,18,54,j,1,1.04969044744,01,01,60.0177553748,PLT_learning_01,N,2014_Jan_28_1816,P04,
stim_fb/ques.jpg,stim_fb/negf.jpg,stim_fb/posf.jpg,stim_01/d.jpg,stim_01/c.jpg,1,2,f,0,19,19,24,j,0,1.24970620672,01,01,60.0177553748,PLT_learning_01,N,2014_Jan_28_1816,P04,
stim_fb/ques.jpg,stim_fb/posf.jpg,stim_fb/negf.jpg,stim_01/e.jpg,stim_01/f.jpg,2,3,j,0,20,20,57,j,1,1.36627050323,01,01,60.0177553748,PLT_learning_01,N,2014_Jan_28_1816,P04,
stim_fb/ques.jpg,stim_fb/negf.jpg,stim_fb/posf.jpg,stim_01/e.jpg,stim_01/f.jpg,2,3,j,0,21,21,52,j,1,1.03305036503,01,01,60.0177553748,PLT_learning_01,N,2014_Jan_28_1816,P04,
stim_fb/ques.jpg,stim_fb/negf.jpg,stim_fb/posf.jpg,stim_01/c.jpg,stim_01/d.jpg,2,2,j,0,22,22,30,f,0,0.983077191901,01,01,60.0177553748,PLT_learning_01,N,2014_Jan_28_1816,P04,
stim_fb/ques.jpg,stim_fb/posf.jpg,stim_fb/negf.jpg,stim_01/e.jpg,stim_01/f.jpg,2,3,j,0,23,23,56,j,1,1.09969141585,01,01,60.0177553748,PLT_learning_01,N,2014_Jan_28_1816,P04,
stim_fb/ques.jpg,stim_fb/negf.jpg,stim_fb/posf.jpg,stim_01/c.jpg,stim_01/d.jpg,2,2,j,0,24,24,36,f,0,0.96651447132,01,01,60.0177553748,PLT_learning_01,N,2014_Jan_28_1816,P04,
stim_fb/ques.jpg,stim_fb/posf.jpg,stim_fb/negf.jpg,stim_01/a.jpg,stim_01/b.jpg,2,1,j,0,25,25,19,j,1,0.849770170149,01,01,60.0177553748,PLT_learning_01,N,2014_Jan_28_1816,P04,
stim_fb/ques.jpg,stim_fb/negf.jpg,stim_fb/posf.jpg,stim_01/d.jpg,stim_01/c.jpg,1,2,f,0,26,26,26,j,0,1.31624183578,01,01,60.0177553748,PLT_learning_01,N,2014_Jan_28_1816,P04,
stim_fb/ques.jpg,stim_fb/negf.jpg,stim_fb/posf.jpg,stim_01/b.jpg,stim_01/a.jpg,1,1,f,0,27,27,4,f,1,0.999715463793,01,01,60.0177553748,PLT_learning_01,N,2014_Jan_28_1816,P04,
stim_fb/ques.jpg,stim_fb/negf.jpg,stim_fb/posf.jpg,stim_01/c.jpg,stim_01/d.jpg,2,2,j,0,28,28,33,f,0,0.999723165991,01,01,60.0177553748,PLT_learning_01,N,2014_Jan_28_1816,P04,
stim_fb/ques.jpg,stim_fb/negf.jpg,stim_fb/posf.jpg,stim_01/e.jpg,stim_01/f.jpg,2,3,j,0,29,29,55,f,0,1.24963009601,01,01,60.0177553748,PLT_learning_01,N,2014_Jan_28_1816,P04,
stim_fb/ques.jpg,stim_fb/negf.jpg,stim_fb/posf.jpg,stim_01/c.jpg,stim_01/d.jpg,2,2,j,0,30,30,34,f,0,1.29961767205,01,01,60.0177553748,PLT_learning_01,N,2014_Jan_28_1816,P04,
stim_fb/ques.jpg,stim_fb/negf.jpg,stim_fb/posf.jpg,stim_01/e.jpg,stim_01/f.jpg,2,3,j,0,31,31,53,j,1,1.19959920001,01,01,60.0177553748,PLT_learning_01,N,2014_Jan_28_1816,P04,
stim_fb/ques.jpg,stim_fb/posf.jpg,stim_fb/negf.jpg,stim_01/b.jpg,stim_01/a.jpg,1,1,f,0,32,32,8,f,1,1.24963116969,01,01,60.0177553748,PLT_learning_01,N,2014_Jan_28_1816,P04,
stim_fb/ques.jpg,stim_fb/negf.jpg,stim_fb/posf.jpg,stim_01/b.jpg,stim_01/a.jpg,1,1,f,0,33,33,5,j,0,0.899783929444,01,01,60.0177553748,PLT_learning_01,N,2014_Jan_28_1816,P04,
stim_fb/ques.jpg,stim_fb/negf.jpg,stim_fb/posf.jpg,stim_01/b.jpg,stim_01/a.jpg,1,1,f,0,34,34,0,j,0,1.18300656988,01,01,60.0177553748,PLT_learning_01,N,2014_Jan_28_1816,P04,
stim_fb/ques.jpg,stim_fb/negf.jpg,stim_fb/posf.jpg,stim_01/a.jpg,stim_01/b.jpg,2,1,j,0,35,35,15,j,1,1.51622441335,01,01,60.0177553748,PLT_learning_01,N,2014_Jan_28_1816,P04,
stim_fb/ques.jpg,stim_fb/negf.jpg,stim_fb/posf.jpg,stim_01/e.jpg,stim_01/f.jpg,2,3,j,0,36,36,51,f,0,1.43290820671,01,01,60.0177553748,PLT_learning_01,N,2014_Jan_28_1816,P04,
stim_fb/ques.jpg,stim_fb/posf.jpg,stim_fb/negf.jpg,stim_01/d.jpg,stim_01/c.jpg,1,2,f,0,37,37,28,f,1,1.41624301471,01,01,60.0177553748,PLT_learning_01,N,2014_Jan_28_1816,P04,
stim_fb/ques.jpg,stim_fb/negf.jpg,stim_fb/posf.jpg,stim_01/f.jpg,stim_01/e.jpg,1,3,f,0,38,38,42,j,0,1.68282895617,01,01,60.0177553748,PLT_learning_01,N,2014_Jan_28_1816,P04,
stim_fb/ques.jpg,stim_fb/negf.jpg,stim_fb/posf.jpg,stim_01/a.jpg,stim_01/b.jpg,2,1,j,0,39,39,11,j,1,1.63284250494,01,01,60.0177553748,PLT_learning_01,N,2014_Jan_28_1816,P04,
stim_fb/ques.jpg,stim_fb/negf.jpg,stim_fb/posf.jpg,stim_01/f.jpg,stim_01/e.jpg,1,3,f,0,40,40,41,None,0,,01,01,60.0177553748,PLT_learning_01,N,2014_Jan_28_1816,P04,
stim_fb/ques.jpg,stim_fb/posf.jpg,stim_fb/negf.jpg,stim_01/e.jpg,stim_01/f.jpg,2,3,j,0,41,41,58,j,1,0.983013637491,01,01,60.0177553748,PLT_learning_01,N,2014_Jan_28_1816,P04,
stim_fb/ques.jpg,stim_fb/negf.jpg,stim_fb/posf.jpg,stim_01/c.jpg,stim_01/d.jpg,2,2,j,0,42,42,35,j,1,1.23295703341,01,01,60.0177553748,PLT_learning_01,N,2014_Jan_28_1816,P04,
stim_fb/ques.jpg,stim_fb/negf.jpg,stim_fb/posf.jpg,stim_01/b.jpg,stim_01/a.jpg,1,1,f,0,43,43,2,j,0,1.29964621619,01,01,60.0177553748,PLT_learning_01,N,2014_Jan_28_1816,P04,
stim_fb/ques.jpg,stim_fb/negf.jpg,stim_fb/posf.jpg,stim_01/a.jpg,stim_01/b.jpg,2,1,j,0,44,44,14,j,1,1.49955428907,01,01,60.0177553748,PLT_learning_01,N,2014_Jan_28_1816,P04,
stim_fb/ques.jpg,stim_fb/negf.jpg,stim_fb/posf.jpg,stim_01/a.jpg,stim_01/b.jpg,2,1,j,0,45,45,16,j,1,1.2829689461,01,01,60.0177553748,PLT_learning_01,N,2014_Jan_28_1816,P04,
stim_fb/ques.jpg,stim_fb/posf.jpg,stim_fb/negf.jpg,stim_01/e.jpg,stim_01/f.jpg,2,3,j,0,46,46,59,j,1,1.01637678814,01,01,60.0177553748,PLT_learning_01,N,2014_Jan_28_1816,P04,
stim_fb/ques.jpg,stim_fb/negf.jpg,stim_fb/posf.jpg,stim_01/e.jpg,stim_01/f.jpg,2,3,j,0,47,47,50,f,0,0.899772973136,01,01,60.0177553748,PLT_learning_01,N,2014_Jan_28_1816,P04,
stim_fb/ques.jpg,stim_fb/posf.jpg,stim_fb/negf.jpg,stim_01/f.jpg,stim_01/e.jpg,1,3,f,0,48,48,49,j,0,1.54958028887,01,01,60.0177553748,PLT_learning_01,N,2014_Jan_28_1816,P04,
stim_fb/ques.jpg,stim_fb/posf.jpg,stim_fb/negf.jpg,stim_01/c.jpg,stim_01/d.jpg,2,2,j,0,49,49,38,f,0,1.23297508741,01,01,60.0177553748,PLT_learning_01,N,2014_Jan_28_1816,P04,
stim_fb/ques.jpg,stim_fb/posf.jpg,stim_fb/negf.jpg,stim_01/a.jpg,stim_01/b.jpg,2,1,j,0,50,50,18,j,1,0.883090584281,01,01,60.0177553748,PLT_learning_01,N,2014_Jan_28_1816,P04,
stim_fb/ques.jpg,stim_fb/negf.jpg,stim_fb/posf.jpg,stim_01/f.jpg,stim_01/e.jpg,1,3,f,0,51,51,43,j,0,1.19964348539,01,01,60.0177553748,PLT_learning_01,N,2014_Jan_28_1816,P04,
stim_fb/ques.jpg,stim_fb/negf.jpg,stim_fb/posf.jpg,stim_01/b.jpg,stim_01/a.jpg,1,1,f,0,52,52,7,f,1,1.09968621289,01,01,60.0177553748,PLT_learning_01,N,2014_Jan_28_1816,P04,
stim_fb/ques.jpg,stim_fb/negf.jpg,stim_fb/posf.jpg,stim_01/d.jpg,stim_01/c.jpg,1,2,f,0,53,53,21,j,0,0.866419250983,01,01,60.0177553748,PLT_learning_01,N,2014_Jan_28_1816,P04,
stim_fb/ques.jpg,stim_fb/negf.jpg,stim_fb/posf.jpg,stim_01/a.jpg,stim_01/b.jpg,2,1,j,0,54,54,10,j,1,1.23307730619,01,01,60.0177553748,PLT_learning_01,N,2014_Jan_28_1816,P04,
stim_fb/ques.jpg,stim_fb/negf.jpg,stim_fb/posf.jpg,stim_01/d.jpg,stim_01/c.jpg,1,2,f,0,55,55,20,f,1,1.43292387576,01,01,60.0177553748,PLT_learning_01,N,2014_Jan_28_1816,P04,
stim_fb/ques.jpg,stim_fb/negf.jpg,stim_fb/posf.jpg,stim_01/a.jpg,stim_01/b.jpg,2,1,j,0,56,56,12,j,1,0.899764464929,01,01,60.0177553748,PLT_learning_01,N,2014_Jan_28_1816,P04,
stim_fb/ques.jpg,stim_fb/negf.jpg,stim_fb/posf.jpg,stim_01/c.jpg,stim_01/d.jpg,2,2,j,0,57,57,32,j,1,0.883083516665,01,01,60.0177553748,PLT_learning_01,N,2014_Jan_28_1816,P04,
stim_fb/ques.jpg,stim_fb/posf.jpg,stim_fb/negf.jpg,stim_01/d.jpg,stim_01/c.jpg,1,2,f,0,58,58,27,f,1,1.24965618604,01,01,60.0177553748,PLT_learning_01,N,2014_Jan_28_1816,P04,
stim_fb/ques.jpg,stim_fb/posf.jpg,stim_fb/negf.jpg,stim_01/f.jpg,stim_01/e.jpg,1,3,f,0,59,59,47,None,0,,01,01,60.0177553748,PLT_learning_01,N,2014_Jan_28_1816,P04,
stim_fb/ques.jpg,stim_fb/negf.jpg,stim_fb/posf.jpg,stim_01/f.jpg,stim_01/e.jpg,1,3,f,1,0,60,40,j,0,0.966395362441,01,01,60.0177553748,PLT_learning_01,N,2014_Jan_28_1816,P04,
stim_fb/ques.jpg,stim_fb/negf.jpg,stim_fb/posf.jpg,stim_01/d.jpg,stim_01/c.jpg,1,2,f,1,1,61,23,f,1,1.23297140322,01,01,60.0177553748,PLT_learning_01,N,2014_Jan_28_1816,P04,
stim_fb/ques.jpg,stim_fb/negf.jpg,stim_fb/posf.jpg,stim_01/e.jpg,stim_01/f.jpg,2,3,j,1,2,62,50,j,1,1.18297961669,01,01,60.0177553748,PLT_learning_01,N,2014_Jan_28_1816,P04,
stim_fb/ques.jpg,stim_fb/negf.jpg,stim_fb/posf.jpg,stim_01/f.jpg,stim_01/e.jpg,1,3,f,1,3,63,44,j,0,1.54952687875,01,01,60.0177553748,PLT_learning_01,N,2014_Jan_28_1816,P04,
stim_fb/ques.jpg,stim_fb/negf.jpg,stim_fb/posf.jpg,stim_01/b.jpg,stim_01/a.jpg,1,1,f,1,4,64,0,f,1,0.916410213457,01,01,60.0177553748,PLT_learning_01,N,2014_Jan_28_1816,P04,
stim_fb/ques.jpg,stim_fb/negf.jpg,stim_fb/posf.jpg,stim_01/a.jpg,stim_01/b.jpg,2,1,j,1,5,65,16,j,1,1.0664114736,01,01,60.0177553748,PLT_learning_01,N,2014_Jan_28_1816,P04,
stim_fb/ques.jpg,stim_fb/posf.jpg,stim_fb/negf.jpg,stim_01/d.jpg,stim_01/c.jpg,1,2,f,1,6,66,27,f,1,1.06636528748,01,01,60.0177553748,PLT_learning_01,N,2014_Jan_28_1816,P04,
stim_fb/ques.jpg,stim_fb/posf.jpg,stim_fb/negf.jpg,stim_01/a.jpg,stim_01/b.jpg,2,1,j,1,7,67,19,j,1,0.86643516966,01,01,60.0177553748,PLT_learning_01,N,2014_Jan_28_1816,P04,
stim_fb/ques.jpg,stim_fb/negf.jpg,stim_fb/posf.jpg,stim_01/c.jpg,stim_01/d.jpg,2,2,j,1,8,68,33,j,1,1.23301142397,01,01,60.0177553748,PLT_learning_01,N,2014_Jan_28_1816,P04,
stim_fb/ques.jpg,stim_fb/negf.jpg,stim_fb/posf.jpg,stim_01/c.jpg,stim_01/d.jpg,2,2,j,1,9,69,31,j,1,1.19961429162,01,01,60.0177553748,PLT_learning_01,N,2014_Jan_28_1816,P04,
stim_fb/ques.jpg,stim_fb/negf.jpg,stim_fb/posf.jpg,stim_01/e.jpg,stim_01/f.jpg,2,3,j,1,10,70,52,j,1,1.16635308607,01,01,60.0177553748,PLT_learning_01,N,2014_Jan_28_1816,P04,
stim_fb/ques.jpg,stim_fb/posf.jpg,stim_fb/negf.jpg,stim_01/d.jpg,stim_01/c.jpg,1,2,f,1,11,71,28,j,0,0.849783857264,01,01,60.0177553748,PLT_learning_01,N,2014_Jan_28_1816,P04,
stim_fb/ques.jpg,stim_fb/posf.jpg,stim_fb/negf.jpg,stim_01/e.jpg,stim_01/f.jpg,2,3,j,1,12,72,58,f,0,0.799821881038,01,01,60.0177553748,PLT_learning_01,N,2014_Jan_28_1816,P04,
stim_fb/ques.jpg,stim_fb/negf.jpg,stim_fb/posf.jpg,stim_01/b.jpg,stim_01/a.jpg,1,1,f,1,13,73,3,f,1,0.94972379155,01,01,60.0177553748,PLT_learning_01,N,2014_Jan_28_1816,P04,
stim_fb/ques.jpg,stim_fb/negf.jpg,stim_fb/posf.jpg,stim_01/c.jpg,stim_01/d.jpg,2,2,j,1,14,74,34,j,1,1.21633449673,01,01,60.0177553748,PLT_learning_01,N,2014_Jan_28_1816,P04,
stim_fb/ques.jpg,stim_fb/negf.jpg,stim_fb/posf.jpg,stim_01/b.jpg,stim_01/a.jpg,1,1,f,1,15,75,1,f,1,0.966350370298,01,01,60.0177553748,PLT_learning_01,N,2014_Jan_28_1816,P04,
stim_fb/ques.jpg,stim_fb/negf.jpg,stim_fb/posf.jpg,stim_01/d.jpg,stim_01/c.jpg,1,2,f,1,16,76,25,j,0,0.866438029789,01,01,60.0177553748,PLT_learning_01,N,2014_Jan_28_1816,P04,
stim_fb/ques.jpg,stim_fb/negf.jpg,stim_fb/posf.jpg,stim_01/e.jpg,stim_01/f.jpg,2,3,j,1,17,77,55,j,1,1.09969236622,01,01,60.0177553748,PLT_learning_01,N,2014_Jan_28_1816,P04,
stim_fb/ques.jpg,stim_fb/negf.jpg,stim_fb/posf.jpg,stim_01/f.jpg,stim_01/e.jpg,1,3,f,1,18,78,45,j,0,1.19964346133,01,01,60.0177553748,PLT_learning_01,N,2014_Jan_28_1816,P04,
stim_fb/ques.jpg,stim_fb/negf.jpg,stim_fb/posf.jpg,stim_01/a.jpg,stim_01/b.jpg,2,1,j,1,19,79,14,j,1,0.849642763588,01,01,60.0177553748,PLT_learning_01,N,2014_Jan_28_1816,P04,
stim_fb/ques.jpg,stim_fb/negf.jpg,stim_fb/posf.jpg,stim_01/d.jpg,stim_01/c.jpg,1,2,f,1,20,80,20,j,0,1.26623901174,01,01,60.0177553748,PLT_learning_01,N,2014_Jan_28_1816,P04,
stim_fb/ques.jpg,stim_fb/posf.jpg,stim_fb/negf.jpg,stim_01/f.jpg,stim_01/e.jpg,1,3,f,1,21,81,46,j,0,1.68284859512,01,01,60.0177553748,PLT_learning_01,N,2014_Jan_28_1816,P04,
stim_fb/ques.jpg,stim_fb/negf.jpg,stim_fb/posf.jpg,stim_01/b.jpg,stim_01/a.jpg,1,1,f,1,22,82,7,f,1,1.16631083075,01,01,60.0177553748,PLT_learning_01,N,2014_Jan_28_1816,P04,
stim_fb/ques.jpg,stim_fb/negf.jpg,stim_fb/posf.jpg,stim_01/d.jpg,stim_01/c.jpg,1,2,f,1,23,83,21,f,1,1.59953502605,01,01,60.0177553748,PLT_learning_01,N,2014_Jan_28_1816,P04,
stim_fb/ques.jpg,stim_fb/posf.jpg,stim_fb/negf.jpg,stim_01/f.jpg,stim_01/e.jpg,1,3,f,1,24,84,48,j,0,1.36627719792,01,01,60.0177553748,PLT_learning_01,N,2014_Jan_28_1816,P04,
stim_fb/ques.jpg,stim_fb/posf.jpg,stim_fb/negf.jpg,stim_01/f.jpg,stim_01/e.jpg,1,3,f,1,25,85,49,j,0,1.1329948226,01,01,60.0177553748,PLT_learning_01,N,2014_Jan_28_1816,P04,
stim_fb/ques.jpg,stim_fb/negf.jpg,stim_fb/posf.jpg,stim_01/a.jpg,stim_01/b.jpg,2,1,j,1,26,86,12,j,1,0.883055568003,01,01,60.0177553748,PLT_learning_01,N,2014_Jan_28_1816,P04,
stim_fb/ques.jpg,stim_fb/negf.jpg,stim_fb/posf.jpg,stim_01/a.jpg,stim_01/b.jpg,2,1,j,1,27,87,17,j,1,0.933083327193,01,01,60.0177553748,PLT_learning_01,N,2014_Jan_28_1816,P04,
stim_fb/ques.jpg,stim_fb/negf.jpg,stim_fb/posf.jpg,stim_01/d.jpg,stim_01/c.jpg,1,2,f,1,28,88,22,f,1,1.34960209021,01,01,60.0177553748,PLT_learning_01,N,2014_Jan_28_1816,P04,
stim_fb/ques.jpg,stim_fb/posf.jpg,stim_fb/negf.jpg,stim_01/a.jpg,stim_01/b.jpg,2,1,j,1,29,89,18,j,1,0.866523274261,01,01,60.0177553748,PLT_learning_01,N,2014_Jan_28_1816,P04,
stim_fb/ques.jpg,stim_fb/posf.jpg,stim_fb/negf.jpg,stim_01/e.jpg,stim_01/f.jpg,2,3,j,1,30,90,59,f,0,1.49956314614,01,01,60.0177553748,PLT_learning_01,N,2014_Jan_28_1816,P04,
stim_fb/ques.jpg,stim_fb/negf.jpg,stim_fb/posf.jpg,stim_01/e.jpg,stim_01/f.jpg,2,3,j,1,31,91,54,j,1,1.04971423673,01,01,60.0177553748,PLT_learning_01,N,2014_Jan_28_1816,P04,
stim_fb/ques.jpg,stim_fb/negf.jpg,stim_fb/posf.jpg,stim_01/e.jpg,stim_01/f.jpg,2,3,j,1,32,92,51,j,1,0.749809971354,01,01,60.0177553748,PLT_learning_01,N,2014_Jan_28_1816,P04,
stim_fb/ques.jpg,stim_fb/negf.jpg,stim_fb/posf.jpg,stim_01/a.jpg,stim_01/b.jpg,2,1,j,1,33,93,13,j,1,1.26629983534,01,01,60.0177553748,PLT_learning_01,N,2014_Jan_28_1816,P04,
stim_fb/ques.jpg,stim_fb/negf.jpg,stim_fb/posf.jpg,stim_01/c.jpg,stim_01/d.jpg,2,2,j,1,34,94,35,j,1,1.21639486019,01,01,60.0177553748,PLT_learning_01,N,2014_Jan_28_1816,P04,
stim_fb/ques.jpg,stim_fb/negf.jpg,stim_fb/posf.jpg,stim_01/c.jpg,stim_01/d.jpg,2,2,j,1,35,95,36,j,1,0.61653823054,01,01,60.0177553748,PLT_learning_01,N,2014_Jan_28_1816,P04,
stim_fb/ques.jpg,stim_fb/negf.jpg,stim_fb/posf.jpg,stim_01/c.jpg,stim_01/d.jpg,2,2,j,1,36,96,32,j,1,0.766464507786,01,01,60.0177553748,PLT_learning_01,N,2014_Jan_28_1816,P04,
stim_fb/ques.jpg,stim_fb/posf.jpg,stim_fb/negf.jpg,stim_01/f.jpg,stim_01/e.jpg,1,3,f,1,37,97,47,j,0,1.16634471921,01,01,60.0177553748,PLT_learning_01,N,2014_Jan_28_1816,P04,
stim_fb/ques.jpg,stim_fb/negf.jpg,stim_fb/posf.jpg,stim_01/b.jpg,stim_01/a.jpg,1,1,f,1,38,98,5,j,0,1.24963400576,01,01,60.0177553748,PLT_learning_01,N,2014_Jan_28_1816,P04,
stim_fb/ques.jpg,stim_fb/posf.jpg,stim_fb/negf.jpg,stim_01/c.jpg,stim_01/d.jpg,2,2,j,1,39,99,39,j,1,0.849761716077,01,01,60.0177553748,PLT_learning_01,N,2014_Jan_28_1816,P04,
stim_fb/ques.jpg,stim_fb/posf.jpg,stim_fb/negf.jpg,stim_01/c.jpg,stim_01/d.jpg,2,2,j,1,40,100,38,j,1,0.799787583552,01,01,60.0177553748,PLT_learning_01,N,2014_Jan_28_1816,P04,
stim_fb/ques.jpg,stim_fb/negf.jpg,stim_fb/posf.jpg,stim_01/a.jpg,stim_01/b.jpg,2,1,j,1,41,101,15,j,1,1.38293016143,01,01,60.0177553748,PLT_learning_01,N,2014_Jan_28_1816,P04,
stim_fb/ques.jpg,stim_fb/negf.jpg,stim_fb/posf.jpg,stim_01/b.jpg,stim_01/a.jpg,1,1,f,1,42,102,2,j,0,1.64949715265,01,01,60.0177553748,PLT_learning_01,N,2014_Jan_28_1816,P04,
stim_fb/ques.jpg,stim_fb/negf.jpg,stim_fb/posf.jpg,stim_01/d.jpg,stim_01/c.jpg,1,2,f,1,43,103,26,f,1,1.36628673769,01,01,60.0177553748,PLT_learning_01,N,2014_Jan_28_1816,P04,
stim_fb/ques.jpg,stim_fb/negf.jpg,stim_fb/posf.jpg,stim_01/f.jpg,stim_01/e.jpg,1,3,f,1,44,104,41,f,1,1.58285329885,01,01,60.0177553748,PLT_learning_01,N,2014_Jan_28_1816,P04,
stim_fb/ques.jpg,stim_fb/posf.jpg,stim_fb/negf.jpg,stim_01/e.jpg,stim_01/f.jpg,2,3,j,1,45,105,57,j,1,1.41626315592,01,01,60.0177553748,PLT_learning_01,N,2014_Jan_28_1816,P04,
stim_fb/ques.jpg,stim_fb/negf.jpg,stim_fb/posf.jpg,stim_01/d.jpg,stim_01/c.jpg,1,2,f,1,46,106,24,f,1,0.633170956609,01,01,60.0177553748,PLT_learning_01,N,2014_Jan_28_1816,P04,
stim_fb/ques.jpg,stim_fb/negf.jpg,stim_fb/posf.jpg,stim_01/b.jpg,stim_01/a.jpg,1,1,f,1,47,107,4,j,0,1.09971316907,01,01,60.0177553748,PLT_learning_01,N,2014_Jan_28_1816,P04,
stim_fb/ques.jpg,stim_fb/negf.jpg,stim_fb/posf.jpg,stim_01/e.jpg,stim_01/f.jpg,2,3,j,1,48,108,53,j,1,1.24963699822,01,01,60.0177553748,PLT_learning_01,N,2014_Jan_28_1816,P04,
stim_fb/ques.jpg,stim_fb/posf.jpg,stim_fb/negf.jpg,stim_01/e.jpg,stim_01/f.jpg,2,3,j,1,49,109,56,j,1,0.683147612424,01,01,60.0177553748,PLT_learning_01,N,2014_Jan_28_1816,P04,
stim_fb/ques.jpg,stim_fb/posf.jpg,stim_fb/negf.jpg,stim_01/c.jpg,stim_01/d.jpg,2,2,j,1,50,110,37,j,1,1.01640364509,01,01,60.0177553748,PLT_learning_01,N,2014_Jan_28_1816,P04,
stim_fb/ques.jpg,stim_fb/negf.jpg,stim_fb/posf.jpg,stim_01/c.jpg,stim_01/d.jpg,2,2,j,1,51,111,30,j,1,1.58286890174,01,01,60.0177553748,PLT_learning_01,N,2014_Jan_28_1816,P04,
stim_fb/ques.jpg,stim_fb/negf.jpg,stim_fb/posf.jpg,stim_01/b.jpg,stim_01/a.jpg,1,1,f,1,52,112,6,f,1,1.59953338997,01,01,60.0177553748,PLT_learning_01,N,2014_Jan_28_1816,P04,
stim_fb/ques.jpg,stim_fb/negf.jpg,stim_fb/posf.jpg,stim_01/f.jpg,stim_01/e.jpg,1,3,f,1,53,113,42,j,0,1.34959307073,01,01,60.0177553748,PLT_learning_01,N,2014_Jan_28_1816,P04,
stim_fb/ques.jpg,stim_fb/negf.jpg,stim_fb/posf.jpg,stim_01/a.jpg,stim_01/b.jpg,2,1,j,1,54,114,11,j,1,1.13299697296,01,01,60.0177553748,PLT_learning_01,N,2014_Jan_28_1816,P04,
stim_fb/ques.jpg,stim_fb/negf.jpg,stim_fb/posf.jpg,stim_01/f.jpg,stim_01/e.jpg,1,3,f,1,55,115,43,None,0,,01,01,60.0177553748,PLT_learning_01,N,2014_Jan_28_1816,P04,
stim_fb/ques.jpg,stim_fb/negf.jpg,stim_fb/posf.jpg,stim_01/a.jpg,stim_01/b.jpg,2,1,j,1,56,116,10,j,1,0.799779460305,01,01,60.0177553748,PLT_learning_01,N,2014_Jan_28_1816,P04,
stim_fb/ques.jpg,stim_fb/posf.jpg,stim_fb/negf.jpg,stim_01/d.jpg,stim_01/c.jpg,1,2,f,1,57,117,29,f,1,1.06635734167,01,01,60.0177553748,PLT_learning_01,N,2014_Jan_28_1816,P04,
stim_fb/ques.jpg,stim_fb/posf.jpg,stim_fb/negf.jpg,stim_01/b.jpg,stim_01/a.jpg,1,1,f,1,58,118,9,f,1,1.08299430831,01,01,60.0177553748,PLT_learning_01,N,2014_Jan_28_1816,P04,
stim_fb/ques.jpg,stim_fb/posf.jpg,stim_fb/negf.jpg,stim_01/b.jpg,stim_01/a.jpg,1,1,f,1,59,119,8,j,0,0.933073790423,01,01,60.0177553748,PLT_learning_01,N,2014_Jan_28_1816,P04,
stim_fb/ques.jpg,stim_fb/posf.jpg,stim_fb/negf.jpg,stim_01/e.jpg,stim_01/f.jpg,2,3,j,2,0,120,58,j,1,0.98306028075,01,01,60.0177553748,PLT_learning_01,N,2014_Jan_28_1816,P04,
stim_fb/ques.jpg,stim_fb/negf.jpg,stim_fb/posf.jpg,stim_01/a.jpg,stim_01/b.jpg,2,1,j,2,1,121,16,j,1,1.0497296682,01,01,60.0177553748,PLT_learning_01,N,2014_Jan_28_1816,P04,
stim_fb/ques.jpg,stim_fb/negf.jpg,stim_fb/posf.jpg,stim_01/c.jpg,stim_01/d.jpg,2,2,j,2,2,122,36,j,1,1.06634504101,01,01,60.0177553748,PLT_learning_01,N,2014_Jan_28_1816,P04,
stim_fb/ques.jpg,stim_fb/negf.jpg,stim_fb/posf.jpg,stim_01/b.jpg,stim_01/a.jpg,1,1,f,2,3,123,4,f,1,1.09964179217,01,01,60.0177553748,PLT_learning_01,N,2014_Jan_28_1816,P04,
stim_fb/ques.jpg,stim_fb/negf.jpg,stim_fb/posf.jpg,stim_01/e.jpg,stim_01/f.jpg,2,3,j,2,4,124,50,j,1,0.683149522184,01,01,60.0177553748,PLT_learning_01,N,2014_Jan_28_1816,P04,
stim_fb/ques.jpg,stim_fb/posf.jpg,stim_fb/negf.jpg,stim_01/b.jpg,stim_01/a.jpg,1,1,f,2,5,125,9,f,1,0.833061192021,01,01,60.0177553748,PLT_learning_01,N,2014_Jan_28_1816,P04,
stim_fb/ques.jpg,stim_fb/negf.jpg,stim_fb/posf.jpg,stim_01/b.jpg,stim_01/a.jpg,1,1,f,2,6,126,0,j,0,1.11635395223,01,01,60.0177553748,PLT_learning_01,N,2014_Jan_28_1816,P04,
stim_fb/ques.jpg,stim_fb/posf.jpg,stim_fb/negf.jpg,stim_01/f.jpg,stim_01/e.jpg,1,3,f,2,7,127,48,j,0,1.0830026872,01,01,60.0177553748,PLT_learning_01,N,2014_Jan_28_1816,P04,
stim_fb/ques.jpg,stim_fb/posf.jpg,stim_fb/negf.jpg,stim_01/d.jpg,stim_01/c.jpg,1,2,f,2,8,128,27,f,1,1.1663520966,01,01,60.0177553748,PLT_learning_01,N,2014_Jan_28_1816,P04,
stim_fb/ques.jpg,stim_fb/negf.jpg,stim_fb/posf.jpg,stim_01/b.jpg,stim_01/a.jpg,1,1,f,2,9,129,1,j,0,1.14970604732,01,01,60.0177553748,PLT_learning_01,N,2014_Jan_28_1816,P04,
stim_fb/ques.jpg,stim_fb/negf.jpg,stim_fb/posf.jpg,stim_01/a.jpg,stim_01/b.jpg,2,1,j,2,10,130,14,j,1,1.23296835362,01,01,60.0177553748,PLT_learning_01,N,2014_Jan_28_1816,P04,
stim_fb/ques.jpg,stim_fb/posf.jpg,stim_fb/negf.jpg,stim_01/e.jpg,stim_01/f.jpg,2,3,j,2,11,131,56,j,1,0.733140403456,01,01,60.0177553748,PLT_learning_01,N,2014_Jan_28_1816,P04,
stim_fb/ques.jpg,stim_fb/negf.jpg,stim_fb/posf.jpg,stim_01/d.jpg,stim_01/c.jpg,1,2,f,2,12,132,22,j,0,1.48291673296,01,01,60.0177553748,PLT_learning_01,N,2014_Jan_28_1816,P04,
stim_fb/ques.jpg,stim_fb/negf.jpg,stim_fb/posf.jpg,stim_01/d.jpg,stim_01/c.jpg,1,2,f,2,13,133,21,f,1,1.18297873249,01,01,60.0177553748,PLT_learning_01,N,2014_Jan_28_1816,P04,
stim_fb/ques.jpg,stim_fb/posf.jpg,stim_fb/negf.jpg,stim_01/c.jpg,stim_01/d.jpg,2,2,j,2,14,134,38,None,0,,01,01,60.0177553748,PLT_learning_01,N,2014_Jan_28_1816,P04,
stim_fb/ques.jpg,stim_fb/posf.jpg,stim_fb/negf.jpg,stim_01/f.jpg,stim_01/e.jpg,1,3,f,2,15,135,49,j,0,0.966410920219,01,01,60.0177553748,PLT_learning_01,N,2014_Jan_28_1816,P04,
stim_fb/ques.jpg,stim_fb/negf.jpg,stim_fb/posf.jpg,stim_01/e.jpg,stim_01/f.jpg,2,3,j,2,16,136,55,j,1,1.16632259607,01,01,60.0177553748,PLT_learning_01,N,2014_Jan_28_1816,P04,
stim_fb/ques.jpg,stim_fb/posf.jpg,stim_fb/negf.jpg,stim_01/f.jpg,stim_01/e.jpg,1,3,f,2,17,137,47,j,0,0.766452417651,01,01,60.0177553748,PLT_learning_01,N,2014_Jan_28_1816,P04,
stim_fb/ques.jpg,stim_fb/negf.jpg,stim_fb/posf.jpg,stim_01/d.jpg,stim_01/c.jpg,1,2,f,2,18,138,25,f,1,1.36628611815,01,01,60.0177553748,PLT_learning_01,N,2014_Jan_28_1816,P04,
stim_fb/ques.jpg,stim_fb/negf.jpg,stim_fb/posf.jpg,stim_01/d.jpg,stim_01/c.jpg,1,2,f,2,19,139,26,f,1,0.749784233201,01,01,60.0177553748,PLT_learning_01,N,2014_Jan_28_1816,P04,
stim_fb/ques.jpg,stim_fb/negf.jpg,stim_fb/posf.jpg,stim_01/e.jpg,stim_01/f.jpg,2,3,j,2,20,140,52,j,1,1.43292885317,01,01,60.0177553748,PLT_learning_01,N,2014_Jan_28_1816,P04,
stim_fb/ques.jpg,stim_fb/posf.jpg,stim_fb/negf.jpg,stim_01/c.jpg,stim_01/d.jpg,2,2,j,2,21,141,39,j,1,1.48294272374,01,01,60.0177553748,PLT_learning_01,N,2014_Jan_28_1816,P04,
stim_fb/ques.jpg,stim_fb/negf.jpg,stim_fb/posf.jpg,stim_01/c.jpg,stim_01/d.jpg,2,2,j,2,22,142,33,j,1,0.866464432598,01,01,60.0177553748,PLT_learning_01,N,2014_Jan_28_1816,P04,
stim_fb/ques.jpg,stim_fb/negf.jpg,stim_fb/posf.jpg,stim_01/e.jpg,stim_01/f.jpg,2,3,j,2,23,143,54,j,1,1.19964834851,01,01,60.0177553748,PLT_learning_01,N,2014_Jan_28_1816,P04,
stim_fb/ques.jpg,stim_fb/negf.jpg,stim_fb/posf.jpg,stim_01/d.jpg,stim_01/c.jpg,1,2,f,2,24,144,24,f,1,1.24962208404,01,01,60.0177553748,PLT_learning_01,N,2014_Jan_28_1816,P04,
stim_fb/ques.jpg,stim_fb/posf.jpg,stim_fb/negf.jpg,stim_01/e.jpg,stim_01/f.jpg,2,3,j,2,25,145,59,j,1,0.833086689574,01,01,60.0177553748,PLT_learning_01,N,2014_Jan_28_1816,P04,
stim_fb/ques.jpg,stim_fb/negf.jpg,stim_fb/posf.jpg,stim_01/f.jpg,stim_01/e.jpg,1,3,f,2,26,146,44,j,0,1.01635577176,01,01,60.0177553748,PLT_learning_01,N,2014_Jan_28_1816,P04,
stim_fb/ques.jpg,stim_fb/posf.jpg,stim_fb/negf.jpg,stim_01/c.jpg,stim_01/d.jpg,2,2,j,2,27,147,37,f,0,1.44956426493,01,01,60.0177553748,PLT_learning_01,N,2014_Jan_28_1816,P04,
stim_fb/ques.jpg,stim_fb/negf.jpg,stim_fb/posf.jpg,stim_01/a.jpg,stim_01/b.jpg,2,1,j,2,28,148,11,j,1,1.1829798994,01,01,60.0177553748,PLT_learning_01,N,2014_Jan_28_1816,P04,
stim_fb/ques.jpg,stim_fb/negf.jpg,stim_fb/posf.jpg,stim_01/b.jpg,stim_01/a.jpg,1,1,f,2,29,149,3,j,0,1.249567501,01,01,60.0177553748,PLT_learning_01,N,2014_Jan_28_1816,P04,
stim_fb/ques.jpg,stim_fb/negf.jpg,stim_fb/posf.jpg,stim_01/b.jpg,stim_01/a.jpg,1,1,f,2,30,150,6,j,0,1.0663637717,01,01,60.0177553748,PLT_learning_01,N,2014_Jan_28_1816,P04,
stim_fb/ques.jpg,stim_fb/negf.jpg,stim_fb/posf.jpg,stim_01/c.jpg,stim_01/d.jpg,2,2,j,2,31,151,31,j,1,0.749800708265,01,01,60.0177553748,PLT_learning_01,N,2014_Jan_28_1816,P04,
stim_fb/ques.jpg,stim_fb/negf.jpg,stim_fb/posf.jpg,stim_01/b.jpg,stim_01/a.jpg,1,1,f,2,32,152,2,j,0,0.733144204931,01,01,60.0177553748,PLT_learning_01,N,2014_Jan_28_1816,P04,
stim_fb/ques.jpg,stim_fb/posf.jpg,stim_fb/negf.jpg,stim_01/b.jpg,stim_01/a.jpg,1,1,f,2,33,153,8,f,1,1.21639712784,01,01,60.0177553748,PLT_learning_01,N,2014_Jan_28_1816,P04,
stim_fb/ques.jpg,stim_fb/negf.jpg,stim_fb/posf.jpg,stim_01/d.jpg,stim_01/c.jpg,1,2,f,2,34,154,20,j,0,1.28299923459,01,01,60.0177553748,PLT_learning_01,N,2014_Jan_28_1816,P04,
stim_fb/ques.jpg,stim_fb/negf.jpg,stim_fb/posf.jpg,stim_01/a.jpg,stim_01/b.jpg,2,1,j,2,35,155,13,j,1,0.966391774498,01,01,60.0177553748,PLT_learning_01,N,2014_Jan_28_1816,P04,
stim_fb/ques.jpg,stim_fb/negf.jpg,stim_fb/posf.jpg,stim_01/f.jpg,stim_01/e.jpg,1,3,f,2,36,156,42,j,0,1.09968380087,01,01,60.0177553748,PLT_learning_01,N,2014_Jan_28_1816,P04,
stim_fb/ques.jpg,stim_fb/negf.jpg,stim_fb/posf.jpg,stim_01/c.jpg,stim_01/d.jpg,2,2,j,2,37,157,30,j,1,1.01636982278,01,01,60.0177553748,PLT_learning_01,N,2014_Jan_28_1816,P04,
stim_fb/ques.jpg,stim_fb/negf.jpg,stim_fb/posf.jpg,stim_01/f.jpg,stim_01/e.jpg,1,3,f,2,38,158,40,j,0,0.999726711829,01,01,60.0177553748,PLT_learning_01,N,2014_Jan_28_1816,P04,
stim_fb/ques.jpg,stim_fb/negf.jpg,stim_fb/posf.jpg,stim_01/b.jpg,stim_01/a.jpg,1,1,f,2,39,159,7,f,1,1.13303150803,01,01,60.0177553748,PLT_learning_01,N,2014_Jan_28_1816,P04,
stim_fb/ques.jpg,stim_fb/negf.jpg,stim_fb/posf.jpg,stim_01/f.jpg,stim_01/e.jpg,1,3,f,2,40,160,45,j,0,0.949730901271,01,01,60.0177553748,PLT_learning_01,N,2014_Jan_28_1816,P04,
stim_fb/ques.jpg,stim_fb/posf.jpg,stim_fb/negf.jpg,stim_01/f.jpg,stim_01/e.jpg,1,3,f,2,41,161,46,j,0,1.31627604003,01,01,60.0177553748,PLT_learning_01,N,2014_Jan_28_1816,P04,
stim_fb/ques.jpg,stim_fb/negf.jpg,stim_fb/posf.jpg,stim_01/f.jpg,stim_01/e.jpg,1,3,f,2,42,162,41,j,0,1.08303190502,01,01,60.0177553748,PLT_learning_01,N,2014_Jan_28_1816,P04,
stim_fb/ques.jpg,stim_fb/posf.jpg,stim_fb/negf.jpg,stim_01/d.jpg,stim_01/c.jpg,1,2,f,2,43,163,28,f,1,1.13302584191,01,01,60.0177553748,PLT_learning_01,N,2014_Jan_28_1816,P04,
stim_fb/ques.jpg,stim_fb/negf.jpg,stim_fb/posf.jpg,stim_01/c.jpg,stim_01/d.jpg,2,2,j,2,44,164,34,j,1,1.09969758122,01,01,60.0177553748,PLT_learning_01,N,2014_Jan_28_1816,P04,
stim_fb/ques.jpg,stim_fb/negf.jpg,stim_fb/posf.jpg,stim_01/e.jpg,stim_01/f.jpg,2,3,j,2,45,165,53,j,1,0.766456501831,01,01,60.0177553748,PLT_learning_01,N,2014_Jan_28_1816,P04,
stim_fb/ques.jpg,stim_fb/negf.jpg,stim_fb/posf.jpg,stim_01/c.jpg,stim_01/d.jpg,2,2,j,2,46,166,35,f,0,0.899768852866,01,01,60.0177553748,PLT_learning_01,N,2014_Jan_28_1816,P04,
stim_fb/ques.jpg,stim_fb/negf.jpg,stim_fb/posf.jpg,stim_01/d.jpg,stim_01/c.jpg,1,2,f,2,47,167,23,j,0,0.799804016511,01,01,60.0177553748,PLT_learning_01,N,2014_Jan_28_1816,P04,
stim_fb/ques.jpg,stim_fb/negf.jpg,stim_fb/posf.jpg,stim_01/c.jpg,stim_01/d.jpg,2,2,j,2,48,168,32,None,0,,01,01,60.0177553748,PLT_learning_01,N,2014_Jan_28_1816,P04,
stim_fb/ques.jpg,stim_fb/posf.jpg,stim_fb/negf.jpg,stim_01/e.jpg,stim_01/f.jpg,2,3,j,2,49,169,57,j,1,0.866434369666,01,01,60.0177553748,PLT_learning_01,N,2014_Jan_28_1816,P04,
stim_fb/ques.jpg,stim_fb/negf.jpg,stim_fb/posf.jpg,stim_01/a.jpg,stim_01/b.jpg,2,1,j,2,50,170,17,j,1,0.866464793498,01,01,60.0177553748,PLT_learning_01,N,2014_Jan_28_1816,P04,
stim_fb/ques.jpg,stim_fb/negf.jpg,stim_fb/posf.jpg,stim_01/f.jpg,stim_01/e.jpg,1,3,f,2,51,171,43,f,1,1.01637815054,01,01,60.0177553748,PLT_learning_01,N,2014_Jan_28_1816,P04,
stim_fb/ques.jpg,stim_fb/negf.jpg,stim_fb/posf.jpg,stim_01/a.jpg,stim_01/b.jpg,2,1,j,2,52,172,12,j,1,1.08300784205,01,01,60.0177553748,PLT_learning_01,N,2014_Jan_28_1816,P04,
stim_fb/ques.jpg,stim_fb/negf.jpg,stim_fb/posf.jpg,stim_01/a.jpg,stim_01/b.jpg,2,1,j,2,53,173,15,j,1,0.949764531094,01,01,60.0177553748,PLT_learning_01,N,2014_Jan_28_1816,P04,
stim_fb/ques.jpg,stim_fb/negf.jpg,stim_fb/posf.jpg,stim_01/a.jpg,stim_01/b.jpg,2,1,j,2,54,174,10,j,1,0.849809790904,01,01,60.0177553748,PLT_learning_01,N,2014_Jan_28_1816,P04,
stim_fb/ques.jpg,stim_fb/posf.jpg,stim_fb/negf.jpg,stim_01/a.jpg,stim_01/b.jpg,2,1,j,2,55,175,18,j,1,0.549850049248,01,01,60.0177553748,PLT_learning_01,N,2014_Jan_28_1816,P04,
stim_fb/ques.jpg,stim_fb/negf.jpg,stim_fb/posf.jpg,stim_01/e.jpg,stim_01/f.jpg,2,3,j,2,56,176,51,j,1,0.966410081127,01,01,60.0177553748,PLT_learning_01,N,2014_Jan_28_1816,P04,
stim_fb/ques.jpg,stim_fb/posf.jpg,stim_fb/negf.jpg,stim_01/a.jpg,stim_01/b.jpg,2,1,j,2,57,177,19,j,1,1.14966088075,01,01,60.0177553748,PLT_learning_01,N,2014_Jan_28_1816,P04,
stim_fb/ques.jpg,stim_fb/posf.jpg,stim_fb/negf.jpg,stim_01/d.jpg,stim_01/c.jpg,1,2,f,2,58,178,29,j,0,1.3829311148,01,01,60.0177553748,PLT_learning_01,N,2014_Jan_28_1816,P04,
stim_fb/ques.jpg,stim_fb/negf.jpg,stim_fb/posf.jpg,stim_01/b.jpg,stim_01/a.jpg,1,1,f,2,59,179,5,None,0,,01,01,60.0177553748,PLT_learning_01,N,2014_Jan_28_1816,P04,
stim_fb/ques.jpg,stim_fb/negf.jpg,stim_fb/posf.jpg,stim_01/b.jpg,stim_01/a.jpg,1,1,f,3,0,180,0,j,0,0.91649435117,01,01,60.0177553748,PLT_learning_01,N,2014_Jan_28_1816,P04,
stim_fb/ques.jpg,stim_fb/negf.jpg,stim_fb/posf.jpg,stim_01/f.jpg,stim_01/e.jpg,1,3,f,3,1,181,44,f,1,1.0663552274,01,01,60.0177553748,PLT_learning_01,N,2014_Jan_28_1816,P04,
stim_fb/ques.jpg,stim_fb/negf.jpg,stim_fb/posf.jpg,stim_01/a.jpg,stim_01/b.jpg,2,1,j,3,2,182,10,j,1,0.649824729137,01,01,60.0177553748,PLT_learning_01,N,2014_Jan_28_1816,P04,
stim_fb/ques.jpg,stim_fb/negf.jpg,stim_fb/posf.jpg,stim_01/a.jpg,stim_01/b.jpg,2,1,j,3,3,183,15,j,1,0.533196039127,01,01,60.0177553748,PLT_learning_01,N,2014_Jan_28_1816,P04,
stim_fb/ques.jpg,stim_fb/posf.jpg,stim_fb/negf.jpg,stim_01/d.jpg,stim_01/c.jpg,1,2,f,3,4,184,29,j,0,0.716360752175,01,01,60.0177553748,PLT_learning_01,N,2014_Jan_28_1816,P04,
stim_fb/ques.jpg,stim_fb/negf.jpg,stim_fb/posf.jpg,stim_01/e.jpg,stim_01/f.jpg,2,3,j,3,5,185,50,f,0,0.666365747626,01,01,60.0177553748,PLT_learning_01,N,2014_Jan_28_1816,P04,
stim_fb/ques.jpg,stim_fb/negf.jpg,stim_fb/posf.jpg,stim_01/b.jpg,stim_01/a.jpg,1,1,f,3,6,186,3,j,0,1.23297602574,01,01,60.0177553748,PLT_learning_01,N,2014_Jan_28_1816,P04,
stim_fb/ques.jpg,stim_fb/negf.jpg,stim_fb/posf.jpg,stim_01/a.jpg,stim_01/b.jpg,2,1,j,3,7,187,16,j,1,0.833116794611,01,01,60.0177553748,PLT_learning_01,N,2014_Jan_28_1816,P04,
stim_fb/ques.jpg,stim_fb/negf.jpg,stim_fb/posf.jpg,stim_01/f.jpg,stim_01/e.jpg,1,3,f,3,8,188,41,f,1,1.11630877963,01,01,60.0177553748,PLT_learning_01,N,2014_Jan_28_1816,P04,
stim_fb/ques.jpg,stim_fb/negf.jpg,stim_fb/posf.jpg,stim_01/a.jpg,stim_01/b.jpg,2,1,j,3,9,189,11,j,1,0.833129907294,01,01,60.0177553748,PLT_learning_01,N,2014_Jan_28_1816,P04,
stim_fb/ques.jpg,stim_fb/negf.jpg,stim_fb/posf.jpg,stim_01/e.jpg,stim_01/f.jpg,2,3,j,3,10,190,54,j,1,1.11635396125,01,01,60.0177553748,PLT_learning_01,N,2014_Jan_28_1816,P04,
stim_fb/ques.jpg,stim_fb/negf.jpg,stim_fb/posf.jpg,stim_01/a.jpg,stim_01/b.jpg,2,1,j,3,11,191,13,j,1,0.849783794107,01,01,60.0177553748,PLT_learning_01,N,2014_Jan_28_1816,P04,
stim_fb/ques.jpg,stim_fb/negf.jpg,stim_fb/posf.jpg,stim_01/d.jpg,stim_01/c.jpg,1,2,f,3,12,192,25,f,1,0.916414372824,01,01,60.0177553748,PLT_learning_01,N,2014_Jan_28_1816,P04,
stim_fb/ques.jpg,stim_fb/posf.jpg,stim_fb/negf.jpg,stim_01/f.jpg,stim_01/e.jpg,1,3,f,3,13,193,47,j,0,1.0163932211,01,01,60.0177553748,PLT_learning_01,N,2014_Jan_28_1816,P04,
stim_fb/ques.jpg,stim_fb/negf.jpg,stim_fb/posf.jpg,stim_01/f.jpg,stim_01/e.jpg,1,3,f,3,14,194,43,j,0,1.21635621386,01,01,60.0177553748,PLT_learning_01,N,2014_Jan_28_1816,P04,
stim_fb/ques.jpg,stim_fb/posf.jpg,stim_fb/negf.jpg,stim_01/e.jpg,stim_01/f.jpg,2,3,j,3,15,195,57,None,0,,01,01,60.0177553748,PLT_learning_01,N,2014_Jan_28_1816,P04,
stim_fb/ques.jpg,stim_fb/negf.jpg,stim_fb/posf.jpg,stim_01/e.jpg,stim_01/f.jpg,2,3,j,3,16,196,53,j,1,0.583156640927,01,01,60.0177553748,PLT_learning_01,N,2014_Jan_28_1816,P04,
stim_fb/ques.jpg,stim_fb/posf.jpg,stim_fb/negf.jpg,stim_01/b.jpg,stim_01/a.jpg,1,1,f,3,17,197,9,f,1,0.816413181856,01,01,60.0177553748,PLT_learning_01,N,2014_Jan_28_1816,P04,
stim_fb/ques.jpg,stim_fb/negf.jpg,stim_fb/posf.jpg,stim_01/d.jpg,stim_01/c.jpg,1,2,f,3,18,198,26,j,0,0.849807589417,01,01,60.0177553748,PLT_learning_01,N,2014_Jan_28_1816,P04,
stim_fb/ques.jpg,stim_fb/negf.jpg,stim_fb/posf.jpg,stim_01/f.jpg,stim_01/e.jpg,1,3,f,3,19,199,40,f,1,0.599869573913,01,01,60.0177553748,PLT_learning_01,N,2014_Jan_28_1816,P04,
stim_fb/ques.jpg,stim_fb/posf.jpg,stim_fb/negf.jpg,stim_01/a.jpg,stim_01/b.jpg,2,1,j,3,20,200,19,j,1,1.08305944166,01,01,60.0177553748,PLT_learning_01,N,2014_Jan_28_1816,P04,
stim_fb/ques.jpg,stim_fb/posf.jpg,stim_fb/negf.jpg,stim_01/f.jpg,stim_01/e.jpg,1,3,f,3,21,201,48,f,1,0.716496712055,01,01,60.0177553748,PLT_learning_01,N,2014_Jan_28_1816,P04,
stim_fb/ques.jpg,stim_fb/posf.jpg,stim_fb/negf.jpg,stim_01/f.jpg,stim_01/e.jpg,1,3,f,3,22,202,46,j,0,0.38325924166,01,01,60.0177553748,PLT_learning_01,N,2014_Jan_28_1816,P04,
stim_fb/ques.jpg,stim_fb/posf.jpg,stim_fb/negf.jpg,stim_01/c.jpg,stim_01/d.jpg,2,2,j,3,23,203,39,j,1,0.683126923858,01,01,60.0177553748,PLT_learning_01,N,2014_Jan_28_1816,P04,
stim_fb/ques.jpg,stim_fb/negf.jpg,stim_fb/posf.jpg,stim_01/c.jpg,stim_01/d.jpg,2,2,j,3,24,204,32,j,1,0.61643144638,01,01,60.0177553748,PLT_learning_01,N,2014_Jan_28_1816,P04,
stim_fb/ques.jpg,stim_fb/negf.jpg,stim_fb/posf.jpg,stim_01/a.jpg,stim_01/b.jpg,2,1,j,3,25,205,12,j,1,0.649825935143,01,01,60.0177553748,PLT_learning_01,N,2014_Jan_28_1816,P04,
stim_fb/ques.jpg,stim_fb/negf.jpg,stim_fb/posf.jpg,stim_01/f.jpg,stim_01/e.jpg,1,3,f,3,26,206,45,f,1,0.499896683484,01,01,60.0177553748,PLT_learning_01,N,2014_Jan_28_1816,P04,
stim_fb/ques.jpg,stim_fb/posf.jpg,stim_fb/negf.jpg,stim_01/d.jpg,stim_01/c.jpg,1,2,f,3,27,207,27,f,1,0.883094328614,01,01,60.0177553748,PLT_learning_01,N,2014_Jan_28_1816,P04,
stim_fb/ques.jpg,stim_fb/negf.jpg,stim_fb/posf.jpg,stim_01/a.jpg,stim_01/b.jpg,2,1,j,3,28,208,14,j,1,0.633169831806,01,01,60.0177553748,PLT_learning_01,N,2014_Jan_28_1816,P04,
stim_fb/ques.jpg,stim_fb/negf.jpg,stim_fb/posf.jpg,stim_01/d.jpg,stim_01/c.jpg,1,2,f,3,29,209,23,f,1,1.26631028338,01,01,60.0177553748,PLT_learning_01,N,2014_Jan_28_1816,P04,
stim_fb/ques.jpg,stim_fb/posf.jpg,stim_fb/negf.jpg,stim_01/b.jpg,stim_01/a.jpg,1,1,f,3,30,210,8,f,1,1.5994911948,01,01,60.0177553748,PLT_learning_01,N,2014_Jan_28_1816,P04,
stim_fb/ques.jpg,stim_fb/posf.jpg,stim_fb/negf.jpg,stim_01/f.jpg,stim_01/e.jpg,1,3,f,3,31,211,49,j,0,1.4329001406,01,01,60.0177553748,PLT_learning_01,N,2014_Jan_28_1816,P04,
stim_fb/ques.jpg,stim_fb/posf.jpg,stim_fb/negf.jpg,stim_01/e.jpg,stim_01/f.jpg,2,3,j,3,32,212,56,j,1,1.11637741671,01,01,60.0177553748,PLT_learning_01,N,2014_Jan_28_1816,P04,
stim_fb/ques.jpg,stim_fb/posf.jpg,stim_fb/negf.jpg,stim_01/c.jpg,stim_01/d.jpg,2,2,j,3,33,213,38,j,1,1.41625130638,01,01,60.0177553748,PLT_learning_01,N,2014_Jan_28_1816,P04,
stim_fb/ques.jpg,stim_fb/negf.jpg,stim_fb/posf.jpg,stim_01/a.jpg,stim_01/b.jpg,2,1,j,3,34,214,17,j,1,0.583173506966,01,01,60.0177553748,PLT_learning_01,N,2014_Jan_28_1816,P04,
stim_fb/ques.jpg,stim_fb/negf.jpg,stim_fb/posf.jpg,stim_01/d.jpg,stim_01/c.jpg,1,2,f,3,35,215,22,f,1,0.466568443846,01,01,60.0177553748,PLT_learning_01,N,2014_Jan_28_1816,P04,
stim_fb/ques.jpg,stim_fb/negf.jpg,stim_fb/posf.jpg,stim_01/b.jpg,stim_01/a.jpg,1,1,f,3,36,216,2,f,1,0.833136944835,01,01,60.0177553748,PLT_learning_01,N,2014_Jan_28_1816,P04,
stim_fb/ques.jpg,stim_fb/negf.jpg,stim_fb/posf.jpg,stim_01/e.jpg,stim_01/f.jpg,2,3,j,3,37,217,52,j,1,0.96639010233,01,01,60.0177553748,PLT_learning_01,N,2014_Jan_28_1816,P04,
stim_fb/ques.jpg,stim_fb/negf.jpg,stim_fb/posf.jpg,stim_01/b.jpg,stim_01/a.jpg,1,1,f,3,38,218,4,f,1,1.18299471733,01,01,60.0177553748,PLT_learning_01,N,2014_Jan_28_1816,P04,
stim_fb/ques.jpg,stim_fb/negf.jpg,stim_fb/posf.jpg,stim_01/c.jpg,stim_01/d.jpg,2,2,j,3,39,219,35,j,1,1.04974809813,01,01,60.0177553748,PLT_learning_01,N,2014_Jan_28_1816,P04,
stim_fb/ques.jpg,stim_fb/posf.jpg,stim_fb/negf.jpg,stim_01/c.jpg,stim_01/d.jpg,2,2,j,3,40,220,37,j,1,1.1329667807,01,01,60.0177553748,PLT_learning_01,N,2014_Jan_28_1816,P04,
stim_fb/ques.jpg,stim_fb/negf.jpg,stim_fb/posf.jpg,stim_01/c.jpg,stim_01/d.jpg,2,2,j,3,41,221,36,j,1,0.999762931106,01,01,60.0177553748,PLT_learning_01,N,2014_Jan_28_1816,P04,
stim_fb/ques.jpg,stim_fb/negf.jpg,stim_fb/posf.jpg,stim_01/f.jpg,stim_01/e.jpg,1,3,f,3,42,222,42,j,0,1.04966320855,01,01,60.0177553748,PLT_learning_01,N,2014_Jan_28_1816,P04,
stim_fb/ques.jpg,stim_fb/negf.jpg,stim_fb/posf.jpg,stim_01/b.jpg,stim_01/a.jpg,1,1,f,3,43,223,7,f,1,1.21630343531,01,01,60.0177553748,PLT_learning_01,N,2014_Jan_28_1816,P04,
stim_fb/ques.jpg,stim_fb/negf.jpg,stim_fb/posf.jpg,stim_01/c.jpg,stim_01/d.jpg,2,2,j,3,44,224,30,j,1,0.716456736416,01,01,60.0177553748,PLT_learning_01,N,2014_Jan_28_1816,P04,
stim_fb/ques.jpg,stim_fb/negf.jpg,stim_fb/posf.jpg,stim_01/b.jpg,stim_01/a.jpg,1,1,f,3,45,225,6,j,0,1.36632800054,01,01,60.0177553748,PLT_learning_01,N,2014_Jan_28_1816,P04,
stim_fb/ques.jpg,stim_fb/negf.jpg,stim_fb/posf.jpg,stim_01/c.jpg,stim_01/d.jpg,2,2,j,3,46,226,33,j,1,0.633226778746,01,01,60.0177553748,PLT_learning_01,N,2014_Jan_28_1816,P04,
stim_fb/ques.jpg,stim_fb/negf.jpg,stim_fb/posf.jpg,stim_01/c.jpg,stim_01/d.jpg,2,2,j,3,47,227,34,j,1,1.06636064992,01,01,60.0177553748,PLT_learning_01,N,2014_Jan_28_1816,P04,
stim_fb/ques.jpg,stim_fb/negf.jpg,stim_fb/posf.jpg,stim_01/d.jpg,stim_01/c.jpg,1,2,f,3,48,228,21,f,1,0.733133140352,01,01,60.0177553748,PLT_learning_01,N,2014_Jan_28_1816,P04,
stim_fb/ques.jpg,stim_fb/negf.jpg,stim_fb/posf.jpg,stim_01/d.jpg,stim_01/c.jpg,1,2,f,3,49,229,24,f,1,0.716482080586,01,01,60.0177553748,PLT_learning_01,N,2014_Jan_28_1816,P04,
stim_fb/ques.jpg,stim_fb/negf.jpg,stim_fb/posf.jpg,stim_01/e.jpg,stim_01/f.jpg,2,3,j,3,50,230,55,j,1,0.866439088428,01,01,60.0177553748,PLT_learning_01,N,2014_Jan_28_1816,P04,
stim_fb/ques.jpg,stim_fb/posf.jpg,stim_fb/negf.jpg,stim_01/a.jpg,stim_01/b.jpg,2,1,j,3,51,231,18,j,1,0.783143404937,01,01,60.0177553748,PLT_learning_01,N,2014_Jan_28_1816,P04,
stim_fb/ques.jpg,stim_fb/negf.jpg,stim_fb/posf.jpg,stim_01/b.jpg,stim_01/a.jpg,1,1,f,3,52,232,5,j,0,1.33297273855,01,01,60.0177553748,PLT_learning_01,N,2014_Jan_28_1816,P04,
stim_fb/ques.jpg,stim_fb/negf.jpg,stim_fb/posf.jpg,stim_01/e.jpg,stim_01/f.jpg,2,3,j,3,53,233,51,j,1,0.749804440568,01,01,60.0177553748,PLT_learning_01,N,2014_Jan_28_1816,P04,
stim_fb/ques.jpg,stim_fb/negf.jpg,stim_fb/posf.jpg,stim_01/b.jpg,stim_01/a.jpg,1,1,f,3,54,234,1,j,0,1.26633820498,01,01,60.0177553748,PLT_learning_01,N,2014_Jan_28_1816,P04,
stim_fb/ques.jpg,stim_fb/negf.jpg,stim_fb/posf.jpg,stim_01/d.jpg,stim_01/c.jpg,1,2,f,3,55,235,20,f,1,0.833090842926,01,01,60.0177553748,PLT_learning_01,N,2014_Jan_28_1816,P04,
stim_fb/ques.jpg,stim_fb/posf.jpg,stim_fb/negf.jpg,stim_01/d.jpg,stim_01/c.jpg,1,2,f,3,56,236,28,f,1,0.933078936249,01,01,60.0177553748,PLT_learning_01,N,2014_Jan_28_1816,P04,
stim_fb/ques.jpg,stim_fb/negf.jpg,stim_fb/posf.jpg,stim_01/c.jpg,stim_01/d.jpg,2,2,j,3,57,237,31,j,1,0.716469515267,01,01,60.0177553748,PLT_learning_01,N,2014_Jan_28_1816,P04,
stim_fb/ques.jpg,stim_fb/posf.jpg,stim_fb/negf.jpg,stim_01/e.jpg,stim_01/f.jpg,2,3,j,3,58,238,58,f,0,1.03304191397,01,01,60.0177553748,PLT_learning_01,N,2014_Jan_28_1816,P04,
stim_fb/ques.jpg,stim_fb/posf.jpg,stim_fb/negf.jpg,stim_01/e.jpg,stim_01/f.jpg,2,3,j,3,59,239,59,j,1,0.783128656175,01,01,60.0177553748,PLT_learning_01,N,2014_Jan_28_1816,P04,
stim_fb/ques.jpg,stim_fb/negf.jpg,stim_fb/posf.jpg,stim_01/b.jpg,stim_01/a.jpg,1,1,f,4,0,240,3,j,0,0.566548564297,01,01,60.0177553748,PLT_learning_01,N,2014_Jan_28_1816,P04,
stim_fb/ques.jpg,stim_fb/negf.jpg,stim_fb/posf.jpg,stim_01/c.jpg,stim_01/d.jpg,2,2,j,4,1,241,31,j,1,0.783041604199,01,01,60.0177553748,PLT_learning_01,N,2014_Jan_28_1816,P04,
stim_fb/ques.jpg,stim_fb/negf.jpg,stim_fb/posf.jpg,stim_01/d.jpg,stim_01/c.jpg,1,2,f,4,2,242,21,f,1,0.749813595387,01,01,60.0177553748,PLT_learning_01,N,2014_Jan_28_1816,P04,
stim_fb/ques.jpg,stim_fb/negf.jpg,stim_fb/posf.jpg,stim_01/f.jpg,stim_01/e.jpg,1,3,f,4,3,243,45,j,0,1.29961875475,01,01,60.0177553748,PLT_learning_01,N,2014_Jan_28_1816,P04,
stim_fb/ques.jpg,stim_fb/negf.jpg,stim_fb/posf.jpg,stim_01/b.jpg,stim_01/a.jpg,1,1,f,4,4,244,7,j,0,1.04968870008,01,01,60.0177553748,PLT_learning_01,N,2014_Jan_28_1816,P04,
stim_fb/ques.jpg,stim_fb/negf.jpg,stim_fb/posf.jpg,stim_01/d.jpg,stim_01/c.jpg,1,2,f,4,5,245,22,f,1,0.716475566349,01,01,60.0177553748,PLT_learning_01,N,2014_Jan_28_1816,P04,
stim_fb/ques.jpg,stim_fb/negf.jpg,stim_fb/posf.jpg,stim_01/f.jpg,stim_01/e.jpg,1,3,f,4,6,246,44,f,1,0.899734892219,01,01,60.0177553748,PLT_learning_01,N,2014_Jan_28_1816,P04,
stim_fb/ques.jpg,stim_fb/negf.jpg,stim_fb/posf.jpg,stim_01/b.jpg,stim_01/a.jpg,1,1,f,4,7,247,4,f,1,0.583206345817,01,01,60.0177553748,PLT_learning_01,N,2014_Jan_28_1816,P04,
stim_fb/ques.jpg,stim_fb/negf.jpg,stim_fb/posf.jpg,stim_01/a.jpg,stim_01/b.jpg,2,1,j,4,8,248,13,j,1,0.516537126789,01,01,60.0177553748,PLT_learning_01,N,2014_Jan_28_1816,P04,
stim_fb/ques.jpg,stim_fb/negf.jpg,stim_fb/posf.jpg,stim_01/d.jpg,stim_01/c.jpg,1,2,f,4,9,249,20,f,1,0.666482008406,01,01,60.0177553748,PLT_learning_01,N,2014_Jan_28_1816,P04,
stim_fb/ques.jpg,stim_fb/negf.jpg,stim_fb/posf.jpg,stim_01/c.jpg,stim_01/d.jpg,2,2,j,4,10,250,35,j,1,0.649841171119,01,01,60.0177553748,PLT_learning_01,N,2014_Jan_28_1816,P04,
stim_fb/ques.jpg,stim_fb/negf.jpg,stim_fb/posf.jpg,stim_01/a.jpg,stim_01/b.jpg,2,1,j,4,11,251,15,j,1,1.18315366651,01,01,60.0177553748,PLT_learning_01,N,2014_Jan_28_1816,P04,
stim_fb/ques.jpg,stim_fb/negf.jpg,stim_fb/posf.jpg,stim_01/f.jpg,stim_01/e.jpg,1,3,f,4,12,252,43,f,1,1.04965917249,01,01,60.0177553748,PLT_learning_01,N,2014_Jan_28_1816,P04,
stim_fb/ques.jpg,stim_fb/posf.jpg,stim_fb/negf.jpg,stim_01/e.jpg,stim_01/f.jpg,2,3,j,4,13,253,56,j,1,1.01628758882,01,01,60.0177553748,PLT_learning_01,N,2014_Jan_28_1816,P04,
stim_fb/ques.jpg,stim_fb/negf.jpg,stim_fb/posf.jpg,stim_01/a.jpg,stim_01/b.jpg,2,1,j,4,14,254,10,j,1,0.783119360005,01,01,60.0177553748,PLT_learning_01,N,2014_Jan_28_1816,P04,
stim_fb/ques.jpg,stim_fb/negf.jpg,stim_fb/posf.jpg,stim_01/e.jpg,stim_01/f.jpg,2,3,j,4,15,255,53,j,1,0.966413557793,01,01,60.0177553748,PLT_learning_01,N,2014_Jan_28_1816,P04,
stim_fb/ques.jpg,stim_fb/negf.jpg,stim_fb/posf.jpg,stim_01/c.jpg,stim_01/d.jpg,2,2,j,4,16,256,30,j,1,0.699777505432,01,01,60.0177553748,PLT_learning_01,N,2014_Jan_28_1816,P04,
stim_fb/ques.jpg,stim_fb/negf.jpg,stim_fb/posf.jpg,stim_01/d.jpg,stim_01/c.jpg,1,2,f,4,17,257,23,f,1,0.699877712198,01,01,60.0177553748,PLT_learning_01,N,2014_Jan_28_1816,P04,
stim_fb/ques.jpg,stim_fb/negf.jpg,stim_fb/posf.jpg,stim_01/f.jpg,stim_01/e.jpg,1,3,f,4,18,258,40,f,1,1.21632255998,01,01,60.0177553748,PLT_learning_01,N,2014_Jan_28_1816,P04,
stim_fb/ques.jpg,stim_fb/posf.jpg,stim_fb/negf.jpg,stim_01/a.jpg,stim_01/b.jpg,2,1,j,4,19,259,18,j,1,0.66651609236,01,01,60.0177553748,PLT_learning_01,N,2014_Jan_28_1816,P04,
stim_fb/ques.jpg,stim_fb/posf.jpg,stim_fb/negf.jpg,stim_01/f.jpg,stim_01/e.jpg,1,3,f,4,20,260,49,f,1,0.949736254615,01,01,60.0177553748,PLT_learning_01,N,2014_Jan_28_1816,P04,
stim_fb/ques.jpg,stim_fb/negf.jpg,stim_fb/posf.jpg,stim_01/a.jpg,stim_01/b.jpg,2,1,j,4,21,261,17,j,1,0.599849826693,01,01,60.0177553748,PLT_learning_01,N,2014_Jan_28_1816,P04,
stim_fb/ques.jpg,stim_fb/negf.jpg,stim_fb/posf.jpg,stim_01/f.jpg,stim_01/e.jpg,1,3,f,4,22,262,42,f,1,0.866437455358,01,01,60.0177553748,PLT_learning_01,N,2014_Jan_28_1816,P04,
stim_fb/ques.jpg,stim_fb/negf.jpg,stim_fb/posf.jpg,stim_01/d.jpg,stim_01/c.jpg,1,2,f,4,23,263,25,f,1,0.816451822167,01,01,60.0177553748,PLT_learning_01,N,2014_Jan_28_1816,P04,
stim_fb/ques.jpg,stim_fb/posf.jpg,stim_fb/negf.jpg,stim_01/f.jpg,stim_01/e.jpg,1,3,f,4,24,264,46,f,1,0.93309196773,01,01,60.0177553748,PLT_learning_01,N,2014_Jan_28_1816,P04,
stim_fb/ques.jpg,stim_fb/posf.jpg,stim_fb/negf.jpg,stim_01/e.jpg,stim_01/f.jpg,2,3,j,4,25,265,57,j,1,0.766472534793,01,01,60.0177553748,PLT_learning_01,N,2014_Jan_28_1816,P04,
stim_fb/ques.jpg,stim_fb/posf.jpg,stim_fb/negf.jpg,stim_01/d.jpg,stim_01/c.jpg,1,2,f,4,26,266,27,f,1,0.683174956579,01,01,60.0177553748,PLT_learning_01,N,2014_Jan_28_1816,P04,
stim_fb/ques.jpg,stim_fb/negf.jpg,stim_fb/posf.jpg,stim_01/e.jpg,stim_01/f.jpg,2,3,j,4,27,267,50,j,1,0.833124060721,01,01,60.0177553748,PLT_learning_01,N,2014_Jan_28_1816,P04,
stim_fb/ques.jpg,stim_fb/negf.jpg,stim_fb/posf.jpg,stim_01/b.jpg,stim_01/a.jpg,1,1,f,4,28,268,0,j,0,0.949813547267,01,01,60.0177553748,PLT_learning_01,N,2014_Jan_28_1816,P04,
stim_fb/ques.jpg,stim_fb/posf.jpg,stim_fb/negf.jpg,stim_01/c.jpg,stim_01/d.jpg,2,2,j,4,29,269,38,j,1,0.616523129901,01,01,60.0177553748,PLT_learning_01,N,2014_Jan_28_1816,P04,
stim_fb/ques.jpg,stim_fb/negf.jpg,stim_fb/posf.jpg,stim_01/c.jpg,stim_01/d.jpg,2,2,j,4,30,270,36,j,1,0.633163287494,01,01,60.0177553748,PLT_learning_01,N,2014_Jan_28_1816,P04,
stim_fb/ques.jpg,stim_fb/negf.jpg,stim_fb/posf.jpg,stim_01/b.jpg,stim_01/a.jpg,1,1,f,4,31,271,5,f,1,0.633202953361,01,01,60.0177553748,PLT_learning_01,N,2014_Jan_28_1816,P04,
stim_fb/ques.jpg,stim_fb/posf.jpg,stim_fb/negf.jpg,stim_01/f.jpg,stim_01/e.jpg,1,3,f,4,32,272,47,f,1,0.833109011211,01,01,60.0177553748,PLT_learning_01,N,2014_Jan_28_1816,P04,
stim_fb/ques.jpg,stim_fb/posf.jpg,stim_fb/negf.jpg,stim_01/b.jpg,stim_01/a.jpg,1,1,f,4,33,273,9,f,1,0.683167326561,01,01,60.0177553748,PLT_learning_01,N,2014_Jan_28_1816,P04,
stim_fb/ques.jpg,stim_fb/negf.jpg,stim_fb/posf.jpg,stim_01/a.jpg,stim_01/b.jpg,2,1,j,4,34,274,16,j,1,0.533197684228,01,01,60.0177553748,PLT_learning_01,N,2014_Jan_28_1816,P04,
stim_fb/ques.jpg,stim_fb/negf.jpg,stim_fb/posf.jpg,stim_01/c.jpg,stim_01/d.jpg,2,2,j,4,35,275,32,j,1,0.683193013587,01,01,60.0177553748,PLT_learning_01,N,2014_Jan_28_1816,P04,
stim_fb/ques.jpg,stim_fb/negf.jpg,stim_fb/posf.jpg,stim_01/e.jpg,stim_01/f.jpg,2,3,j,4,36,276,51,j,1,0.749814843497,01,01,60.0177553748,PLT_learning_01,N,2014_Jan_28_1816,P04,
stim_fb/ques.jpg,stim_fb/posf.jpg,stim_fb/negf.jpg,stim_01/e.jpg,stim_01/f.jpg,2,3,j,4,37,277,59,j,1,0.61652041714,01,01,60.0177553748,PLT_learning_01,N,2014_Jan_28_1816,P04,
stim_fb/ques.jpg,stim_fb/negf.jpg,stim_fb/posf.jpg,stim_01/b.jpg,stim_01/a.jpg,1,1,f,4,38,278,6,f,1,0.733137426034,01,01,60.0177553748,PLT_learning_01,N,2014_Jan_28_1816,P04,
stim_fb/ques.jpg,stim_fb/negf.jpg,stim_fb/posf.jpg,stim_01/a.jpg,stim_01/b.jpg,2,1,j,4,39,279,11,j,1,0.733112310434,01,01,60.0177553748,PLT_learning_01,N,2014_Jan_28_1816,P04,
stim_fb/ques.jpg,stim_fb/posf.jpg,stim_fb/negf.jpg,stim_01/c.jpg,stim_01/d.jpg,2,2,j,4,40,280,37,j,1,0.716487737686,01,01,60.0177553748,PLT_learning_01,N,2014_Jan_28_1816,P04,
stim_fb/ques.jpg,stim_fb/negf.jpg,stim_fb/posf.jpg,stim_01/d.jpg,stim_01/c.jpg,1,2,f,4,41,281,24,f,1,0.699825408832,01,01,60.0177553748,PLT_learning_01,N,2014_Jan_28_1816,P04,
stim_fb/ques.jpg,stim_fb/negf.jpg,stim_fb/posf.jpg,stim_01/b.jpg,stim_01/a.jpg,1,1,f,4,42,282,1,f,1,0.783123738919,01,01,60.0177553748,PLT_learning_01,N,2014_Jan_28_1816,P04,
stim_fb/ques.jpg,stim_fb/negf.jpg,stim_fb/posf.jpg,stim_01/e.jpg,stim_01/f.jpg,2,3,j,4,43,283,55,j,1,0.516538877151,01,01,60.0177553748,PLT_learning_01,N,2014_Jan_28_1816,P04,
stim_fb/ques.jpg,stim_fb/posf.jpg,stim_fb/negf.jpg,stim_01/b.jpg,stim_01/a.jpg,1,1,f,4,44,284,8,f,1,0.833121802092,01,01,60.0177553748,PLT_learning_01,N,2014_Jan_28_1816,P04,
stim_fb/ques.jpg,stim_fb/posf.jpg,stim_fb/negf.jpg,stim_01/f.jpg,stim_01/e.jpg,1,3,f,4,45,285,48,f,1,0.79977561071,01,01,60.0177553748,PLT_learning_01,N,2014_Jan_28_1816,P04,
stim_fb/ques.jpg,stim_fb/negf.jpg,stim_fb/posf.jpg,stim_01/d.jpg,stim_01/c.jpg,1,2,f,4,46,286,26,f,1,0.849768440839,01,01,60.0177553748,PLT_learning_01,N,2014_Jan_28_1816,P04,
stim_fb/ques.jpg,stim_fb/negf.jpg,stim_fb/posf.jpg,stim_01/e.jpg,stim_01/f.jpg,2,3,j,4,47,287,52,j,1,0.633190273757,01,01,60.0177553748,PLT_learning_01,N,2014_Jan_28_1816,P04,
stim_fb/ques.jpg,stim_fb/posf.jpg,stim_fb/negf.jpg,stim_01/a.jpg,stim_01/b.jpg,2,1,j,4,48,288,19,j,1,0.866412297652,01,01,60.0177553748,PLT_learning_01,N,2014_Jan_28_1816,P04,
stim_fb/ques.jpg,stim_fb/negf.jpg,stim_fb/posf.jpg,stim_01/c.jpg,stim_01/d.jpg,2,2,j,4,49,289,33,j,1,0.749781848257,01,01,60.0177553748,PLT_learning_01,N,2014_Jan_28_1816,P04,
stim_fb/ques.jpg,stim_fb/posf.jpg,stim_fb/negf.jpg,stim_01/d.jpg,stim_01/c.jpg,1,2,f,4,50,290,28,f,1,0.733129756919,01,01,60.0177553748,PLT_learning_01,N,2014_Jan_28_1816,P04,
stim_fb/ques.jpg,stim_fb/negf.jpg,stim_fb/posf.jpg,stim_01/e.jpg,stim_01/f.jpg,2,3,j,4,51,291,54,j,1,0.666502994714,01,01,60.0177553748,PLT_learning_01,N,2014_Jan_28_1816,P04,
stim_fb/ques.jpg,stim_fb/negf.jpg,stim_fb/posf.jpg,stim_01/f.jpg,stim_01/e.jpg,1,3,f,4,52,292,41,f,1,0.99971830287,01,01,60.0177553748,PLT_learning_01,N,2014_Jan_28_1816,P04,
stim_fb/ques.jpg,stim_fb/negf.jpg,stim_fb/posf.jpg,stim_01/c.jpg,stim_01/d.jpg,2,2,j,4,53,293,34,j,1,1.13302355621,01,01,60.0177553748,PLT_learning_01,N,2014_Jan_28_1816,P04,
stim_fb/ques.jpg,stim_fb/negf.jpg,stim_fb/posf.jpg,stim_01/a.jpg,stim_01/b.jpg,2,1,j,4,54,294,14,j,1,0.533168439335,01,01,60.0177553748,PLT_learning_01,N,2014_Jan_28_1816,P04,
stim_fb/ques.jpg,stim_fb/negf.jpg,stim_fb/posf.jpg,stim_01/a.jpg,stim_01/b.jpg,2,1,j,4,55,295,12,j,1,0.666482633965,01,01,60.0177553748,PLT_learning_01,N,2014_Jan_28_1816,P04,
stim_fb/ques.jpg,stim_fb/negf.jpg,stim_fb/posf.jpg,stim_01/b.jpg,stim_01/a.jpg,1,1,f,4,56,296,2,j,0,1.11629461733,01,01,60.0177553748,PLT_learning_01,N,2014_Jan_28_1816,P04,
stim_fb/ques.jpg,stim_fb/posf.jpg,stim_fb/negf.jpg,stim_01/d.jpg,stim_01/c.jpg,1,2,f,4,57,297,29,f,1,0.599896906038,01,01,60.0177553748,PLT_learning_01,N,2014_Jan_28_1816,P04,
stim_fb/ques.jpg,stim_fb/posf.jpg,stim_fb/negf.jpg,stim_01/e.jpg,stim_01/f.jpg,2,3,j,4,58,298,58,j,1,0.616486321155,01,01,60.0177553748,PLT_learning_01,N,2014_Jan_28_1816,P04,
stim_fb/ques.jpg,stim_fb/posf.jpg,stim_fb/negf.jpg,stim_01/c.jpg,stim_01/d.jpg,2,2,j,4,59,299,39,j,1,1.46622386599,01,01,60.0177553748,PLT_learning_01,N,2014_Jan_28_1816,P04,
stim_fb/ques.jpg,stim_fb/posf.jpg,stim_fb/negf.jpg,stim_01/b.jpg,stim_01/a.jpg,1,1,f,5,0,300,8,f,1,1.64948483696,01,01,60.0177553748,PLT_learning_01,N,2014_Jan_28_1816,P04,
stim_fb/ques.jpg,stim_fb/negf.jpg,stim_fb/posf.jpg,stim_01/c.jpg,stim_01/d.jpg,2,2,j,5,1,301,32,j,1,0.649839026774,01,01,60.0177553748,PLT_learning_01,N,2014_Jan_28_1816,P04,
stim_fb/ques.jpg,stim_fb/negf.jpg,stim_fb/posf.jpg,stim_01/b.jpg,stim_01/a.jpg,1,1,f,5,2,302,5,f,1,0.716477843024,01,01,60.0177553748,PLT_learning_01,N,2014_Jan_28_1816,P04,
stim_fb/ques.jpg,stim_fb/negf.jpg,stim_fb/posf.jpg,stim_01/d.jpg,stim_01/c.jpg,1,2,f,5,3,303,20,f,1,0.599854761994,01,01,60.0177553748,PLT_learning_01,N,2014_Jan_28_1816,P04,
stim_fb/ques.jpg,stim_fb/negf.jpg,stim_fb/posf.jpg,stim_01/d.jpg,stim_01/c.jpg,1,2,f,5,4,304,22,f,1,0.63316827693,01,01,60.0177553748,PLT_learning_01,N,2014_Jan_28_1816,P04,
stim_fb/ques.jpg,stim_fb/posf.jpg,stim_fb/negf.jpg,stim_01/d.jpg,stim_01/c.jpg,1,2,f,5,5,305,28,f,1,0.566532230585,01,01,60.0177553748,PLT_learning_01,N,2014_Jan_28_1816,P04,
stim_fb/ques.jpg,stim_fb/posf.jpg,stim_fb/negf.jpg,stim_01/e.jpg,stim_01/f.jpg,2,3,j,5,6,306,59,j,1,0.716480164811,01,01,60.0177553748,PLT_learning_01,N,2014_Jan_28_1816,P04,
stim_fb/ques.jpg,stim_fb/negf.jpg,stim_fb/posf.jpg,stim_01/e.jpg,stim_01/f.jpg,2,3,j,5,7,307,50,j,1,0.599859354441,01,01,60.0177553748,PLT_learning_01,N,2014_Jan_28_1816,P04,
stim_fb/ques.jpg,stim_fb/negf.jpg,stim_fb/posf.jpg,stim_01/c.jpg,stim_01/d.jpg,2,2,j,5,8,308,36,j,1,0.583123251705,01,01,60.0177553748,PLT_learning_01,N,2014_Jan_28_1816,P04,
stim_fb/ques.jpg,stim_fb/negf.jpg,stim_fb/posf.jpg,stim_01/a.jpg,stim_01/b.jpg,2,1,j,5,9,309,15,j,1,1.01640288419,01,01,60.0177553748,PLT_learning_01,N,2014_Jan_28_1816,P04,
stim_fb/ques.jpg,stim_fb/negf.jpg,stim_fb/posf.jpg,stim_01/d.jpg,stim_01/c.jpg,1,2,f,5,10,310,24,f,1,0.649822425395,01,01,60.0177553748,PLT_learning_01,N,2014_Jan_28_1816,P04,
stim_fb/ques.jpg,stim_fb/negf.jpg,stim_fb/posf.jpg,stim_01/a.jpg,stim_01/b.jpg,2,1,j,5,11,311,12,j,1,0.549863237118,01,01,60.0177553748,PLT_learning_01,N,2014_Jan_28_1816,P04,
stim_fb/ques.jpg,stim_fb/posf.jpg,stim_fb/negf.jpg,stim_01/e.jpg,stim_01/f.jpg,2,3,j,5,12,312,57,j,1,0.766435467403,01,01,60.0177553748,PLT_learning_01,N,2014_Jan_28_1816,P04,
stim_fb/ques.jpg,stim_fb/negf.jpg,stim_fb/posf.jpg,stim_01/f.jpg,stim_01/e.jpg,1,3,f,5,13,313,43,f,1,0.616511490891,01,01,60.0177553748,PLT_learning_01,N,2014_Jan_28_1816,P04,
stim_fb/ques.jpg,stim_fb/negf.jpg,stim_fb/posf.jpg,stim_01/b.jpg,stim_01/a.jpg,1,1,f,5,14,314,0,f,1,0.649830846385,01,01,60.0177553748,PLT_learning_01,N,2014_Jan_28_1816,P04,
stim_fb/ques.jpg,stim_fb/negf.jpg,stim_fb/posf.jpg,stim_01/f.jpg,stim_01/e.jpg,1,3,f,5,15,315,41,f,1,1.08299174292,01,01,60.0177553748,PLT_learning_01,N,2014_Jan_28_1816,P04,
stim_fb/ques.jpg,stim_fb/negf.jpg,stim_fb/posf.jpg,stim_01/c.jpg,stim_01/d.jpg,2,2,j,5,16,316,34,j,1,0.633174520492,01,01,60.0177553748,PLT_learning_01,N,2014_Jan_28_1816,P04,
stim_fb/ques.jpg,stim_fb/negf.jpg,stim_fb/posf.jpg,stim_01/f.jpg,stim_01/e.jpg,1,3,f,5,17,317,44,f,1,0.716468616026,01,01,60.0177553748,PLT_learning_01,N,2014_Jan_28_1816,P04,
stim_fb/ques.jpg,stim_fb/negf.jpg,stim_fb/posf.jpg,stim_01/d.jpg,stim_01/c.jpg,1,2,f,5,18,318,23,f,1,0.716464462673,01,01,60.0177553748,PLT_learning_01,N,2014_Jan_28_1816,P04,
stim_fb/ques.jpg,stim_fb/negf.jpg,stim_fb/posf.jpg,stim_01/b.jpg,stim_01/a.jpg,1,1,f,5,19,319,6,f,1,0.816414225457,01,01,60.0177553748,PLT_learning_01,N,2014_Jan_28_1816,P04,
stim_fb/ques.jpg,stim_fb/negf.jpg,stim_fb/posf.jpg,stim_01/e.jpg,stim_01/f.jpg,2,3,j,5,20,320,52,j,1,0.883099829325,01,01,60.0177553748,PLT_learning_01,N,2014_Jan_28_1816,P04,
stim_fb/ques.jpg,stim_fb/posf.jpg,stim_fb/negf.jpg,stim_01/e.jpg,stim_01/f.jpg,2,3,j,5,21,321,56,f,0,1.06638705874,01,01,60.0177553748,PLT_learning_01,N,2014_Jan_28_1816,P04,
stim_fb/ques.jpg,stim_fb/negf.jpg,stim_fb/posf.jpg,stim_01/b.jpg,stim_01/a.jpg,1,1,f,5,22,322,2,f,1,1.16633585311,01,01,60.0177553748,PLT_learning_01,N,2014_Jan_28_1816,P04,
stim_fb/ques.jpg,stim_fb/posf.jpg,stim_fb/negf.jpg,stim_01/c.jpg,stim_01/d.jpg,2,2,j,5,23,323,39,j,1,0.76648276028,01,01,60.0177553748,PLT_learning_01,N,2014_Jan_28_1816,P04,
stim_fb/ques.jpg,stim_fb/negf.jpg,stim_fb/posf.jpg,stim_01/a.jpg,stim_01/b.jpg,2,1,j,5,24,324,13,j,1,0.649824359215,01,01,60.0177553748,PLT_learning_01,N,2014_Jan_28_1816,P04,
stim_fb/ques.jpg,stim_fb/negf.jpg,stim_fb/posf.jpg,stim_01/a.jpg,stim_01/b.jpg,2,1,j,5,25,325,17,j,1,0.816560458944,01,01,60.0177553748,PLT_learning_01,N,2014_Jan_28_1816,P04,
stim_fb/ques.jpg,stim_fb/posf.jpg,stim_fb/negf.jpg,stim_01/c.jpg,stim_01/d.jpg,2,2,j,5,26,326,37,j,1,0.633126388524,01,01,60.0177553748,PLT_learning_01,N,2014_Jan_28_1816,P04,
stim_fb/ques.jpg,stim_fb/negf.jpg,stim_fb/posf.jpg,stim_01/f.jpg,stim_01/e.jpg,1,3,f,5,27,327,42,f,1,0.783122899828,01,01,60.0177553748,PLT_learning_01,N,2014_Jan_28_1816,P04,
stim_fb/ques.jpg,stim_fb/negf.jpg,stim_fb/posf.jpg,stim_01/c.jpg,stim_01/d.jpg,2,2,j,5,28,328,31,j,1,0.599884283577,01,01,60.0177553748,PLT_learning_01,N,2014_Jan_28_1816,P04,
stim_fb/ques.jpg,stim_fb/posf.jpg,stim_fb/negf.jpg,stim_01/d.jpg,stim_01/c.jpg,1,2,f,5,29,329,27,f,1,0.699804813498,01,01,60.0177553748,PLT_learning_01,N,2014_Jan_28_1816,P04,
stim_fb/ques.jpg,stim_fb/negf.jpg,stim_fb/posf.jpg,stim_01/e.jpg,stim_01/f.jpg,2,3,j,5,30,330,51,j,1,0.76646349426,01,01,60.0177553748,PLT_learning_01,N,2014_Jan_28_1816,P04,
stim_fb/ques.jpg,stim_fb/negf.jpg,stim_fb/posf.jpg,stim_01/f.jpg,stim_01/e.jpg,1,3,f,5,31,331,40,f,1,1.14967613477,01,01,60.0177553748,PLT_learning_01,N,2014_Jan_28_1816,P04,
stim_fb/ques.jpg,stim_fb/negf.jpg,stim_fb/posf.jpg,stim_01/f.jpg,stim_01/e.jpg,1,3,f,5,32,332,45,f,1,1.16632133593,01,01,60.0177553748,PLT_learning_01,N,2014_Jan_28_1816,P04,
stim_fb/ques.jpg,stim_fb/negf.jpg,stim_fb/posf.jpg,stim_01/a.jpg,stim_01/b.jpg,2,1,j,5,33,333,14,j,1,0.616534245607,01,01,60.0177553748,PLT_learning_01,N,2014_Jan_28_1816,P04,
stim_fb/ques.jpg,stim_fb/negf.jpg,stim_fb/posf.jpg,stim_01/a.jpg,stim_01/b.jpg,2,1,j,5,34,334,10,j,1,0.783142755318,01,01,60.0177553748,PLT_learning_01,N,2014_Jan_28_1816,P04,
stim_fb/ques.jpg,stim_fb/posf.jpg,stim_fb/negf.jpg,stim_01/f.jpg,stim_01/e.jpg,1,3,f,5,35,335,49,f,1,0.933075282141,01,01,60.0177553748,PLT_learning_01,N,2014_Jan_28_1816,P04,
stim_fb/ques.jpg,stim_fb/negf.jpg,stim_fb/posf.jpg,stim_01/b.jpg,stim_01/a.jpg,1,1,f,5,36,336,7,f,1,1.28292848324,01,01,60.0177553748,PLT_learning_01,N,2014_Jan_28_1816,P04,
stim_fb/ques.jpg,stim_fb/negf.jpg,stim_fb/posf.jpg,stim_01/a.jpg,stim_01/b.jpg,2,1,j,5,37,337,16,j,1,0.683185774543,01,01,60.0177553748,PLT_learning_01,N,2014_Jan_28_1816,P04,
stim_fb/ques.jpg,stim_fb/posf.jpg,stim_fb/negf.jpg,stim_01/e.jpg,stim_01/f.jpg,2,3,j,5,38,338,58,j,1,0.799787995579,01,01,60.0177553748,PLT_learning_01,N,2014_Jan_28_1816,P04,
stim_fb/ques.jpg,stim_fb/negf.jpg,stim_fb/posf.jpg,stim_01/d.jpg,stim_01/c.jpg,1,2,f,5,39,339,21,f,1,0.86641578334,01,01,60.0177553748,PLT_learning_01,N,2014_Jan_28_1816,P04,
stim_fb/ques.jpg,stim_fb/negf.jpg,stim_fb/posf.jpg,stim_01/b.jpg,stim_01/a.jpg,1,1,f,5,40,340,3,f,1,1.04965907023,01,01,60.0177553748,PLT_learning_01,N,2014_Jan_28_1816,P04,
stim_fb/ques.jpg,stim_fb/negf.jpg,stim_fb/posf.jpg,stim_01/e.jpg,stim_01/f.jpg,2,3,j,5,41,341,53,j,1,0.64983864783,01,01,60.0177553748,PLT_learning_01,N,2014_Jan_28_1816,P04,
stim_fb/ques.jpg,stim_fb/negf.jpg,stim_fb/posf.jpg,stim_01/c.jpg,stim_01/d.jpg,2,2,j,5,42,342,35,j,1,0.799770765633,01,01,60.0177553748,PLT_learning_01,N,2014_Jan_28_1816,P04,
stim_fb/ques.jpg,stim_fb/negf.jpg,stim_fb/posf.jpg,stim_01/d.jpg,stim_01/c.jpg,1,2,f,5,43,343,26,j,0,0.533209906692,01,01,60.0177553748,PLT_learning_01,N,2014_Jan_28_1816,P04,
stim_fb/ques.jpg,stim_fb/posf.jpg,stim_fb/negf.jpg,stim_01/f.jpg,stim_01/e.jpg,1,3,f,5,44,344,47,f,1,0.666507884903,01,01,60.0177553748,PLT_learning_01,N,2014_Jan_28_1816,P04,
stim_fb/ques.jpg,stim_fb/posf.jpg,stim_fb/negf.jpg,stim_01/a.jpg,stim_01/b.jpg,2,1,j,5,45,345,18,j,1,0.599850762025,01,01,60.0177553748,PLT_learning_01,N,2014_Jan_28_1816,P04,
stim_fb/ques.jpg,stim_fb/posf.jpg,stim_fb/negf.jpg,stim_01/f.jpg,stim_01/e.jpg,1,3,f,5,46,346,46,f,1,0.866398505274,01,01,60.0177553748,PLT_learning_01,N,2014_Jan_28_1816,P04,
stim_fb/ques.jpg,stim_fb/posf.jpg,stim_fb/negf.jpg,stim_01/f.jpg,stim_01/e.jpg,1,3,f,5,47,347,48,f,1,1.01634332373,01,01,60.0177553748,PLT_learning_01,N,2014_Jan_28_1816,P04,
stim_fb/ques.jpg,stim_fb/negf.jpg,stim_fb/posf.jpg,stim_01/e.jpg,stim_01/f.jpg,2,3,j,5,48,348,55,j,1,1.08300243156,01,01,60.0177553748,PLT_learning_01,N,2014_Jan_28_1816,P04,
stim_fb/ques.jpg,stim_fb/negf.jpg,stim_fb/posf.jpg,stim_01/d.jpg,stim_01/c.jpg,1,2,f,5,49,349,25,f,1,0.649831742619,01,01,60.0177553748,PLT_learning_01,N,2014_Jan_28_1816,P04,
stim_fb/ques.jpg,stim_fb/negf.jpg,stim_fb/posf.jpg,stim_01/e.jpg,stim_01/f.jpg,2,3,j,5,50,350,54,j,1,0.699851703371,01,01,60.0177553748,PLT_learning_01,N,2014_Jan_28_1816,P04,
stim_fb/ques.jpg,stim_fb/negf.jpg,stim_fb/posf.jpg,stim_01/c.jpg,stim_01/d.jpg,2,2,j,5,51,351,30,j,1,0.599841667356,01,01,60.0177553748,PLT_learning_01,N,2014_Jan_28_1816,P04,
stim_fb/ques.jpg,stim_fb/negf.jpg,stim_fb/posf.jpg,stim_01/b.jpg,stim_01/a.jpg,1,1,f,5,52,352,1,f,1,0.749799920301,01,01,60.0177553748,PLT_learning_01,N,2014_Jan_28_1816,P04,
stim_fb/ques.jpg,stim_fb/posf.jpg,stim_fb/negf.jpg,stim_01/a.jpg,stim_01/b.jpg,2,1,j,5,53,353,19,j,1,0.749788948955,01,01,60.0177553748,PLT_learning_01,N,2014_Jan_28_1816,P04,
stim_fb/ques.jpg,stim_fb/negf.jpg,stim_fb/posf.jpg,stim_01/b.jpg,stim_01/a.jpg,1,1,f,5,54,354,4,j,0,0.949739604965,01,01,60.0177553748,PLT_learning_01,N,2014_Jan_28_1816,P04,
stim_fb/ques.jpg,stim_fb/posf.jpg,stim_fb/negf.jpg,stim_01/c.jpg,stim_01/d.jpg,2,2,j,5,55,355,38,f,0,0.699864398012,01,01,60.0177553748,PLT_learning_01,N,2014_Jan_28_1816,P04,
stim_fb/ques.jpg,stim_fb/posf.jpg,stim_fb/negf.jpg,stim_01/d.jpg,stim_01/c.jpg,1,2,f,5,56,356,29,j,0,0.566474170871,01,01,60.0177553748,PLT_learning_01,N,2014_Jan_28_1816,P04,
stim_fb/ques.jpg,stim_fb/posf.jpg,stim_fb/negf.jpg,stim_01/b.jpg,stim_01/a.jpg,1,1,f,5,57,357,9,f,1,0.683145654544,01,01,60.0177553748,PLT_learning_01,N,2014_Jan_28_1816,P04,
stim_fb/ques.jpg,stim_fb/negf.jpg,stim_fb/posf.jpg,stim_01/a.jpg,stim_01/b.jpg,2,1,j,5,58,358,11,f,0,0.799778618206,01,01,60.0177553748,PLT_learning_01,N,2014_Jan_28_1816,P04,
stim_fb/ques.jpg,stim_fb/negf.jpg,stim_fb/posf.jpg,stim_01/c.jpg,stim_01/d.jpg,2,2,j,5,59,359,33,j,1,0.733097029346,01,01,60.0177553748,PLT_learning_01,N,2014_Jan_28_1816,P04,
