Fb3,Fb2,Fb1,Symbol2,Symbol1,PosCond,Pair,Correct,trials.thisRepN,trials.thisTrialN,trials.thisN,trials.thisIndex,Response.keys,Response.corr,Response.rt,Version,Session Number,frameRate,expName,StimCondition,date,Participant,
stim_fb/ques.jpg,stim_fb/negf.jpg,stim_fb/posf.jpg,stim_02/e.jpg,stim_02/f.jpg,2,3,j,0,0,0,52,j,1,0.936827256938,02,01,60.0169591309,PLT_learning_02,N,2014_Feb_06_1754,P05,
stim_fb/ques.jpg,stim_fb/posf.jpg,stim_fb/negf.jpg,stim_02/c.jpg,stim_02/d.jpg,2,2,j,0,1,1,37,f,0,1.21631520966,02,01,60.0169591309,PLT_learning_02,N,2014_Feb_06_1754,P05,
stim_fb/ques.jpg,stim_fb/posf.jpg,stim_fb/negf.jpg,stim_02/d.jpg,stim_02/c.jpg,1,2,f,0,2,2,29,j,0,1.4329025466,02,01,60.0169591309,PLT_learning_02,N,2014_Feb_06_1754,P05,
stim_fb/ques.jpg,stim_fb/posf.jpg,stim_fb/negf.jpg,stim_02/e.jpg,stim_02/f.jpg,2,3,j,0,3,3,58,j,1,0.916425759205,02,01,60.0169591309,PLT_learning_02,N,2014_Feb_06_1754,P05,
stim_fb/ques.jpg,stim_fb/negf.jpg,stim_fb/posf.jpg,stim_02/c.jpg,stim_02/d.jpg,2,2,j,0,4,4,30,f,0,1.43293442305,02,01,60.0169591309,PLT_learning_02,N,2014_Feb_06_1754,P05,
stim_fb/ques.jpg,stim_fb/negf.jpg,stim_fb/posf.jpg,stim_02/d.jpg,stim_02/c.jpg,1,2,f,0,5,5,25,None,0,,02,01,60.0169591309,PLT_learning_02,N,2014_Feb_06_1754,P05,
stim_fb/ques.jpg,stim_fb/negf.jpg,stim_fb/posf.jpg,stim_02/e.jpg,stim_02/f.jpg,2,3,j,0,6,6,50,j,1,1.03304700867,02,01,60.0169591309,PLT_learning_02,N,2014_Feb_06_1754,P05,
stim_fb/ques.jpg,stim_fb/negf.jpg,stim_fb/posf.jpg,stim_02/a.jpg,stim_02/b.jpg,2,1,j,0,7,7,14,j,1,0.966456122886,02,01,60.0169591309,PLT_learning_02,N,2014_Feb_06_1754,P05,
stim_fb/ques.jpg,stim_fb/negf.jpg,stim_fb/posf.jpg,stim_02/d.jpg,stim_02/c.jpg,1,2,f,0,8,8,20,j,0,1.06636072811,02,01,60.0169591309,PLT_learning_02,N,2014_Feb_06_1754,P05,
stim_fb/ques.jpg,stim_fb/negf.jpg,stim_fb/posf.jpg,stim_02/d.jpg,stim_02/c.jpg,1,2,f,0,9,9,24,f,1,1.53286507319,02,01,60.0169591309,PLT_learning_02,N,2014_Feb_06_1754,P05,
stim_fb/ques.jpg,stim_fb/negf.jpg,stim_fb/posf.jpg,stim_02/a.jpg,stim_02/b.jpg,2,1,j,0,10,10,13,j,1,1.14966440553,02,01,60.0169591309,PLT_learning_02,N,2014_Feb_06_1754,P05,
stim_fb/ques.jpg,stim_fb/negf.jpg,stim_fb/posf.jpg,stim_02/a.jpg,stim_02/b.jpg,2,1,j,0,11,11,17,j,1,1.33293715987,02,01,60.0169591309,PLT_learning_02,N,2014_Feb_06_1754,P05,
stim_fb/ques.jpg,stim_fb/negf.jpg,stim_fb/posf.jpg,stim_02/a.jpg,stim_02/b.jpg,2,1,j,0,12,12,15,j,1,1.31629331509,02,01,60.0169591309,PLT_learning_02,N,2014_Feb_06_1754,P05,
stim_fb/ques.jpg,stim_fb/posf.jpg,stim_fb/negf.jpg,stim_02/a.jpg,stim_02/b.jpg,2,1,j,0,13,13,18,j,1,0.916400150375,02,01,60.0169591309,PLT_learning_02,N,2014_Feb_06_1754,P05,
stim_fb/ques.jpg,stim_fb/negf.jpg,stim_fb/posf.jpg,stim_02/f.jpg,stim_02/e.jpg,1,3,f,0,14,14,42,f,1,1.08304695153,02,01,60.0169591309,PLT_learning_02,N,2014_Feb_06_1754,P05,
stim_fb/ques.jpg,stim_fb/negf.jpg,stim_fb/posf.jpg,stim_02/b.jpg,stim_02/a.jpg,1,1,f,0,15,15,3,f,1,1.13302306599,02,01,60.0169591309,PLT_learning_02,N,2014_Feb_06_1754,P05,
stim_fb/ques.jpg,stim_fb/negf.jpg,stim_fb/posf.jpg,stim_02/c.jpg,stim_02/d.jpg,2,2,j,0,16,16,34,j,1,1.28286635439,02,01,60.0169591309,PLT_learning_02,N,2014_Feb_06_1754,P05,
stim_fb/ques.jpg,stim_fb/negf.jpg,stim_fb/posf.jpg,stim_02/f.jpg,stim_02/e.jpg,1,3,f,0,17,17,41,f,1,1.0163890858,02,01,60.0169591309,PLT_learning_02,N,2014_Feb_06_1754,P05,
stim_fb/ques.jpg,stim_fb/negf.jpg,stim_fb/posf.jpg,stim_02/c.jpg,stim_02/d.jpg,2,2,j,0,18,18,35,j,1,1.23299365869,02,01,60.0169591309,PLT_learning_02,N,2014_Feb_06_1754,P05,
stim_fb/ques.jpg,stim_fb/posf.jpg,stim_fb/negf.jpg,stim_02/e.jpg,stim_02/f.jpg,2,3,j,0,19,19,57,j,1,1.26628166706,02,01,60.0169591309,PLT_learning_02,N,2014_Feb_06_1754,P05,
stim_fb/ques.jpg,stim_fb/posf.jpg,stim_fb/negf.jpg,stim_02/b.jpg,stim_02/a.jpg,1,1,f,0,20,20,9,f,1,0.966399224066,02,01,60.0169591309,PLT_learning_02,N,2014_Feb_06_1754,P05,
stim_fb/ques.jpg,stim_fb/negf.jpg,stim_fb/posf.jpg,stim_02/a.jpg,stim_02/b.jpg,2,1,j,0,21,21,12,j,1,0.783104830791,02,01,60.0169591309,PLT_learning_02,N,2014_Feb_06_1754,P05,
stim_fb/ques.jpg,stim_fb/negf.jpg,stim_fb/posf.jpg,stim_02/a.jpg,stim_02/b.jpg,2,1,j,0,22,22,11,j,1,0.783091549688,02,01,60.0169591309,PLT_learning_02,N,2014_Feb_06_1754,P05,
stim_fb/ques.jpg,stim_fb/posf.jpg,stim_fb/negf.jpg,stim_02/e.jpg,stim_02/f.jpg,2,3,j,0,23,23,56,j,1,1.06634211171,02,01,60.0169591309,PLT_learning_02,N,2014_Feb_06_1754,P05,
stim_fb/ques.jpg,stim_fb/negf.jpg,stim_fb/posf.jpg,stim_02/c.jpg,stim_02/d.jpg,2,2,j,0,24,24,32,j,1,1.39959166021,02,01,60.0169591309,PLT_learning_02,N,2014_Feb_06_1754,P05,
stim_fb/ques.jpg,stim_fb/negf.jpg,stim_fb/posf.jpg,stim_02/f.jpg,stim_02/e.jpg,1,3,f,0,25,25,43,f,1,1.54954512222,02,01,60.0169591309,PLT_learning_02,N,2014_Feb_06_1754,P05,
stim_fb/ques.jpg,stim_fb/posf.jpg,stim_fb/negf.jpg,stim_02/f.jpg,stim_02/e.jpg,1,3,f,0,26,26,48,f,1,1.04971348787,02,01,60.0169591309,PLT_learning_02,N,2014_Feb_06_1754,P05,
stim_fb/ques.jpg,stim_fb/negf.jpg,stim_fb/posf.jpg,stim_02/b.jpg,stim_02/a.jpg,1,1,f,0,27,27,2,f,1,1.14968558733,02,01,60.0169591309,PLT_learning_02,N,2014_Feb_06_1754,P05,
stim_fb/ques.jpg,stim_fb/negf.jpg,stim_fb/posf.jpg,stim_02/c.jpg,stim_02/d.jpg,2,2,j,0,28,28,31,j,1,0.999707232276,02,01,60.0169591309,PLT_learning_02,N,2014_Feb_06_1754,P05,
stim_fb/ques.jpg,stim_fb/negf.jpg,stim_fb/posf.jpg,stim_02/e.jpg,stim_02/f.jpg,2,3,j,0,29,29,51,f,0,1.23299460906,02,01,60.0169591309,PLT_learning_02,N,2014_Feb_06_1754,P05,
stim_fb/ques.jpg,stim_fb/negf.jpg,stim_fb/posf.jpg,stim_02/b.jpg,stim_02/a.jpg,1,1,f,0,30,30,5,f,1,0.933062740882,02,01,60.0169591309,PLT_learning_02,N,2014_Feb_06_1754,P05,
stim_fb/ques.jpg,stim_fb/negf.jpg,stim_fb/posf.jpg,stim_02/f.jpg,stim_02/e.jpg,1,3,f,0,31,31,40,f,1,1.432888264,02,01,60.0169591309,PLT_learning_02,N,2014_Feb_06_1754,P05,
stim_fb/ques.jpg,stim_fb/negf.jpg,stim_fb/posf.jpg,stim_02/e.jpg,stim_02/f.jpg,2,3,j,0,32,32,55,j,1,1.61622893963,02,01,60.0169591309,PLT_learning_02,N,2014_Feb_06_1754,P05,
stim_fb/ques.jpg,stim_fb/negf.jpg,stim_fb/posf.jpg,stim_02/c.jpg,stim_02/d.jpg,2,2,j,0,33,33,33,None,0,,02,01,60.0169591309,PLT_learning_02,N,2014_Feb_06_1754,P05,
stim_fb/ques.jpg,stim_fb/posf.jpg,stim_fb/negf.jpg,stim_02/c.jpg,stim_02/d.jpg,2,2,j,0,34,34,39,f,0,0.833088509109,02,01,60.0169591309,PLT_learning_02,N,2014_Feb_06_1754,P05,
stim_fb/ques.jpg,stim_fb/negf.jpg,stim_fb/posf.jpg,stim_02/b.jpg,stim_02/a.jpg,1,1,f,0,35,35,7,f,1,1.01638401817,02,01,60.0169591309,PLT_learning_02,N,2014_Feb_06_1754,P05,
stim_fb/ques.jpg,stim_fb/negf.jpg,stim_fb/posf.jpg,stim_02/a.jpg,stim_02/b.jpg,2,1,j,0,36,36,16,j,1,0.699819772784,02,01,60.0169591309,PLT_learning_02,N,2014_Feb_06_1754,P05,
stim_fb/ques.jpg,stim_fb/negf.jpg,stim_fb/posf.jpg,stim_02/b.jpg,stim_02/a.jpg,1,1,f,0,37,37,6,f,1,0.716478694145,02,01,60.0169591309,PLT_learning_02,N,2014_Feb_06_1754,P05,
stim_fb/ques.jpg,stim_fb/posf.jpg,stim_fb/negf.jpg,stim_02/b.jpg,stim_02/a.jpg,1,1,f,0,38,38,8,f,1,0.63305005827,02,01,60.0169591309,PLT_learning_02,N,2014_Feb_06_1754,P05,
stim_fb/ques.jpg,stim_fb/negf.jpg,stim_fb/posf.jpg,stim_02/d.jpg,stim_02/c.jpg,1,2,f,0,39,39,23,f,1,0.883099639852,02,01,60.0169591309,PLT_learning_02,N,2014_Feb_06_1754,P05,
stim_fb/ques.jpg,stim_fb/negf.jpg,stim_fb/posf.jpg,stim_02/b.jpg,stim_02/a.jpg,1,1,f,0,40,40,1,f,1,0.733094439891,02,01,60.0169591309,PLT_learning_02,N,2014_Feb_06_1754,P05,
stim_fb/ques.jpg,stim_fb/posf.jpg,stim_fb/negf.jpg,stim_02/e.jpg,stim_02/f.jpg,2,3,j,0,41,41,59,j,1,0.866409771355,02,01,60.0169591309,PLT_learning_02,N,2014_Feb_06_1754,P05,
stim_fb/ques.jpg,stim_fb/posf.jpg,stim_fb/negf.jpg,stim_02/f.jpg,stim_02/e.jpg,1,3,f,0,42,42,49,f,1,0.799786371531,02,01,60.0169591309,PLT_learning_02,N,2014_Feb_06_1754,P05,
stim_fb/ques.jpg,stim_fb/posf.jpg,stim_fb/negf.jpg,stim_02/a.jpg,stim_02/b.jpg,2,1,j,0,43,43,19,j,1,0.749793069225,02,01,60.0169591309,PLT_learning_02,N,2014_Feb_06_1754,P05,
stim_fb/ques.jpg,stim_fb/negf.jpg,stim_fb/posf.jpg,stim_02/f.jpg,stim_02/e.jpg,1,3,f,0,44,44,45,f,1,0.949742970354,02,01,60.0169591309,PLT_learning_02,N,2014_Feb_06_1754,P05,
stim_fb/ques.jpg,stim_fb/negf.jpg,stim_fb/posf.jpg,stim_02/c.jpg,stim_02/d.jpg,2,2,j,0,45,45,36,f,0,1.2996113533,02,01,60.0169591309,PLT_learning_02,N,2014_Feb_06_1754,P05,
stim_fb/ques.jpg,stim_fb/posf.jpg,stim_fb/negf.jpg,stim_02/d.jpg,stim_02/c.jpg,1,2,f,0,46,46,27,f,1,1.41626955888,02,01,60.0169591309,PLT_learning_02,N,2014_Feb_06_1754,P05,
stim_fb/ques.jpg,stim_fb/negf.jpg,stim_fb/posf.jpg,stim_02/f.jpg,stim_02/e.jpg,1,3,f,0,47,47,44,f,1,0.983092957196,02,01,60.0169591309,PLT_learning_02,N,2014_Feb_06_1754,P05,
stim_fb/ques.jpg,stim_fb/negf.jpg,stim_fb/posf.jpg,stim_02/e.jpg,stim_02/f.jpg,2,3,j,0,48,48,53,j,1,1.04971167736,02,01,60.0169591309,PLT_learning_02,N,2014_Feb_06_1754,P05,
stim_fb/ques.jpg,stim_fb/negf.jpg,stim_fb/posf.jpg,stim_02/d.jpg,stim_02/c.jpg,1,2,f,0,49,49,22,f,1,0.833120893828,02,01,60.0169591309,PLT_learning_02,N,2014_Feb_06_1754,P05,
stim_fb/ques.jpg,stim_fb/negf.jpg,stim_fb/posf.jpg,stim_02/b.jpg,stim_02/a.jpg,1,1,f,0,50,50,4,f,1,0.84976186946,02,01,60.0169591309,PLT_learning_02,N,2014_Feb_06_1754,P05,
stim_fb/ques.jpg,stim_fb/negf.jpg,stim_fb/posf.jpg,stim_02/b.jpg,stim_02/a.jpg,1,1,f,0,51,51,0,f,1,0.816448318434,02,01,60.0169591309,PLT_learning_02,N,2014_Feb_06_1754,P05,
stim_fb/ques.jpg,stim_fb/negf.jpg,stim_fb/posf.jpg,stim_02/d.jpg,stim_02/c.jpg,1,2,f,0,52,52,26,f,1,0.849764377711,02,01,60.0169591309,PLT_learning_02,N,2014_Feb_06_1754,P05,
stim_fb/ques.jpg,stim_fb/posf.jpg,stim_fb/negf.jpg,stim_02/c.jpg,stim_02/d.jpg,2,2,j,0,53,53,38,j,1,0.783128418583,02,01,60.0169591309,PLT_learning_02,N,2014_Feb_06_1754,P05,
stim_fb/ques.jpg,stim_fb/negf.jpg,stim_fb/posf.jpg,stim_02/e.jpg,stim_02/f.jpg,2,3,j,0,54,54,54,j,1,1.03302983587,02,01,60.0169591309,PLT_learning_02,N,2014_Feb_06_1754,P05,
stim_fb/ques.jpg,stim_fb/negf.jpg,stim_fb/posf.jpg,stim_02/d.jpg,stim_02/c.jpg,1,2,f,0,55,55,21,f,1,0.683167347614,02,01,60.0169591309,PLT_learning_02,N,2014_Feb_06_1754,P05,
stim_fb/ques.jpg,stim_fb/negf.jpg,stim_fb/posf.jpg,stim_02/a.jpg,stim_02/b.jpg,2,1,j,0,56,56,10,j,1,0.7331648544,02,01,60.0169591309,PLT_learning_02,N,2014_Feb_06_1754,P05,
stim_fb/ques.jpg,stim_fb/posf.jpg,stim_fb/negf.jpg,stim_02/f.jpg,stim_02/e.jpg,1,3,f,0,57,57,47,f,1,0.983078927226,02,01,60.0169591309,PLT_learning_02,N,2014_Feb_06_1754,P05,
stim_fb/ques.jpg,stim_fb/posf.jpg,stim_fb/negf.jpg,stim_02/f.jpg,stim_02/e.jpg,1,3,f,0,58,58,46,j,0,0.966404267637,02,01,60.0169591309,PLT_learning_02,N,2014_Feb_06_1754,P05,
stim_fb/ques.jpg,stim_fb/posf.jpg,stim_fb/negf.jpg,stim_02/d.jpg,stim_02/c.jpg,1,2,f,0,59,59,28,f,1,0.883099910527,02,01,60.0169591309,PLT_learning_02,N,2014_Feb_06_1754,P05,
stim_fb/ques.jpg,stim_fb/posf.jpg,stim_fb/negf.jpg,stim_02/e.jpg,stim_02/f.jpg,2,3,j,1,0,60,59,j,1,0.799784888835,02,01,60.0169591309,PLT_learning_02,N,2014_Feb_06_1754,P05,
stim_fb/ques.jpg,stim_fb/negf.jpg,stim_fb/posf.jpg,stim_02/f.jpg,stim_02/e.jpg,1,3,f,1,1,61,41,f,1,0.783171004729,02,01,60.0169591309,PLT_learning_02,N,2014_Feb_06_1754,P05,
stim_fb/ques.jpg,stim_fb/negf.jpg,stim_fb/posf.jpg,stim_02/b.jpg,stim_02/a.jpg,1,1,f,1,2,62,3,f,1,0.933079134743,02,01,60.0169591309,PLT_learning_02,N,2014_Feb_06_1754,P05,
stim_fb/ques.jpg,stim_fb/negf.jpg,stim_fb/posf.jpg,stim_02/d.jpg,stim_02/c.jpg,1,2,f,1,3,63,22,f,1,0.699838211743,02,01,60.0169591309,PLT_learning_02,N,2014_Feb_06_1754,P05,
stim_fb/ques.jpg,stim_fb/posf.jpg,stim_fb/negf.jpg,stim_02/f.jpg,stim_02/e.jpg,1,3,f,1,4,64,49,f,1,0.666490450448,02,01,60.0169591309,PLT_learning_02,N,2014_Feb_06_1754,P05,
stim_fb/ques.jpg,stim_fb/posf.jpg,stim_fb/negf.jpg,stim_02/f.jpg,stim_02/e.jpg,1,3,f,1,5,65,48,f,1,1.18298733092,02,01,60.0169591309,PLT_learning_02,N,2014_Feb_06_1754,P05,
stim_fb/ques.jpg,stim_fb/negf.jpg,stim_fb/posf.jpg,stim_02/a.jpg,stim_02/b.jpg,2,1,j,1,6,66,13,j,1,0.866424811844,02,01,60.0169591309,PLT_learning_02,N,2014_Feb_06_1754,P05,
stim_fb/ques.jpg,stim_fb/negf.jpg,stim_fb/posf.jpg,stim_02/d.jpg,stim_02/c.jpg,1,2,f,1,7,67,24,f,1,0.649818329186,02,01,60.0169591309,PLT_learning_02,N,2014_Feb_06_1754,P05,
stim_fb/ques.jpg,stim_fb/negf.jpg,stim_fb/posf.jpg,stim_02/d.jpg,stim_02/c.jpg,1,2,f,1,8,68,21,f,1,0.633167104007,02,01,60.0169591309,PLT_learning_02,N,2014_Feb_06_1754,P05,
stim_fb/ques.jpg,stim_fb/negf.jpg,stim_fb/posf.jpg,stim_02/e.jpg,stim_02/f.jpg,2,3,j,1,9,69,52,f,0,1.33293129826,02,01,60.0169591309,PLT_learning_02,N,2014_Feb_06_1754,P05,
stim_fb/ques.jpg,stim_fb/negf.jpg,stim_fb/posf.jpg,stim_02/a.jpg,stim_02/b.jpg,2,1,j,1,10,70,15,j,1,0.816436835813,02,01,60.0169591309,PLT_learning_02,N,2014_Feb_06_1754,P05,
stim_fb/ques.jpg,stim_fb/negf.jpg,stim_fb/posf.jpg,stim_02/a.jpg,stim_02/b.jpg,2,1,j,1,11,71,12,j,1,0.716486645965,02,01,60.0169591309,PLT_learning_02,N,2014_Feb_06_1754,P05,
stim_fb/ques.jpg,stim_fb/negf.jpg,stim_fb/posf.jpg,stim_02/f.jpg,stim_02/e.jpg,1,3,f,1,12,72,45,j,0,1.28296980023,02,01,60.0169591309,PLT_learning_02,N,2014_Feb_06_1754,P05,
stim_fb/ques.jpg,stim_fb/negf.jpg,stim_fb/posf.jpg,stim_02/c.jpg,stim_02/d.jpg,2,2,j,1,13,73,35,j,1,0.883012765318,02,01,60.0169591309,PLT_learning_02,N,2014_Feb_06_1754,P05,
stim_fb/ques.jpg,stim_fb/negf.jpg,stim_fb/posf.jpg,stim_02/d.jpg,stim_02/c.jpg,1,2,f,1,14,74,26,f,1,0.649827156187,02,01,60.0169591309,PLT_learning_02,N,2014_Feb_06_1754,P05,
stim_fb/ques.jpg,stim_fb/negf.jpg,stim_fb/posf.jpg,stim_02/d.jpg,stim_02/c.jpg,1,2,f,1,15,75,23,f,1,0.649758898054,02,01,60.0169591309,PLT_learning_02,N,2014_Feb_06_1754,P05,
stim_fb/ques.jpg,stim_fb/posf.jpg,stim_fb/negf.jpg,stim_02/e.jpg,stim_02/f.jpg,2,3,j,1,16,76,56,j,1,1.46741108112,02,01,60.0169591309,PLT_learning_02,N,2014_Feb_06_1754,P05,
stim_fb/ques.jpg,stim_fb/negf.jpg,stim_fb/posf.jpg,stim_02/b.jpg,stim_02/a.jpg,1,1,f,1,17,77,2,f,1,0.999739836543,02,01,60.0169591309,PLT_learning_02,N,2014_Feb_06_1754,P05,
stim_fb/ques.jpg,stim_fb/posf.jpg,stim_fb/negf.jpg,stim_02/f.jpg,stim_02/e.jpg,1,3,f,1,18,78,46,f,1,1.34961141646,02,01,60.0169591309,PLT_learning_02,N,2014_Feb_06_1754,P05,
stim_fb/ques.jpg,stim_fb/negf.jpg,stim_fb/posf.jpg,stim_02/e.jpg,stim_02/f.jpg,2,3,j,1,19,79,51,j,1,1.18298239261,02,01,60.0169591309,PLT_learning_02,N,2014_Feb_06_1754,P05,
stim_fb/ques.jpg,stim_fb/posf.jpg,stim_fb/negf.jpg,stim_02/a.jpg,stim_02/b.jpg,2,1,j,1,20,80,19,j,1,0.883041757581,02,01,60.0169591309,PLT_learning_02,N,2014_Feb_06_1754,P05,
stim_fb/ques.jpg,stim_fb/negf.jpg,stim_fb/posf.jpg,stim_02/f.jpg,stim_02/e.jpg,1,3,f,1,21,81,43,None,0,,02,01,60.0169591309,PLT_learning_02,N,2014_Feb_06_1754,P05,
stim_fb/ques.jpg,stim_fb/negf.jpg,stim_fb/posf.jpg,stim_02/b.jpg,stim_02/a.jpg,1,1,f,1,22,82,6,f,1,0.616517947985,02,01,60.0169591309,PLT_learning_02,N,2014_Feb_06_1754,P05,
stim_fb/ques.jpg,stim_fb/negf.jpg,stim_fb/posf.jpg,stim_02/f.jpg,stim_02/e.jpg,1,3,f,1,23,83,44,j,0,1.1329985158,02,01,60.0169591309,PLT_learning_02,N,2014_Feb_06_1754,P05,
stim_fb/ques.jpg,stim_fb/negf.jpg,stim_fb/posf.jpg,stim_02/c.jpg,stim_02/d.jpg,2,2,j,1,24,84,33,j,1,0.966428083999,02,01,60.0169591309,PLT_learning_02,N,2014_Feb_06_1754,P05,
stim_fb/ques.jpg,stim_fb/negf.jpg,stim_fb/posf.jpg,stim_02/f.jpg,stim_02/e.jpg,1,3,f,1,25,85,42,f,1,0.799803980421,02,01,60.0169591309,PLT_learning_02,N,2014_Feb_06_1754,P05,
stim_fb/ques.jpg,stim_fb/negf.jpg,stim_fb/posf.jpg,stim_02/e.jpg,stim_02/f.jpg,2,3,j,1,26,86,50,j,1,1.09971740964,02,01,60.0169591309,PLT_learning_02,N,2014_Feb_06_1754,P05,
stim_fb/ques.jpg,stim_fb/posf.jpg,stim_fb/negf.jpg,stim_02/b.jpg,stim_02/a.jpg,1,1,f,1,27,87,8,f,1,0.983050837212,02,01,60.0169591309,PLT_learning_02,N,2014_Feb_06_1754,P05,
stim_fb/ques.jpg,stim_fb/posf.jpg,stim_fb/negf.jpg,stim_02/c.jpg,stim_02/d.jpg,2,2,j,1,28,88,38,j,1,0.899747716182,02,01,60.0169591309,PLT_learning_02,N,2014_Feb_06_1754,P05,
stim_fb/ques.jpg,stim_fb/negf.jpg,stim_fb/posf.jpg,stim_02/c.jpg,stim_02/d.jpg,2,2,j,1,29,89,31,j,1,0.883077200923,02,01,60.0169591309,PLT_learning_02,N,2014_Feb_06_1754,P05,
stim_fb/ques.jpg,stim_fb/negf.jpg,stim_fb/posf.jpg,stim_02/e.jpg,stim_02/f.jpg,2,3,j,1,30,90,53,j,1,0.916410670596,02,01,60.0169591309,PLT_learning_02,N,2014_Feb_06_1754,P05,
stim_fb/ques.jpg,stim_fb/negf.jpg,stim_fb/posf.jpg,stim_02/c.jpg,stim_02/d.jpg,2,2,j,1,31,91,36,j,1,0.766439557597,02,01,60.0169591309,PLT_learning_02,N,2014_Feb_06_1754,P05,
stim_fb/ques.jpg,stim_fb/negf.jpg,stim_fb/posf.jpg,stim_02/c.jpg,stim_02/d.jpg,2,2,j,1,32,92,34,j,1,0.73314660792,02,01,60.0169591309,PLT_learning_02,N,2014_Feb_06_1754,P05,
stim_fb/ques.jpg,stim_fb/posf.jpg,stim_fb/negf.jpg,stim_02/c.jpg,stim_02/d.jpg,2,2,j,1,33,93,37,j,1,0.566450032707,02,01,60.0169591309,PLT_learning_02,N,2014_Feb_06_1754,P05,
stim_fb/ques.jpg,stim_fb/posf.jpg,stim_fb/negf.jpg,stim_02/d.jpg,stim_02/c.jpg,1,2,f,1,34,94,29,f,1,0.683065149886,02,01,60.0169591309,PLT_learning_02,N,2014_Feb_06_1754,P05,
stim_fb/ques.jpg,stim_fb/negf.jpg,stim_fb/posf.jpg,stim_02/b.jpg,stim_02/a.jpg,1,1,f,1,35,95,4,f,1,1.01636724536,02,01,60.0169591309,PLT_learning_02,N,2014_Feb_06_1754,P05,
stim_fb/ques.jpg,stim_fb/posf.jpg,stim_fb/negf.jpg,stim_02/e.jpg,stim_02/f.jpg,2,3,j,1,36,96,58,j,1,0.883103504485,02,01,60.0169591309,PLT_learning_02,N,2014_Feb_06_1754,P05,
stim_fb/ques.jpg,stim_fb/posf.jpg,stim_fb/negf.jpg,stim_02/d.jpg,stim_02/c.jpg,1,2,f,1,37,97,27,f,1,0.649838494448,02,01,60.0169591309,PLT_learning_02,N,2014_Feb_06_1754,P05,
stim_fb/ques.jpg,stim_fb/negf.jpg,stim_fb/posf.jpg,stim_02/a.jpg,stim_02/b.jpg,2,1,j,1,38,98,11,j,1,0.816443912452,02,01,60.0169591309,PLT_learning_02,N,2014_Feb_06_1754,P05,
stim_fb/ques.jpg,stim_fb/posf.jpg,stim_fb/negf.jpg,stim_02/e.jpg,stim_02/f.jpg,2,3,j,1,39,99,57,j,1,0.816427407313,02,01,60.0169591309,PLT_learning_02,N,2014_Feb_06_1754,P05,
stim_fb/ques.jpg,stim_fb/posf.jpg,stim_fb/negf.jpg,stim_02/d.jpg,stim_02/c.jpg,1,2,f,1,40,100,28,f,1,0.666480811422,02,01,60.0169591309,PLT_learning_02,N,2014_Feb_06_1754,P05,
stim_fb/ques.jpg,stim_fb/posf.jpg,stim_fb/negf.jpg,stim_02/f.jpg,stim_02/e.jpg,1,3,f,1,41,101,47,f,1,1.04971553898,02,01,60.0169591309,PLT_learning_02,N,2014_Feb_06_1754,P05,
stim_fb/ques.jpg,stim_fb/posf.jpg,stim_fb/negf.jpg,stim_02/b.jpg,stim_02/a.jpg,1,1,f,1,42,102,9,f,1,0.86641986752,02,01,60.0169591309,PLT_learning_02,N,2014_Feb_06_1754,P05,
stim_fb/ques.jpg,stim_fb/negf.jpg,stim_fb/posf.jpg,stim_02/d.jpg,stim_02/c.jpg,1,2,f,1,43,103,25,f,1,0.633123477267,02,01,60.0169591309,PLT_learning_02,N,2014_Feb_06_1754,P05,
stim_fb/ques.jpg,stim_fb/negf.jpg,stim_fb/posf.jpg,stim_02/b.jpg,stim_02/a.jpg,1,1,f,1,44,104,5,f,1,0.999681722694,02,01,60.0169591309,PLT_learning_02,N,2014_Feb_06_1754,P05,
stim_fb/ques.jpg,stim_fb/negf.jpg,stim_fb/posf.jpg,stim_02/c.jpg,stim_02/d.jpg,2,2,j,1,45,105,30,j,1,0.666503154112,02,01,60.0169591309,PLT_learning_02,N,2014_Feb_06_1754,P05,
stim_fb/ques.jpg,stim_fb/negf.jpg,stim_fb/posf.jpg,stim_02/a.jpg,stim_02/b.jpg,2,1,j,1,46,106,10,j,1,0.616534762896,02,01,60.0169591309,PLT_learning_02,N,2014_Feb_06_1754,P05,
stim_fb/ques.jpg,stim_fb/negf.jpg,stim_fb/posf.jpg,stim_02/b.jpg,stim_02/a.jpg,1,1,f,1,47,107,7,f,1,0.61652192991,02,01,60.0169591309,PLT_learning_02,N,2014_Feb_06_1754,P05,
stim_fb/ques.jpg,stim_fb/negf.jpg,stim_fb/posf.jpg,stim_02/e.jpg,stim_02/f.jpg,2,3,j,1,48,108,55,j,1,1.09964643273,02,01,60.0169591309,PLT_learning_02,N,2014_Feb_06_1754,P05,
stim_fb/ques.jpg,stim_fb/negf.jpg,stim_fb/posf.jpg,stim_02/d.jpg,stim_02/c.jpg,1,2,f,1,49,109,20,f,1,0.583186129428,02,01,60.0169591309,PLT_learning_02,N,2014_Feb_06_1754,P05,
stim_fb/ques.jpg,stim_fb/negf.jpg,stim_fb/posf.jpg,stim_02/a.jpg,stim_02/b.jpg,2,1,j,1,50,110,16,j,1,0.649829820828,02,01,60.0169591309,PLT_learning_02,N,2014_Feb_06_1754,P05,
stim_fb/ques.jpg,stim_fb/negf.jpg,stim_fb/posf.jpg,stim_02/a.jpg,stim_02/b.jpg,2,1,j,1,51,111,14,j,1,0.616514390118,02,01,60.0169591309,PLT_learning_02,N,2014_Feb_06_1754,P05,
stim_fb/ques.jpg,stim_fb/negf.jpg,stim_fb/posf.jpg,stim_02/c.jpg,stim_02/d.jpg,2,2,j,1,52,112,32,j,1,0.833094175232,02,01,60.0169591309,PLT_learning_02,N,2014_Feb_06_1754,P05,
stim_fb/ques.jpg,stim_fb/negf.jpg,stim_fb/posf.jpg,stim_02/a.jpg,stim_02/b.jpg,2,1,j,1,53,113,17,j,1,0.79978326178,02,01,60.0169591309,PLT_learning_02,N,2014_Feb_06_1754,P05,
stim_fb/ques.jpg,stim_fb/negf.jpg,stim_fb/posf.jpg,stim_02/b.jpg,stim_02/a.jpg,1,1,f,1,54,114,1,f,1,0.78310175713,02,01,60.0169591309,PLT_learning_02,N,2014_Feb_06_1754,P05,
stim_fb/ques.jpg,stim_fb/negf.jpg,stim_fb/posf.jpg,stim_02/e.jpg,stim_02/f.jpg,2,3,j,1,55,115,54,j,1,0.849803646589,02,01,60.0169591309,PLT_learning_02,N,2014_Feb_06_1754,P05,
stim_fb/ques.jpg,stim_fb/negf.jpg,stim_fb/posf.jpg,stim_02/b.jpg,stim_02/a.jpg,1,1,f,1,56,116,0,f,1,0.766447912422,02,01,60.0169591309,PLT_learning_02,N,2014_Feb_06_1754,P05,
stim_fb/ques.jpg,stim_fb/posf.jpg,stim_fb/negf.jpg,stim_02/c.jpg,stim_02/d.jpg,2,2,j,1,57,117,39,j,1,0.716513262306,02,01,60.0169591309,PLT_learning_02,N,2014_Feb_06_1754,P05,
stim_fb/ques.jpg,stim_fb/negf.jpg,stim_fb/posf.jpg,stim_02/f.jpg,stim_02/e.jpg,1,3,f,1,58,118,40,f,1,0.949744471094,02,01,60.0169591309,PLT_learning_02,N,2014_Feb_06_1754,P05,
stim_fb/ques.jpg,stim_fb/posf.jpg,stim_fb/negf.jpg,stim_02/a.jpg,stim_02/b.jpg,2,1,j,1,59,119,18,j,1,0.683156496568,02,01,60.0169591309,PLT_learning_02,N,2014_Feb_06_1754,P05,
stim_fb/ques.jpg,stim_fb/negf.jpg,stim_fb/posf.jpg,stim_02/e.jpg,stim_02/f.jpg,2,3,j,2,0,120,55,j,1,0.733127913324,02,01,60.0169591309,PLT_learning_02,N,2014_Feb_06_1754,P05,
stim_fb/ques.jpg,stim_fb/negf.jpg,stim_fb/posf.jpg,stim_02/b.jpg,stim_02/a.jpg,1,1,f,2,1,121,1,f,1,0.899745307178,02,01,60.0169591309,PLT_learning_02,N,2014_Feb_06_1754,P05,
stim_fb/ques.jpg,stim_fb/negf.jpg,stim_fb/posf.jpg,stim_02/d.jpg,stim_02/c.jpg,1,2,f,2,2,122,26,f,1,0.69981863595,02,01,60.0169591309,PLT_learning_02,N,2014_Feb_06_1754,P05,
stim_fb/ques.jpg,stim_fb/negf.jpg,stim_fb/posf.jpg,stim_02/f.jpg,stim_02/e.jpg,1,3,f,2,3,123,45,f,1,0.633175594169,02,01,60.0169591309,PLT_learning_02,N,2014_Feb_06_1754,P05,
stim_fb/ques.jpg,stim_fb/posf.jpg,stim_fb/negf.jpg,stim_02/f.jpg,stim_02/e.jpg,1,3,f,2,4,124,47,f,1,0.566515587101,02,01,60.0169591309,PLT_learning_02,N,2014_Feb_06_1754,P05,
stim_fb/ques.jpg,stim_fb/negf.jpg,stim_fb/posf.jpg,stim_02/c.jpg,stim_02/d.jpg,2,2,j,2,5,125,35,j,1,0.833100572176,02,01,60.0169591309,PLT_learning_02,N,2014_Feb_06_1754,P05,
stim_fb/ques.jpg,stim_fb/negf.jpg,stim_fb/posf.jpg,stim_02/b.jpg,stim_02/a.jpg,1,1,f,2,6,126,7,f,1,0.716498678957,02,01,60.0169591309,PLT_learning_02,N,2014_Feb_06_1754,P05,
stim_fb/ques.jpg,stim_fb/negf.jpg,stim_fb/posf.jpg,stim_02/b.jpg,stim_02/a.jpg,1,1,f,2,7,127,2,f,1,0.766459476245,02,01,60.0169591309,PLT_learning_02,N,2014_Feb_06_1754,P05,
stim_fb/ques.jpg,stim_fb/negf.jpg,stim_fb/posf.jpg,stim_02/d.jpg,stim_02/c.jpg,1,2,f,2,8,128,20,f,1,0.649847002654,02,01,60.0169591309,PLT_learning_02,N,2014_Feb_06_1754,P05,
stim_fb/ques.jpg,stim_fb/negf.jpg,stim_fb/posf.jpg,stim_02/e.jpg,stim_02/f.jpg,2,3,j,2,9,129,52,j,1,0.666496245893,02,01,60.0169591309,PLT_learning_02,N,2014_Feb_06_1754,P05,
stim_fb/ques.jpg,stim_fb/negf.jpg,stim_fb/posf.jpg,stim_02/a.jpg,stim_02/b.jpg,2,1,j,2,10,130,14,j,1,0.599817505132,02,01,60.0169591309,PLT_learning_02,N,2014_Feb_06_1754,P05,
stim_fb/ques.jpg,stim_fb/negf.jpg,stim_fb/posf.jpg,stim_02/f.jpg,stim_02/e.jpg,1,3,f,2,11,131,40,f,1,0.73314903497,02,01,60.0169591309,PLT_learning_02,N,2014_Feb_06_1754,P05,
stim_fb/ques.jpg,stim_fb/negf.jpg,stim_fb/posf.jpg,stim_02/d.jpg,stim_02/c.jpg,1,2,f,2,12,132,25,f,1,0.633162180736,02,01,60.0169591309,PLT_learning_02,N,2014_Feb_06_1754,P05,
stim_fb/ques.jpg,stim_fb/posf.jpg,stim_fb/negf.jpg,stim_02/b.jpg,stim_02/a.jpg,1,1,f,2,13,133,9,f,1,0.549870900219,02,01,60.0169591309,PLT_learning_02,N,2014_Feb_06_1754,P05,
stim_fb/ques.jpg,stim_fb/posf.jpg,stim_fb/negf.jpg,stim_02/b.jpg,stim_02/a.jpg,1,1,f,2,14,134,8,f,1,0.549868822039,02,01,60.0169591309,PLT_learning_02,N,2014_Feb_06_1754,P05,
stim_fb/ques.jpg,stim_fb/posf.jpg,stim_fb/negf.jpg,stim_02/e.jpg,stim_02/f.jpg,2,3,j,2,15,135,57,j,1,0.733145810934,02,01,60.0169591309,PLT_learning_02,N,2014_Feb_06_1754,P05,
stim_fb/ques.jpg,stim_fb/posf.jpg,stim_fb/negf.jpg,stim_02/f.jpg,stim_02/e.jpg,1,3,f,2,16,136,48,f,1,0.566505352591,02,01,60.0169591309,PLT_learning_02,N,2014_Feb_06_1754,P05,
stim_fb/ques.jpg,stim_fb/negf.jpg,stim_fb/posf.jpg,stim_02/b.jpg,stim_02/a.jpg,1,1,f,2,17,137,5,f,1,0.683179503914,02,01,60.0169591309,PLT_learning_02,N,2014_Feb_06_1754,P05,
stim_fb/ques.jpg,stim_fb/negf.jpg,stim_fb/posf.jpg,stim_02/e.jpg,stim_02/f.jpg,2,3,j,2,18,138,50,j,1,0.71647258592,02,01,60.0169591309,PLT_learning_02,N,2014_Feb_06_1754,P05,
stim_fb/ques.jpg,stim_fb/negf.jpg,stim_fb/posf.jpg,stim_02/f.jpg,stim_02/e.jpg,1,3,f,2,19,139,41,f,1,0.683142974865,02,01,60.0169591309,PLT_learning_02,N,2014_Feb_06_1754,P05,
stim_fb/ques.jpg,stim_fb/posf.jpg,stim_fb/negf.jpg,stim_02/a.jpg,stim_02/b.jpg,2,1,j,2,20,140,18,j,1,0.766476047548,02,01,60.0169591309,PLT_learning_02,N,2014_Feb_06_1754,P05,
stim_fb/ques.jpg,stim_fb/posf.jpg,stim_fb/negf.jpg,stim_02/a.jpg,stim_02/b.jpg,2,1,j,2,21,141,19,j,1,0.716473431027,02,01,60.0169591309,PLT_learning_02,N,2014_Feb_06_1754,P05,
stim_fb/ques.jpg,stim_fb/negf.jpg,stim_fb/posf.jpg,stim_02/a.jpg,stim_02/b.jpg,2,1,j,2,22,142,13,j,1,0.63315511312,02,01,60.0169591309,PLT_learning_02,N,2014_Feb_06_1754,P05,
stim_fb/ques.jpg,stim_fb/negf.jpg,stim_fb/posf.jpg,stim_02/e.jpg,stim_02/f.jpg,2,3,j,2,23,143,51,j,1,0.766436285441,02,01,60.0169591309,PLT_learning_02,N,2014_Feb_06_1754,P05,
stim_fb/ques.jpg,stim_fb/negf.jpg,stim_fb/posf.jpg,stim_02/a.jpg,stim_02/b.jpg,2,1,j,2,24,144,17,j,1,0.599865351388,02,01,60.0169591309,PLT_learning_02,N,2014_Feb_06_1754,P05,
stim_fb/ques.jpg,stim_fb/negf.jpg,stim_fb/posf.jpg,stim_02/c.jpg,stim_02/d.jpg,2,2,j,2,25,145,36,j,1,0.766451238713,02,01,60.0169591309,PLT_learning_02,N,2014_Feb_06_1754,P05,
stim_fb/ques.jpg,stim_fb/negf.jpg,stim_fb/posf.jpg,stim_02/a.jpg,stim_02/b.jpg,2,1,j,2,26,146,12,j,1,0.683079333238,02,01,60.0169591309,PLT_learning_02,N,2014_Feb_06_1754,P05,
stim_fb/ques.jpg,stim_fb/negf.jpg,stim_fb/posf.jpg,stim_02/a.jpg,stim_02/b.jpg,2,1,j,2,27,147,10,j,1,0.616512726972,02,01,60.0169591309,PLT_learning_02,N,2014_Feb_06_1754,P05,
stim_fb/ques.jpg,stim_fb/posf.jpg,stim_fb/negf.jpg,stim_02/f.jpg,stim_02/e.jpg,1,3,f,2,28,148,46,f,1,0.699783685837,02,01,60.0169591309,PLT_learning_02,N,2014_Feb_06_1754,P05,
stim_fb/ques.jpg,stim_fb/negf.jpg,stim_fb/posf.jpg,stim_02/c.jpg,stim_02/d.jpg,2,2,j,2,29,149,32,j,1,0.616509758573,02,01,60.0169591309,PLT_learning_02,N,2014_Feb_06_1754,P05,
stim_fb/ques.jpg,stim_fb/negf.jpg,stim_fb/posf.jpg,stim_02/d.jpg,stim_02/c.jpg,1,2,f,2,30,150,22,f,1,0.716525674243,02,01,60.0169591309,PLT_learning_02,N,2014_Feb_06_1754,P05,
stim_fb/ques.jpg,stim_fb/negf.jpg,stim_fb/posf.jpg,stim_02/e.jpg,stim_02/f.jpg,2,3,j,2,31,151,54,j,1,0.716510829242,02,01,60.0169591309,PLT_learning_02,N,2014_Feb_06_1754,P05,
stim_fb/ques.jpg,stim_fb/posf.jpg,stim_fb/negf.jpg,stim_02/c.jpg,stim_02/d.jpg,2,2,j,2,32,152,39,j,1,0.666516209652,02,01,60.0169591309,PLT_learning_02,N,2014_Feb_06_1754,P05,
stim_fb/ques.jpg,stim_fb/posf.jpg,stim_fb/negf.jpg,stim_02/d.jpg,stim_02/c.jpg,1,2,f,2,33,153,29,f,1,0.599850151503,02,01,60.0169591309,PLT_learning_02,N,2014_Feb_06_1754,P05,
stim_fb/ques.jpg,stim_fb/posf.jpg,stim_fb/negf.jpg,stim_02/c.jpg,stim_02/d.jpg,2,2,j,2,34,154,37,j,1,0.583177527988,02,01,60.0169591309,PLT_learning_02,N,2014_Feb_06_1754,P05,
stim_fb/ques.jpg,stim_fb/negf.jpg,stim_fb/posf.jpg,stim_02/f.jpg,stim_02/e.jpg,1,3,f,2,35,155,44,f,1,0.949718630687,02,01,60.0169591309,PLT_learning_02,N,2014_Feb_06_1754,P05,
stim_fb/ques.jpg,stim_fb/negf.jpg,stim_fb/posf.jpg,stim_02/b.jpg,stim_02/a.jpg,1,1,f,2,36,156,3,f,1,0.949732447124,02,01,60.0169591309,PLT_learning_02,N,2014_Feb_06_1754,P05,
stim_fb/ques.jpg,stim_fb/negf.jpg,stim_fb/posf.jpg,stim_02/f.jpg,stim_02/e.jpg,1,3,f,2,37,157,43,f,1,0.699804792445,02,01,60.0169591309,PLT_learning_02,N,2014_Feb_06_1754,P05,
stim_fb/ques.jpg,stim_fb/posf.jpg,stim_fb/negf.jpg,stim_02/d.jpg,stim_02/c.jpg,1,2,f,2,38,158,27,f,1,0.966408439034,02,01,60.0169591309,PLT_learning_02,N,2014_Feb_06_1754,P05,
stim_fb/ques.jpg,stim_fb/negf.jpg,stim_fb/posf.jpg,stim_02/b.jpg,stim_02/a.jpg,1,1,f,2,39,159,0,f,1,0.983065207029,02,01,60.0169591309,PLT_learning_02,N,2014_Feb_06_1754,P05,
stim_fb/ques.jpg,stim_fb/negf.jpg,stim_fb/posf.jpg,stim_02/e.jpg,stim_02/f.jpg,2,3,j,2,40,160,53,j,1,0.783125393042,02,01,60.0169591309,PLT_learning_02,N,2014_Feb_06_1754,P05,
stim_fb/ques.jpg,stim_fb/negf.jpg,stim_fb/posf.jpg,stim_02/b.jpg,stim_02/a.jpg,1,1,f,2,41,161,4,f,1,0.849771204728,02,01,60.0169591309,PLT_learning_02,N,2014_Feb_06_1754,P05,
stim_fb/ques.jpg,stim_fb/posf.jpg,stim_fb/negf.jpg,stim_02/e.jpg,stim_02/f.jpg,2,3,j,2,42,162,56,j,1,0.833107363102,02,01,60.0169591309,PLT_learning_02,N,2014_Feb_06_1754,P05,
stim_fb/ques.jpg,stim_fb/negf.jpg,stim_fb/posf.jpg,stim_02/a.jpg,stim_02/b.jpg,2,1,j,2,43,163,16,j,1,0.649835781686,02,01,60.0169591309,PLT_learning_02,N,2014_Feb_06_1754,P05,
stim_fb/ques.jpg,stim_fb/posf.jpg,stim_fb/negf.jpg,stim_02/e.jpg,stim_02/f.jpg,2,3,j,2,44,164,58,j,1,0.749801802994,02,01,60.0169591309,PLT_learning_02,N,2014_Feb_06_1754,P05,
stim_fb/ques.jpg,stim_fb/negf.jpg,stim_fb/posf.jpg,stim_02/c.jpg,stim_02/d.jpg,2,2,j,2,45,165,33,f,0,0.799783532455,02,01,60.0169591309,PLT_learning_02,N,2014_Feb_06_1754,P05,
stim_fb/ques.jpg,stim_fb/negf.jpg,stim_fb/posf.jpg,stim_02/d.jpg,stim_02/c.jpg,1,2,f,2,46,166,24,f,1,0.916414429967,02,01,60.0169591309,PLT_learning_02,N,2014_Feb_06_1754,P05,
stim_fb/ques.jpg,stim_fb/posf.jpg,stim_fb/negf.jpg,stim_02/f.jpg,stim_02/e.jpg,1,3,f,2,47,167,49,f,1,0.699812395395,02,01,60.0169591309,PLT_learning_02,N,2014_Feb_06_1754,P05,
stim_fb/ques.jpg,stim_fb/negf.jpg,stim_fb/posf.jpg,stim_02/a.jpg,stim_02/b.jpg,2,1,j,2,48,168,11,j,1,0.733144550793,02,01,60.0169591309,PLT_learning_02,N,2014_Feb_06_1754,P05,
stim_fb/ques.jpg,stim_fb/negf.jpg,stim_fb/posf.jpg,stim_02/d.jpg,stim_02/c.jpg,1,2,f,2,49,169,23,f,1,0.749765917549,02,01,60.0169591309,PLT_learning_02,N,2014_Feb_06_1754,P05,
stim_fb/ques.jpg,stim_fb/posf.jpg,stim_fb/negf.jpg,stim_02/c.jpg,stim_02/d.jpg,2,2,j,2,50,170,38,j,1,1.03301764949,02,01,60.0169591309,PLT_learning_02,N,2014_Feb_06_1754,P05,
stim_fb/ques.jpg,stim_fb/negf.jpg,stim_fb/posf.jpg,stim_02/a.jpg,stim_02/b.jpg,2,1,j,2,51,171,15,j,1,0.61653587567,02,01,60.0169591309,PLT_learning_02,N,2014_Feb_06_1754,P05,
stim_fb/ques.jpg,stim_fb/negf.jpg,stim_fb/posf.jpg,stim_02/b.jpg,stim_02/a.jpg,1,1,f,2,52,172,6,f,1,0.566522597574,02,01,60.0169591309,PLT_learning_02,N,2014_Feb_06_1754,P05,
stim_fb/ques.jpg,stim_fb/negf.jpg,stim_fb/posf.jpg,stim_02/f.jpg,stim_02/e.jpg,1,3,f,2,53,173,42,f,1,0.649827318592,02,01,60.0169591309,PLT_learning_02,N,2014_Feb_06_1754,P05,
stim_fb/ques.jpg,stim_fb/posf.jpg,stim_fb/negf.jpg,stim_02/e.jpg,stim_02/f.jpg,2,3,j,2,54,174,59,j,1,0.666491731641,02,01,60.0169591309,PLT_learning_02,N,2014_Feb_06_1754,P05,
stim_fb/ques.jpg,stim_fb/posf.jpg,stim_fb/negf.jpg,stim_02/d.jpg,stim_02/c.jpg,1,2,f,2,55,175,28,f,1,0.7164766701,02,01,60.0169591309,PLT_learning_02,N,2014_Feb_06_1754,P05,
stim_fb/ques.jpg,stim_fb/negf.jpg,stim_fb/posf.jpg,stim_02/d.jpg,stim_02/c.jpg,1,2,f,2,56,176,21,f,1,1.0163805836,02,01,60.0169591309,PLT_learning_02,N,2014_Feb_06_1754,P05,
stim_fb/ques.jpg,stim_fb/negf.jpg,stim_fb/posf.jpg,stim_02/c.jpg,stim_02/d.jpg,2,2,j,2,57,177,31,f,0,1.21633255389,02,01,60.0169591309,PLT_learning_02,N,2014_Feb_06_1754,P05,
stim_fb/ques.jpg,stim_fb/negf.jpg,stim_fb/posf.jpg,stim_02/c.jpg,stim_02/d.jpg,2,2,j,2,58,178,30,j,1,0.5831294682,02,01,60.0169591309,PLT_learning_02,N,2014_Feb_06_1754,P05,
stim_fb/ques.jpg,stim_fb/negf.jpg,stim_fb/posf.jpg,stim_02/c.jpg,stim_02/d.jpg,2,2,j,2,59,179,34,j,1,0.716477076112,02,01,60.0169591309,PLT_learning_02,N,2014_Feb_06_1754,P05,
stim_fb/ques.jpg,stim_fb/negf.jpg,stim_fb/posf.jpg,stim_02/b.jpg,stim_02/a.jpg,1,1,f,3,0,180,1,f,1,0.833102857873,02,01,60.0169591309,PLT_learning_02,N,2014_Feb_06_1754,P05,
stim_fb/ques.jpg,stim_fb/negf.jpg,stim_fb/posf.jpg,stim_02/c.jpg,stim_02/d.jpg,2,2,j,3,1,181,36,j,1,1.11632787723,02,01,60.0169591309,PLT_learning_02,N,2014_Feb_06_1754,P05,
stim_fb/ques.jpg,stim_fb/negf.jpg,stim_fb/posf.jpg,stim_02/b.jpg,stim_02/a.jpg,1,1,f,3,2,182,5,f,1,0.666484435455,02,01,60.0169591309,PLT_learning_02,N,2014_Feb_06_1754,P05,
stim_fb/ques.jpg,stim_fb/negf.jpg,stim_fb/posf.jpg,stim_02/e.jpg,stim_02/f.jpg,2,3,j,3,3,183,52,j,1,0.783129687747,02,01,60.0169591309,PLT_learning_02,N,2014_Feb_06_1754,P05,
stim_fb/ques.jpg,stim_fb/negf.jpg,stim_fb/posf.jpg,stim_02/e.jpg,stim_02/f.jpg,2,3,j,3,4,184,54,j,1,0.799797324832,02,01,60.0169591309,PLT_learning_02,N,2014_Feb_06_1754,P05,
stim_fb/ques.jpg,stim_fb/negf.jpg,stim_fb/posf.jpg,stim_02/d.jpg,stim_02/c.jpg,1,2,f,3,5,185,20,f,1,0.866444354554,02,01,60.0169591309,PLT_learning_02,N,2014_Feb_06_1754,P05,
stim_fb/ques.jpg,stim_fb/posf.jpg,stim_fb/negf.jpg,stim_02/c.jpg,stim_02/d.jpg,2,2,j,3,6,186,37,f,0,0.833077197916,02,01,60.0169591309,PLT_learning_02,N,2014_Feb_06_1754,P05,
stim_fb/ques.jpg,stim_fb/negf.jpg,stim_fb/posf.jpg,stim_02/c.jpg,stim_02/d.jpg,2,2,j,3,7,187,31,f,0,0.883065315298,02,01,60.0169591309,PLT_learning_02,N,2014_Feb_06_1754,P05,
stim_fb/ques.jpg,stim_fb/negf.jpg,stim_fb/posf.jpg,stim_02/d.jpg,stim_02/c.jpg,1,2,f,3,8,188,25,f,1,1.41613316892,02,01,60.0169591309,PLT_learning_02,N,2014_Feb_06_1754,P05,
stim_fb/ques.jpg,stim_fb/posf.jpg,stim_fb/negf.jpg,stim_02/f.jpg,stim_02/e.jpg,1,3,f,3,9,189,49,f,1,0.933081155781,02,01,60.0169591309,PLT_learning_02,N,2014_Feb_06_1754,P05,
stim_fb/ques.jpg,stim_fb/negf.jpg,stim_fb/posf.jpg,stim_02/d.jpg,stim_02/c.jpg,1,2,f,3,10,190,22,f,1,1.14965964466,02,01,60.0169591309,PLT_learning_02,N,2014_Feb_06_1754,P05,
stim_fb/ques.jpg,stim_fb/posf.jpg,stim_fb/negf.jpg,stim_02/e.jpg,stim_02/f.jpg,2,3,j,3,11,191,56,j,1,0.783125618605,02,01,60.0169591309,PLT_learning_02,N,2014_Feb_06_1754,P05,
stim_fb/ques.jpg,stim_fb/posf.jpg,stim_fb/negf.jpg,stim_02/f.jpg,stim_02/e.jpg,1,3,f,3,12,192,48,f,1,0.916413482605,02,01,60.0169591309,PLT_learning_02,N,2014_Feb_06_1754,P05,
stim_fb/ques.jpg,stim_fb/posf.jpg,stim_fb/negf.jpg,stim_02/c.jpg,stim_02/d.jpg,2,2,j,3,13,193,39,f,0,1.29965528079,02,01,60.0169591309,PLT_learning_02,N,2014_Feb_06_1754,P05,
stim_fb/ques.jpg,stim_fb/posf.jpg,stim_fb/negf.jpg,stim_02/d.jpg,stim_02/c.jpg,1,2,f,3,14,194,29,f,1,0.649835288456,02,01,60.0169591309,PLT_learning_02,N,2014_Feb_06_1754,P05,
stim_fb/ques.jpg,stim_fb/negf.jpg,stim_fb/posf.jpg,stim_02/a.jpg,stim_02/b.jpg,2,1,j,3,15,195,17,j,1,0.816440811723,02,01,60.0169591309,PLT_learning_02,N,2014_Feb_06_1754,P05,
stim_fb/ques.jpg,stim_fb/negf.jpg,stim_fb/posf.jpg,stim_02/d.jpg,stim_02/c.jpg,1,2,f,3,16,196,24,f,1,0.916397139871,02,01,60.0169591309,PLT_learning_02,N,2014_Feb_06_1754,P05,
stim_fb/ques.jpg,stim_fb/negf.jpg,stim_fb/posf.jpg,stim_02/b.jpg,stim_02/a.jpg,1,1,f,3,17,197,4,f,1,0.916421139691,02,01,60.0169591309,PLT_learning_02,N,2014_Feb_06_1754,P05,
stim_fb/ques.jpg,stim_fb/negf.jpg,stim_fb/posf.jpg,stim_02/e.jpg,stim_02/f.jpg,2,3,j,3,18,198,50,j,1,0.933072602462,02,01,60.0169591309,PLT_learning_02,N,2014_Feb_06_1754,P05,
stim_fb/ques.jpg,stim_fb/negf.jpg,stim_fb/posf.jpg,stim_02/a.jpg,stim_02/b.jpg,2,1,j,3,19,199,13,j,1,0.633222856971,02,01,60.0169591309,PLT_learning_02,N,2014_Feb_06_1754,P05,
stim_fb/ques.jpg,stim_fb/negf.jpg,stim_fb/posf.jpg,stim_02/f.jpg,stim_02/e.jpg,1,3,f,3,20,200,41,f,1,0.649839556093,02,01,60.0169591309,PLT_learning_02,N,2014_Feb_06_1754,P05,
stim_fb/ques.jpg,stim_fb/posf.jpg,stim_fb/negf.jpg,stim_02/e.jpg,stim_02/f.jpg,2,3,j,3,21,201,59,j,1,0.633192700807,02,01,60.0169591309,PLT_learning_02,N,2014_Feb_06_1754,P05,
stim_fb/ques.jpg,stim_fb/posf.jpg,stim_fb/negf.jpg,stim_02/a.jpg,stim_02/b.jpg,2,1,j,3,22,202,19,j,1,0.616502745092,02,01,60.0169591309,PLT_learning_02,N,2014_Feb_06_1754,P05,
stim_fb/ques.jpg,stim_fb/negf.jpg,stim_fb/posf.jpg,stim_02/b.jpg,stim_02/a.jpg,1,1,f,3,23,203,3,f,1,0.649828190765,02,01,60.0169591309,PLT_learning_02,N,2014_Feb_06_1754,P05,
stim_fb/ques.jpg,stim_fb/posf.jpg,stim_fb/negf.jpg,stim_02/b.jpg,stim_02/a.jpg,1,1,f,3,24,204,8,f,1,0.983067655131,02,01,60.0169591309,PLT_learning_02,N,2014_Feb_06_1754,P05,
stim_fb/ques.jpg,stim_fb/negf.jpg,stim_fb/posf.jpg,stim_02/f.jpg,stim_02/e.jpg,1,3,f,3,25,205,42,f,1,0.666498633845,02,01,60.0169591309,PLT_learning_02,N,2014_Feb_06_1754,P05,
stim_fb/ques.jpg,stim_fb/negf.jpg,stim_fb/posf.jpg,stim_02/c.jpg,stim_02/d.jpg,2,2,j,3,26,206,30,j,1,0.79976389952,02,01,60.0169591309,PLT_learning_02,N,2014_Feb_06_1754,P05,
stim_fb/ques.jpg,stim_fb/negf.jpg,stim_fb/posf.jpg,stim_02/b.jpg,stim_02/a.jpg,1,1,f,3,27,207,6,f,1,0.716483629446,02,01,60.0169591309,PLT_learning_02,N,2014_Feb_06_1754,P05,
stim_fb/ques.jpg,stim_fb/posf.jpg,stim_fb/negf.jpg,stim_02/d.jpg,stim_02/c.jpg,1,2,f,3,28,208,28,f,1,0.549869943835,02,01,60.0169591309,PLT_learning_02,N,2014_Feb_06_1754,P05,
stim_fb/ques.jpg,stim_fb/negf.jpg,stim_fb/posf.jpg,stim_02/a.jpg,stim_02/b.jpg,2,1,j,3,29,209,14,j,1,0.716477677611,02,01,60.0169591309,PLT_learning_02,N,2014_Feb_06_1754,P05,
stim_fb/ques.jpg,stim_fb/negf.jpg,stim_fb/posf.jpg,stim_02/d.jpg,stim_02/c.jpg,1,2,f,3,30,210,26,f,1,0.516518456252,02,01,60.0169591309,PLT_learning_02,N,2014_Feb_06_1754,P05,
stim_fb/ques.jpg,stim_fb/negf.jpg,stim_fb/posf.jpg,stim_02/a.jpg,stim_02/b.jpg,2,1,j,3,31,211,16,j,1,0.782985538455,02,01,60.0169591309,PLT_learning_02,N,2014_Feb_06_1754,P05,
stim_fb/ques.jpg,stim_fb/negf.jpg,stim_fb/posf.jpg,stim_02/d.jpg,stim_02/c.jpg,1,2,f,3,32,212,23,j,0,0.799791640664,02,01,60.0169591309,PLT_learning_02,N,2014_Feb_06_1754,P05,
stim_fb/ques.jpg,stim_fb/negf.jpg,stim_fb/posf.jpg,stim_02/e.jpg,stim_02/f.jpg,2,3,j,3,33,213,53,j,1,0.899762052917,02,01,60.0169591309,PLT_learning_02,N,2014_Feb_06_1754,P05,
stim_fb/ques.jpg,stim_fb/negf.jpg,stim_fb/posf.jpg,stim_02/d.jpg,stim_02/c.jpg,1,2,f,3,34,214,21,f,1,0.566525875745,02,01,60.0169591309,PLT_learning_02,N,2014_Feb_06_1754,P05,
stim_fb/ques.jpg,stim_fb/posf.jpg,stim_fb/negf.jpg,stim_02/f.jpg,stim_02/e.jpg,1,3,f,3,35,215,46,f,1,0.749810233006,02,01,60.0169591309,PLT_learning_02,N,2014_Feb_06_1754,P05,
stim_fb/ques.jpg,stim_fb/negf.jpg,stim_fb/posf.jpg,stim_02/f.jpg,stim_02/e.jpg,1,3,f,3,36,216,40,f,1,0.633159756693,02,01,60.0169591309,PLT_learning_02,N,2014_Feb_06_1754,P05,
stim_fb/ques.jpg,stim_fb/negf.jpg,stim_fb/posf.jpg,stim_02/c.jpg,stim_02/d.jpg,2,2,j,3,37,217,32,j,1,0.616503776663,02,01,60.0169591309,PLT_learning_02,N,2014_Feb_06_1754,P05,
stim_fb/ques.jpg,stim_fb/negf.jpg,stim_fb/posf.jpg,stim_02/b.jpg,stim_02/a.jpg,1,1,f,3,38,218,2,f,1,0.716445936497,02,01,60.0169591309,PLT_learning_02,N,2014_Feb_06_1754,P05,
stim_fb/ques.jpg,stim_fb/posf.jpg,stim_fb/negf.jpg,stim_02/e.jpg,stim_02/f.jpg,2,3,j,3,39,219,58,j,1,0.73311149841,02,01,60.0169591309,PLT_learning_02,N,2014_Feb_06_1754,P05,
stim_fb/ques.jpg,stim_fb/negf.jpg,stim_fb/posf.jpg,stim_02/c.jpg,stim_02/d.jpg,2,2,j,3,40,220,35,j,1,0.799784612146,02,01,60.0169591309,PLT_learning_02,N,2014_Feb_06_1754,P05,
stim_fb/ques.jpg,stim_fb/posf.jpg,stim_fb/negf.jpg,stim_02/a.jpg,stim_02/b.jpg,2,1,j,3,41,221,18,j,1,0.633167904001,02,01,60.0169591309,PLT_learning_02,N,2014_Feb_06_1754,P05,
stim_fb/ques.jpg,stim_fb/negf.jpg,stim_fb/posf.jpg,stim_02/c.jpg,stim_02/d.jpg,2,2,j,3,42,222,34,j,1,0.799837092954,02,01,60.0169591309,PLT_learning_02,N,2014_Feb_06_1754,P05,
stim_fb/ques.jpg,stim_fb/posf.jpg,stim_fb/negf.jpg,stim_02/b.jpg,stim_02/a.jpg,1,1,f,3,43,223,9,f,1,0.699851922918,02,01,60.0169591309,PLT_learning_02,N,2014_Feb_06_1754,P05,
stim_fb/ques.jpg,stim_fb/posf.jpg,stim_fb/negf.jpg,stim_02/c.jpg,stim_02/d.jpg,2,2,j,3,44,224,38,j,1,0.816465779957,02,01,60.0169591309,PLT_learning_02,N,2014_Feb_06_1754,P05,
stim_fb/ques.jpg,stim_fb/negf.jpg,stim_fb/posf.jpg,stim_02/b.jpg,stim_02/a.jpg,1,1,f,3,45,225,7,f,1,0.683152210886,02,01,60.0169591309,PLT_learning_02,N,2014_Feb_06_1754,P05,
stim_fb/ques.jpg,stim_fb/negf.jpg,stim_fb/posf.jpg,stim_02/e.jpg,stim_02/f.jpg,2,3,j,3,46,226,51,j,1,0.699823541176,02,01,60.0169591309,PLT_learning_02,N,2014_Feb_06_1754,P05,
stim_fb/ques.jpg,stim_fb/posf.jpg,stim_fb/negf.jpg,stim_02/d.jpg,stim_02/c.jpg,1,2,f,3,47,227,27,f,1,0.666458685273,02,01,60.0169591309,PLT_learning_02,N,2014_Feb_06_1754,P05,
stim_fb/ques.jpg,stim_fb/negf.jpg,stim_fb/posf.jpg,stim_02/f.jpg,stim_02/e.jpg,1,3,f,3,48,228,45,f,1,0.71648860986,02,01,60.0169591309,PLT_learning_02,N,2014_Feb_06_1754,P05,
stim_fb/ques.jpg,stim_fb/negf.jpg,stim_fb/posf.jpg,stim_02/c.jpg,stim_02/d.jpg,2,2,j,3,49,229,33,j,1,0.61651660965,02,01,60.0169591309,PLT_learning_02,N,2014_Feb_06_1754,P05,
stim_fb/ques.jpg,stim_fb/negf.jpg,stim_fb/posf.jpg,stim_02/a.jpg,stim_02/b.jpg,2,1,j,3,50,230,15,j,1,0.783118599108,02,01,60.0169591309,PLT_learning_02,N,2014_Feb_06_1754,P05,
stim_fb/ques.jpg,stim_fb/negf.jpg,stim_fb/posf.jpg,stim_02/f.jpg,stim_02/e.jpg,1,3,f,3,51,231,44,f,1,0.666385073796,02,01,60.0169591309,PLT_learning_02,N,2014_Feb_06_1754,P05,
stim_fb/ques.jpg,stim_fb/negf.jpg,stim_fb/posf.jpg,stim_02/b.jpg,stim_02/a.jpg,1,1,f,3,52,232,0,f,1,0.633171070894,02,01,60.0169591309,PLT_learning_02,N,2014_Feb_06_1754,P05,
stim_fb/ques.jpg,stim_fb/negf.jpg,stim_fb/posf.jpg,stim_02/a.jpg,stim_02/b.jpg,2,1,j,3,53,233,10,j,1,0.583201578936,02,01,60.0169591309,PLT_learning_02,N,2014_Feb_06_1754,P05,
stim_fb/ques.jpg,stim_fb/negf.jpg,stim_fb/posf.jpg,stim_02/e.jpg,stim_02/f.jpg,2,3,j,3,54,234,55,j,1,0.749803781926,02,01,60.0169591309,PLT_learning_02,N,2014_Feb_06_1754,P05,
stim_fb/ques.jpg,stim_fb/negf.jpg,stim_fb/posf.jpg,stim_02/a.jpg,stim_02/b.jpg,2,1,j,3,55,235,12,j,1,0.666493764709,02,01,60.0169591309,PLT_learning_02,N,2014_Feb_06_1754,P05,
stim_fb/ques.jpg,stim_fb/posf.jpg,stim_fb/negf.jpg,stim_02/f.jpg,stim_02/e.jpg,1,3,f,3,56,236,47,f,1,0.533201627055,02,01,60.0169591309,PLT_learning_02,N,2014_Feb_06_1754,P05,
stim_fb/ques.jpg,stim_fb/negf.jpg,stim_fb/posf.jpg,stim_02/f.jpg,stim_02/e.jpg,1,3,f,3,57,237,43,f,1,0.54984450944,02,01,60.0169591309,PLT_learning_02,N,2014_Feb_06_1754,P05,
stim_fb/ques.jpg,stim_fb/posf.jpg,stim_fb/negf.jpg,stim_02/e.jpg,stim_02/f.jpg,2,3,j,3,58,238,57,j,1,0.683161073977,02,01,60.0169591309,PLT_learning_02,N,2014_Feb_06_1754,P05,
stim_fb/ques.jpg,stim_fb/negf.jpg,stim_fb/posf.jpg,stim_02/a.jpg,stim_02/b.jpg,2,1,j,3,59,239,11,j,1,0.666495975218,02,01,60.0169591309,PLT_learning_02,N,2014_Feb_06_1754,P05,
stim_fb/ques.jpg,stim_fb/negf.jpg,stim_fb/posf.jpg,stim_02/b.jpg,stim_02/a.jpg,1,1,f,4,0,240,0,f,1,0.983058861211,02,01,60.0169591309,PLT_learning_02,N,2014_Feb_06_1754,P05,
stim_fb/ques.jpg,stim_fb/negf.jpg,stim_fb/posf.jpg,stim_02/d.jpg,stim_02/c.jpg,1,2,f,4,1,241,20,f,1,0.716502005248,02,01,60.0169591309,PLT_learning_02,N,2014_Feb_06_1754,P05,
stim_fb/ques.jpg,stim_fb/negf.jpg,stim_fb/posf.jpg,stim_02/c.jpg,stim_02/d.jpg,2,2,j,4,2,242,32,j,1,0.749811709686,02,01,60.0169591309,PLT_learning_02,N,2014_Feb_06_1754,P05,
stim_fb/ques.jpg,stim_fb/negf.jpg,stim_fb/posf.jpg,stim_02/f.jpg,stim_02/e.jpg,1,3,f,4,3,243,42,f,1,0.616508089413,02,01,60.0169591309,PLT_learning_02,N,2014_Feb_06_1754,P05,
stim_fb/ques.jpg,stim_fb/posf.jpg,stim_fb/negf.jpg,stim_02/e.jpg,stim_02/f.jpg,2,3,j,4,4,244,56,j,1,0.63319828272,02,01,60.0169591309,PLT_learning_02,N,2014_Feb_06_1754,P05,
stim_fb/ques.jpg,stim_fb/negf.jpg,stim_fb/posf.jpg,stim_02/a.jpg,stim_02/b.jpg,2,1,j,4,5,245,13,j,1,0.649873868618,02,01,60.0169591309,PLT_learning_02,N,2014_Feb_06_1754,P05,
stim_fb/ques.jpg,stim_fb/negf.jpg,stim_fb/posf.jpg,stim_02/f.jpg,stim_02/e.jpg,1,3,f,4,6,246,45,f,1,0.599816422433,02,01,60.0169591309,PLT_learning_02,N,2014_Feb_06_1754,P05,
stim_fb/ques.jpg,stim_fb/posf.jpg,stim_fb/negf.jpg,stim_02/e.jpg,stim_02/f.jpg,2,3,j,4,7,247,58,j,1,0.616514741994,02,01,60.0169591309,PLT_learning_02,N,2014_Feb_06_1754,P05,
stim_fb/ques.jpg,stim_fb/negf.jpg,stim_fb/posf.jpg,stim_02/b.jpg,stim_02/a.jpg,1,1,f,4,8,248,2,f,1,0.566527938888,02,01,60.0169591309,PLT_learning_02,N,2014_Feb_06_1754,P05,
stim_fb/ques.jpg,stim_fb/negf.jpg,stim_fb/posf.jpg,stim_02/a.jpg,stim_02/b.jpg,2,1,j,4,9,249,11,j,1,0.616447527462,02,01,60.0169591309,PLT_learning_02,N,2014_Feb_06_1754,P05,
stim_fb/ques.jpg,stim_fb/negf.jpg,stim_fb/posf.jpg,stim_02/a.jpg,stim_02/b.jpg,2,1,j,4,10,250,14,j,1,0.599839324516,02,01,60.0169591309,PLT_learning_02,N,2014_Feb_06_1754,P05,
stim_fb/ques.jpg,stim_fb/negf.jpg,stim_fb/posf.jpg,stim_02/e.jpg,stim_02/f.jpg,2,3,j,4,11,251,53,j,1,0.633171103977,02,01,60.0169591309,PLT_learning_02,N,2014_Feb_06_1754,P05,
stim_fb/ques.jpg,stim_fb/negf.jpg,stim_fb/posf.jpg,stim_02/f.jpg,stim_02/e.jpg,1,3,f,4,12,252,43,f,1,0.516519072789,02,01,60.0169591309,PLT_learning_02,N,2014_Feb_06_1754,P05,
stim_fb/ques.jpg,stim_fb/posf.jpg,stim_fb/negf.jpg,stim_02/d.jpg,stim_02/c.jpg,1,2,f,4,13,253,29,f,1,0.816406414989,02,01,60.0169591309,PLT_learning_02,N,2014_Feb_06_1754,P05,
stim_fb/ques.jpg,stim_fb/posf.jpg,stim_fb/negf.jpg,stim_02/f.jpg,stim_02/e.jpg,1,3,f,4,14,254,49,f,1,0.599867670168,02,01,60.0169591309,PLT_learning_02,N,2014_Feb_06_1754,P05,
stim_fb/ques.jpg,stim_fb/negf.jpg,stim_fb/posf.jpg,stim_02/b.jpg,stim_02/a.jpg,1,1,f,4,15,255,1,j,0,0.649835288456,02,01,60.0169591309,PLT_learning_02,N,2014_Feb_06_1754,P05,
stim_fb/ques.jpg,stim_fb/negf.jpg,stim_fb/posf.jpg,stim_02/e.jpg,stim_02/f.jpg,2,3,j,4,16,256,52,j,1,0.866428228359,02,01,60.0169591309,PLT_learning_02,N,2014_Feb_06_1754,P05,
stim_fb/ques.jpg,stim_fb/negf.jpg,stim_fb/posf.jpg,stim_02/b.jpg,stim_02/a.jpg,1,1,f,4,17,257,4,f,1,0.633193855685,02,01,60.0169591309,PLT_learning_02,N,2014_Feb_06_1754,P05,
stim_fb/ques.jpg,stim_fb/negf.jpg,stim_fb/posf.jpg,stim_02/b.jpg,stim_02/a.jpg,1,1,f,4,18,258,6,f,1,0.849728335877,02,01,60.0169591309,PLT_learning_02,N,2014_Feb_06_1754,P05,
stim_fb/ques.jpg,stim_fb/negf.jpg,stim_fb/posf.jpg,stim_02/b.jpg,stim_02/a.jpg,1,1,f,4,19,259,3,f,1,0.533204830039,02,01,60.0169591309,PLT_learning_02,N,2014_Feb_06_1754,P05,
stim_fb/ques.jpg,stim_fb/negf.jpg,stim_fb/posf.jpg,stim_02/f.jpg,stim_02/e.jpg,1,3,f,4,20,260,41,f,1,0.716467819039,02,01,60.0169591309,PLT_learning_02,N,2014_Feb_06_1754,P05,
stim_fb/ques.jpg,stim_fb/posf.jpg,stim_fb/negf.jpg,stim_02/e.jpg,stim_02/f.jpg,2,3,j,4,21,261,59,j,1,0.633140343306,02,01,60.0169591309,PLT_learning_02,N,2014_Feb_06_1754,P05,
stim_fb/ques.jpg,stim_fb/negf.jpg,stim_fb/posf.jpg,stim_02/a.jpg,stim_02/b.jpg,2,1,j,4,22,262,16,j,1,0.599851089841,02,01,60.0169591309,PLT_learning_02,N,2014_Feb_06_1754,P05,
stim_fb/ques.jpg,stim_fb/negf.jpg,stim_fb/posf.jpg,stim_02/d.jpg,stim_02/c.jpg,1,2,f,4,23,263,25,f,1,0.733218574296,02,01,60.0169591309,PLT_learning_02,N,2014_Feb_06_1754,P05,
stim_fb/ques.jpg,stim_fb/posf.jpg,stim_fb/negf.jpg,stim_02/c.jpg,stim_02/d.jpg,2,2,j,4,24,264,38,j,1,0.899756531154,02,01,60.0169591309,PLT_learning_02,N,2014_Feb_06_1754,P05,
stim_fb/ques.jpg,stim_fb/negf.jpg,stim_fb/posf.jpg,stim_02/c.jpg,stim_02/d.jpg,2,2,j,4,25,265,36,j,1,0.616496396268,02,01,60.0169591309,PLT_learning_02,N,2014_Feb_06_1754,P05,
stim_fb/ques.jpg,stim_fb/posf.jpg,stim_fb/negf.jpg,stim_02/f.jpg,stim_02/e.jpg,1,3,f,4,26,266,48,f,1,0.733118484824,02,01,60.0169591309,PLT_learning_02,N,2014_Feb_06_1754,P05,
stim_fb/ques.jpg,stim_fb/posf.jpg,stim_fb/negf.jpg,stim_02/b.jpg,stim_02/a.jpg,1,1,f,4,27,267,8,f,1,0.616485999353,02,01,60.0169591309,PLT_learning_02,N,2014_Feb_06_1754,P05,
stim_fb/ques.jpg,stim_fb/negf.jpg,stim_fb/posf.jpg,stim_02/c.jpg,stim_02/d.jpg,2,2,j,4,28,268,35,j,1,0.733118412644,02,01,60.0169591309,PLT_learning_02,N,2014_Feb_06_1754,P05,
stim_fb/ques.jpg,stim_fb/posf.jpg,stim_fb/negf.jpg,stim_02/f.jpg,stim_02/e.jpg,1,3,f,4,29,269,46,f,1,0.583178866324,02,01,60.0169591309,PLT_learning_02,N,2014_Feb_06_1754,P05,
stim_fb/ques.jpg,stim_fb/posf.jpg,stim_fb/negf.jpg,stim_02/d.jpg,stim_02/c.jpg,1,2,f,4,30,270,27,f,1,0.699821568259,02,01,60.0169591309,PLT_learning_02,N,2014_Feb_06_1754,P05,
stim_fb/ques.jpg,stim_fb/negf.jpg,stim_fb/posf.jpg,stim_02/a.jpg,stim_02/b.jpg,2,1,j,4,31,271,12,j,1,0.583192772987,02,01,60.0169591309,PLT_learning_02,N,2014_Feb_06_1754,P05,
stim_fb/ques.jpg,stim_fb/negf.jpg,stim_fb/posf.jpg,stim_02/d.jpg,stim_02/c.jpg,1,2,f,4,32,272,24,f,1,0.583200712776,02,01,60.0169591309,PLT_learning_02,N,2014_Feb_06_1754,P05,
stim_fb/ques.jpg,stim_fb/negf.jpg,stim_fb/posf.jpg,stim_02/a.jpg,stim_02/b.jpg,2,1,j,4,33,273,10,j,1,0.616486570778,02,01,60.0169591309,PLT_learning_02,N,2014_Feb_06_1754,P05,
stim_fb/ques.jpg,stim_fb/negf.jpg,stim_fb/posf.jpg,stim_02/c.jpg,stim_02/d.jpg,2,2,j,4,34,274,31,j,1,0.69980875031,02,01,60.0169591309,PLT_learning_02,N,2014_Feb_06_1754,P05,
stim_fb/ques.jpg,stim_fb/negf.jpg,stim_fb/posf.jpg,stim_02/e.jpg,stim_02/f.jpg,2,3,j,4,35,275,51,j,1,0.699821887054,02,01,60.0169591309,PLT_learning_02,N,2014_Feb_06_1754,P05,
stim_fb/ques.jpg,stim_fb/posf.jpg,stim_fb/negf.jpg,stim_02/c.jpg,stim_02/d.jpg,2,2,j,4,36,276,37,j,1,0.516546434989,02,01,60.0169591309,PLT_learning_02,N,2014_Feb_06_1754,P05,
stim_fb/ques.jpg,stim_fb/negf.jpg,stim_fb/posf.jpg,stim_02/f.jpg,stim_02/e.jpg,1,3,f,4,37,277,40,f,1,0.699865868678,02,01,60.0169591309,PLT_learning_02,N,2014_Feb_06_1754,P05,
stim_fb/ques.jpg,stim_fb/posf.jpg,stim_fb/negf.jpg,stim_02/c.jpg,stim_02/d.jpg,2,2,j,4,38,278,39,j,1,0.683167116037,02,01,60.0169591309,PLT_learning_02,N,2014_Feb_06_1754,P05,
stim_fb/ques.jpg,stim_fb/negf.jpg,stim_fb/posf.jpg,stim_02/d.jpg,stim_02/c.jpg,1,2,f,4,39,279,26,f,1,0.666489894061,02,01,60.0169591309,PLT_learning_02,N,2014_Feb_06_1754,P05,
stim_fb/ques.jpg,stim_fb/negf.jpg,stim_fb/posf.jpg,stim_02/b.jpg,stim_02/a.jpg,1,1,f,4,40,280,7,f,1,0.833994036135,02,01,60.0169591309,PLT_learning_02,N,2014_Feb_06_1754,P05,
stim_fb/ques.jpg,stim_fb/negf.jpg,stim_fb/posf.jpg,stim_02/d.jpg,stim_02/c.jpg,1,2,f,4,41,281,23,f,1,0.583070746836,02,01,60.0169591309,PLT_learning_02,N,2014_Feb_06_1754,P05,
stim_fb/ques.jpg,stim_fb/negf.jpg,stim_fb/posf.jpg,stim_02/a.jpg,stim_02/b.jpg,2,1,j,4,42,282,15,j,1,0.899745030488,02,01,60.0169591309,PLT_learning_02,N,2014_Feb_06_1754,P05,
stim_fb/ques.jpg,stim_fb/posf.jpg,stim_fb/negf.jpg,stim_02/b.jpg,stim_02/a.jpg,1,1,f,4,43,283,9,f,1,0.833100921046,02,01,60.0169591309,PLT_learning_02,N,2014_Feb_06_1754,P05,
stim_fb/ques.jpg,stim_fb/negf.jpg,stim_fb/posf.jpg,stim_02/d.jpg,stim_02/c.jpg,1,2,f,4,44,284,21,j,0,0.633141528259,02,01,60.0169591309,PLT_learning_02,N,2014_Feb_06_1754,P05,
stim_fb/ques.jpg,stim_fb/negf.jpg,stim_fb/posf.jpg,stim_02/f.jpg,stim_02/e.jpg,1,3,f,4,45,285,44,f,1,0.699820058496,02,01,60.0169591309,PLT_learning_02,N,2014_Feb_06_1754,P05,
stim_fb/ques.jpg,stim_fb/negf.jpg,stim_fb/posf.jpg,stim_02/e.jpg,stim_02/f.jpg,2,3,j,4,46,286,55,j,1,0.683167519041,02,01,60.0169591309,PLT_learning_02,N,2014_Feb_06_1754,P05,
stim_fb/ques.jpg,stim_fb/negf.jpg,stim_fb/posf.jpg,stim_02/e.jpg,stim_02/f.jpg,2,3,j,4,47,287,50,j,1,0.799789875264,02,01,60.0169591309,PLT_learning_02,N,2014_Feb_06_1754,P05,
stim_fb/ques.jpg,stim_fb/negf.jpg,stim_fb/posf.jpg,stim_02/d.jpg,stim_02/c.jpg,1,2,f,4,48,288,22,f,1,0.533194902294,02,01,60.0169591309,PLT_learning_02,N,2014_Feb_06_1754,P05,
stim_fb/ques.jpg,stim_fb/negf.jpg,stim_fb/posf.jpg,stim_02/c.jpg,stim_02/d.jpg,2,2,j,4,49,289,33,j,1,0.533181500891,02,01,60.0169591309,PLT_learning_02,N,2014_Feb_06_1754,P05,
stim_fb/ques.jpg,stim_fb/posf.jpg,stim_fb/negf.jpg,stim_02/e.jpg,stim_02/f.jpg,2,3,j,4,50,290,57,j,1,0.649848013173,02,01,60.0169591309,PLT_learning_02,N,2014_Feb_06_1754,P05,
stim_fb/ques.jpg,stim_fb/posf.jpg,stim_fb/negf.jpg,stim_02/f.jpg,stim_02/e.jpg,1,3,f,4,51,291,47,f,1,0.549883621928,02,01,60.0169591309,PLT_learning_02,N,2014_Feb_06_1754,P05,
stim_fb/ques.jpg,stim_fb/negf.jpg,stim_fb/posf.jpg,stim_02/c.jpg,stim_02/d.jpg,2,2,j,4,52,292,34,j,1,0.583104560116,02,01,60.0169591309,PLT_learning_02,N,2014_Feb_06_1754,P05,
stim_fb/ques.jpg,stim_fb/posf.jpg,stim_fb/negf.jpg,stim_02/d.jpg,stim_02/c.jpg,1,2,f,4,53,293,28,f,1,0.549864846129,02,01,60.0169591309,PLT_learning_02,N,2014_Feb_06_1754,P05,
stim_fb/ques.jpg,stim_fb/posf.jpg,stim_fb/negf.jpg,stim_02/a.jpg,stim_02/b.jpg,2,1,j,4,54,294,18,j,1,0.899759986767,02,01,60.0169591309,PLT_learning_02,N,2014_Feb_06_1754,P05,
stim_fb/ques.jpg,stim_fb/negf.jpg,stim_fb/posf.jpg,stim_02/c.jpg,stim_02/d.jpg,2,2,j,4,55,295,30,j,1,0.783217371298,02,01,60.0169591309,PLT_learning_02,N,2014_Feb_06_1754,P05,
stim_fb/ques.jpg,stim_fb/negf.jpg,stim_fb/posf.jpg,stim_02/e.jpg,stim_02/f.jpg,2,3,j,4,56,296,54,j,1,0.683117182578,02,01,60.0169591309,PLT_learning_02,N,2014_Feb_06_1754,P05,
stim_fb/ques.jpg,stim_fb/posf.jpg,stim_fb/negf.jpg,stim_02/a.jpg,stim_02/b.jpg,2,1,j,4,57,297,19,j,1,0.649852566522,02,01,60.0169591309,PLT_learning_02,N,2014_Feb_06_1754,P05,
stim_fb/ques.jpg,stim_fb/negf.jpg,stim_fb/posf.jpg,stim_02/b.jpg,stim_02/a.jpg,1,1,f,4,58,298,5,f,1,0.816413915685,02,01,60.0169591309,PLT_learning_02,N,2014_Feb_06_1754,P05,
stim_fb/ques.jpg,stim_fb/negf.jpg,stim_fb/posf.jpg,stim_02/a.jpg,stim_02/b.jpg,2,1,j,4,59,299,17,j,1,0.866457253705,02,01,60.0169591309,PLT_learning_02,N,2014_Feb_06_1754,P05,
stim_fb/ques.jpg,stim_fb/posf.jpg,stim_fb/negf.jpg,stim_02/e.jpg,stim_02/f.jpg,2,3,j,5,0,300,59,j,1,0.716479337749,02,01,60.0169591309,PLT_learning_02,N,2014_Feb_06_1754,P05,
stim_fb/ques.jpg,stim_fb/negf.jpg,stim_fb/posf.jpg,stim_02/a.jpg,stim_02/b.jpg,2,1,j,5,1,301,13,j,1,0.633146532733,02,01,60.0169591309,PLT_learning_02,N,2014_Feb_06_1754,P05,
stim_fb/ques.jpg,stim_fb/negf.jpg,stim_fb/posf.jpg,stim_02/b.jpg,stim_02/a.jpg,1,1,f,5,2,302,2,f,1,0.599785622665,02,01,60.0169591309,PLT_learning_02,N,2014_Feb_06_1754,P05,
stim_fb/ques.jpg,stim_fb/negf.jpg,stim_fb/posf.jpg,stim_02/e.jpg,stim_02/f.jpg,2,3,j,5,3,303,54,j,1,0.583192893286,02,01,60.0169591309,PLT_learning_02,N,2014_Feb_06_1754,P05,
stim_fb/ques.jpg,stim_fb/negf.jpg,stim_fb/posf.jpg,stim_02/c.jpg,stim_02/d.jpg,2,2,j,5,4,304,33,j,1,0.749829372711,02,01,60.0169591309,PLT_learning_02,N,2014_Feb_06_1754,P05,
stim_fb/ques.jpg,stim_fb/negf.jpg,stim_fb/posf.jpg,stim_02/a.jpg,stim_02/b.jpg,2,1,j,5,5,305,17,j,1,0.666463614559,02,01,60.0169591309,PLT_learning_02,N,2014_Feb_06_1754,P05,
stim_fb/ques.jpg,stim_fb/negf.jpg,stim_fb/posf.jpg,stim_02/b.jpg,stim_02/a.jpg,1,1,f,5,6,306,4,f,1,0.733108087909,02,01,60.0169591309,PLT_learning_02,N,2014_Feb_06_1754,P05,
stim_fb/ques.jpg,stim_fb/negf.jpg,stim_fb/posf.jpg,stim_02/c.jpg,stim_02/d.jpg,2,2,j,5,7,307,32,j,1,0.633188342945,02,01,60.0169591309,PLT_learning_02,N,2014_Feb_06_1754,P05,
stim_fb/ques.jpg,stim_fb/negf.jpg,stim_fb/posf.jpg,stim_02/b.jpg,stim_02/a.jpg,1,1,f,5,8,308,7,f,1,0.666406165367,02,01,60.0169591309,PLT_learning_02,N,2014_Feb_06_1754,P05,
stim_fb/ques.jpg,stim_fb/negf.jpg,stim_fb/posf.jpg,stim_02/f.jpg,stim_02/e.jpg,1,3,f,5,9,309,44,f,1,0.666474252073,02,01,60.0169591309,PLT_learning_02,N,2014_Feb_06_1754,P05,
stim_fb/ques.jpg,stim_fb/posf.jpg,stim_fb/negf.jpg,stim_02/b.jpg,stim_02/a.jpg,1,1,f,5,10,310,9,f,1,0.616500724055,02,01,60.0169591309,PLT_learning_02,N,2014_Feb_06_1754,P05,
stim_fb/ques.jpg,stim_fb/negf.jpg,stim_fb/posf.jpg,stim_02/b.jpg,stim_02/a.jpg,1,1,f,5,11,311,6,f,1,0.616534450117,02,01,60.0169591309,PLT_learning_02,N,2014_Feb_06_1754,P05,
stim_fb/ques.jpg,stim_fb/negf.jpg,stim_fb/posf.jpg,stim_02/c.jpg,stim_02/d.jpg,2,2,j,5,12,312,31,j,1,0.699825336651,02,01,60.0169591309,PLT_learning_02,N,2014_Feb_06_1754,P05,
stim_fb/ques.jpg,stim_fb/negf.jpg,stim_fb/posf.jpg,stim_02/d.jpg,stim_02/c.jpg,1,2,f,5,13,313,26,f,1,0.499864395004,02,01,60.0169591309,PLT_learning_02,N,2014_Feb_06_1754,P05,
stim_fb/ques.jpg,stim_fb/negf.jpg,stim_fb/posf.jpg,stim_02/c.jpg,stim_02/d.jpg,2,2,j,5,14,314,34,j,1,0.633139098202,02,01,60.0169591309,PLT_learning_02,N,2014_Feb_06_1754,P05,
stim_fb/ques.jpg,stim_fb/negf.jpg,stim_fb/posf.jpg,stim_02/f.jpg,stim_02/e.jpg,1,3,f,5,15,315,41,f,1,0.683160773227,02,01,60.0169591309,PLT_learning_02,N,2014_Feb_06_1754,P05,
stim_fb/ques.jpg,stim_fb/negf.jpg,stim_fb/posf.jpg,stim_02/b.jpg,stim_02/a.jpg,1,1,f,5,16,316,0,f,1,0.733131212548,02,01,60.0169591309,PLT_learning_02,N,2014_Feb_06_1754,P05,
stim_fb/ques.jpg,stim_fb/negf.jpg,stim_fb/posf.jpg,stim_02/c.jpg,stim_02/d.jpg,2,2,j,5,17,317,35,j,1,0.783141702694,02,01,60.0169591309,PLT_learning_02,N,2014_Feb_06_1754,P05,
stim_fb/ques.jpg,stim_fb/negf.jpg,stim_fb/posf.jpg,stim_02/b.jpg,stim_02/a.jpg,1,1,f,5,18,318,1,f,1,0.73317256562,02,01,60.0169591309,PLT_learning_02,N,2014_Feb_06_1754,P05,
stim_fb/ques.jpg,stim_fb/posf.jpg,stim_fb/negf.jpg,stim_02/f.jpg,stim_02/e.jpg,1,3,f,5,19,319,47,f,1,0.616475124247,02,01,60.0169591309,PLT_learning_02,N,2014_Feb_06_1754,P05,
stim_fb/ques.jpg,stim_fb/negf.jpg,stim_fb/posf.jpg,stim_02/a.jpg,stim_02/b.jpg,2,1,j,5,20,320,12,j,1,0.749800386463,02,01,60.0169591309,PLT_learning_02,N,2014_Feb_06_1754,P05,
stim_fb/ques.jpg,stim_fb/negf.jpg,stim_fb/posf.jpg,stim_02/a.jpg,stim_02/b.jpg,2,1,j,5,21,321,10,j,1,0.599861149916,02,01,60.0169591309,PLT_learning_02,N,2014_Feb_06_1754,P05,
stim_fb/ques.jpg,stim_fb/negf.jpg,stim_fb/posf.jpg,stim_02/e.jpg,stim_02/f.jpg,2,3,j,5,22,322,51,j,1,0.699822049458,02,01,60.0169591309,PLT_learning_02,N,2014_Feb_06_1754,P05,
stim_fb/ques.jpg,stim_fb/negf.jpg,stim_fb/posf.jpg,stim_02/b.jpg,stim_02/a.jpg,1,1,f,5,23,323,3,f,1,0.566571421268,02,01,60.0169591309,PLT_learning_02,N,2014_Feb_06_1754,P05,
stim_fb/ques.jpg,stim_fb/posf.jpg,stim_fb/negf.jpg,stim_02/f.jpg,stim_02/e.jpg,1,3,f,5,24,324,48,f,1,0.583194303802,02,01,60.0169591309,PLT_learning_02,N,2014_Feb_06_1754,P05,
stim_fb/ques.jpg,stim_fb/negf.jpg,stim_fb/posf.jpg,stim_02/e.jpg,stim_02/f.jpg,2,3,j,5,25,325,50,j,1,0.549846771077,02,01,60.0169591309,PLT_learning_02,N,2014_Feb_06_1754,P05,
stim_fb/ques.jpg,stim_fb/negf.jpg,stim_fb/posf.jpg,stim_02/a.jpg,stim_02/b.jpg,2,1,j,5,26,326,15,j,1,0.549883179826,02,01,60.0169591309,PLT_learning_02,N,2014_Feb_06_1754,P05,
stim_fb/ques.jpg,stim_fb/posf.jpg,stim_fb/negf.jpg,stim_02/c.jpg,stim_02/d.jpg,2,2,j,5,27,327,38,j,1,0.766437581672,02,01,60.0169591309,PLT_learning_02,N,2014_Feb_06_1754,P05,
stim_fb/ques.jpg,stim_fb/negf.jpg,stim_fb/posf.jpg,stim_02/d.jpg,stim_02/c.jpg,1,2,f,5,28,328,23,f,1,0.733133032083,02,01,60.0169591309,PLT_learning_02,N,2014_Feb_06_1754,P05,
stim_fb/ques.jpg,stim_fb/posf.jpg,stim_fb/negf.jpg,stim_02/e.jpg,stim_02/f.jpg,2,3,j,5,29,329,56,j,1,0.716465289735,02,01,60.0169591309,PLT_learning_02,N,2014_Feb_06_1754,P05,
stim_fb/ques.jpg,stim_fb/posf.jpg,stim_fb/negf.jpg,stim_02/a.jpg,stim_02/b.jpg,2,1,j,5,30,330,19,j,1,0.633167651371,02,01,60.0169591309,PLT_learning_02,N,2014_Feb_06_1754,P05,
stim_fb/ques.jpg,stim_fb/posf.jpg,stim_fb/negf.jpg,stim_02/f.jpg,stim_02/e.jpg,1,3,f,5,31,331,46,f,1,0.633179976091,02,01,60.0169591309,PLT_learning_02,N,2014_Feb_06_1754,P05,
stim_fb/ques.jpg,stim_fb/negf.jpg,stim_fb/posf.jpg,stim_02/d.jpg,stim_02/c.jpg,1,2,f,5,32,332,20,f,1,0.566502414267,02,01,60.0169591309,PLT_learning_02,N,2014_Feb_06_1754,P05,
stim_fb/ques.jpg,stim_fb/negf.jpg,stim_fb/posf.jpg,stim_02/a.jpg,stim_02/b.jpg,2,1,j,5,33,333,14,j,1,0.549870346839,02,01,60.0169591309,PLT_learning_02,N,2014_Feb_06_1754,P05,
stim_fb/ques.jpg,stim_fb/negf.jpg,stim_fb/posf.jpg,stim_02/d.jpg,stim_02/c.jpg,1,2,f,5,34,334,25,f,1,0.566485232442,02,01,60.0169591309,PLT_learning_02,N,2014_Feb_06_1754,P05,
stim_fb/ques.jpg,stim_fb/negf.jpg,stim_fb/posf.jpg,stim_02/d.jpg,stim_02/c.jpg,1,2,f,5,35,335,21,f,1,0.549861402546,02,01,60.0169591309,PLT_learning_02,N,2014_Feb_06_1754,P05,
stim_fb/ques.jpg,stim_fb/negf.jpg,stim_fb/posf.jpg,stim_02/e.jpg,stim_02/f.jpg,2,3,j,5,36,336,53,j,1,0.633151804874,02,01,60.0169591309,PLT_learning_02,N,2014_Feb_06_1754,P05,
stim_fb/ques.jpg,stim_fb/posf.jpg,stim_fb/negf.jpg,stim_02/a.jpg,stim_02/b.jpg,2,1,j,5,37,337,18,j,1,0.61650995406,02,01,60.0169591309,PLT_learning_02,N,2014_Feb_06_1754,P05,
stim_fb/ques.jpg,stim_fb/negf.jpg,stim_fb/posf.jpg,stim_02/c.jpg,stim_02/d.jpg,2,2,j,5,38,338,36,j,1,0.699833790723,02,01,60.0169591309,PLT_learning_02,N,2014_Feb_06_1754,P05,
stim_fb/ques.jpg,stim_fb/negf.jpg,stim_fb/posf.jpg,stim_02/d.jpg,stim_02/c.jpg,1,2,f,5,39,339,24,f,1,0.866427088518,02,01,60.0169591309,PLT_learning_02,N,2014_Feb_06_1754,P05,
stim_fb/ques.jpg,stim_fb/negf.jpg,stim_fb/posf.jpg,stim_02/a.jpg,stim_02/b.jpg,2,1,j,5,40,340,16,j,1,0.599851014654,02,01,60.0169591309,PLT_learning_02,N,2014_Feb_06_1754,P05,
stim_fb/ques.jpg,stim_fb/negf.jpg,stim_fb/posf.jpg,stim_02/f.jpg,stim_02/e.jpg,1,3,f,5,41,341,45,f,1,0.566534209517,02,01,60.0169591309,PLT_learning_02,N,2014_Feb_06_1754,P05,
stim_fb/ques.jpg,stim_fb/negf.jpg,stim_fb/posf.jpg,stim_02/f.jpg,stim_02/e.jpg,1,3,f,5,42,342,42,f,1,0.51649691055,02,01,60.0169591309,PLT_learning_02,N,2014_Feb_06_1754,P05,
stim_fb/ques.jpg,stim_fb/negf.jpg,stim_fb/posf.jpg,stim_02/e.jpg,stim_02/f.jpg,2,3,j,5,43,343,52,j,1,0.783110520974,02,01,60.0169591309,PLT_learning_02,N,2014_Feb_06_1754,P05,
stim_fb/ques.jpg,stim_fb/negf.jpg,stim_fb/posf.jpg,stim_02/b.jpg,stim_02/a.jpg,1,1,f,5,44,344,5,f,1,0.566530414057,02,01,60.0169591309,PLT_learning_02,N,2014_Feb_06_1754,P05,
stim_fb/ques.jpg,stim_fb/negf.jpg,stim_fb/posf.jpg,stim_02/f.jpg,stim_02/e.jpg,1,3,f,5,45,345,40,f,1,0.51654745453,02,01,60.0169591309,PLT_learning_02,N,2014_Feb_06_1754,P05,
stim_fb/ques.jpg,stim_fb/negf.jpg,stim_fb/posf.jpg,stim_02/f.jpg,stim_02/e.jpg,1,3,f,5,46,346,43,f,1,0.53316858971,02,01,60.0169591309,PLT_learning_02,N,2014_Feb_06_1754,P05,
stim_fb/ques.jpg,stim_fb/negf.jpg,stim_fb/posf.jpg,stim_02/c.jpg,stim_02/d.jpg,2,2,j,5,47,347,30,j,1,0.566513493884,02,01,60.0169591309,PLT_learning_02,N,2014_Feb_06_1754,P05,
stim_fb/ques.jpg,stim_fb/posf.jpg,stim_fb/negf.jpg,stim_02/f.jpg,stim_02/e.jpg,1,3,f,5,48,348,49,f,1,0.633158562718,02,01,60.0169591309,PLT_learning_02,N,2014_Feb_06_1754,P05,
stim_fb/ques.jpg,stim_fb/posf.jpg,stim_fb/negf.jpg,stim_02/d.jpg,stim_02/c.jpg,1,2,f,5,49,349,29,f,1,0.766465653642,02,01,60.0169591309,PLT_learning_02,N,2014_Feb_06_1754,P05,
stim_fb/ques.jpg,stim_fb/posf.jpg,stim_fb/negf.jpg,stim_02/e.jpg,stim_02/f.jpg,2,3,j,5,50,350,58,j,1,0.69981041947,02,01,60.0169591309,PLT_learning_02,N,2014_Feb_06_1754,P05,
stim_fb/ques.jpg,stim_fb/negf.jpg,stim_fb/posf.jpg,stim_02/e.jpg,stim_02/f.jpg,2,3,j,5,51,351,55,j,1,0.699794293276,02,01,60.0169591309,PLT_learning_02,N,2014_Feb_06_1754,P05,
stim_fb/ques.jpg,stim_fb/posf.jpg,stim_fb/negf.jpg,stim_02/b.jpg,stim_02/a.jpg,1,1,f,5,52,352,8,j,0,0.916371819761,02,01,60.0169591309,PLT_learning_02,N,2014_Feb_06_1754,P05,
stim_fb/ques.jpg,stim_fb/posf.jpg,stim_fb/negf.jpg,stim_02/d.jpg,stim_02/c.jpg,1,2,f,5,53,353,27,f,1,0.816432429831,02,01,60.0169591309,PLT_learning_02,N,2014_Feb_06_1754,P05,
stim_fb/ques.jpg,stim_fb/negf.jpg,stim_fb/posf.jpg,stim_02/a.jpg,stim_02/b.jpg,2,1,j,5,54,354,11,j,1,0.783154674025,02,01,60.0169591309,PLT_learning_02,N,2014_Feb_06_1754,P05,
stim_fb/ques.jpg,stim_fb/negf.jpg,stim_fb/posf.jpg,stim_02/d.jpg,stim_02/c.jpg,1,2,f,5,55,355,22,f,1,0.633166758145,02,01,60.0169591309,PLT_learning_02,N,2014_Feb_06_1754,P05,
stim_fb/ques.jpg,stim_fb/posf.jpg,stim_fb/negf.jpg,stim_02/c.jpg,stim_02/d.jpg,2,2,j,5,56,356,39,j,1,0.633175311464,02,01,60.0169591309,PLT_learning_02,N,2014_Feb_06_1754,P05,
stim_fb/ques.jpg,stim_fb/posf.jpg,stim_fb/negf.jpg,stim_02/d.jpg,stim_02/c.jpg,1,2,f,5,57,357,28,f,1,0.533217675055,02,01,60.0169591309,PLT_learning_02,N,2014_Feb_06_1754,P05,
stim_fb/ques.jpg,stim_fb/posf.jpg,stim_fb/negf.jpg,stim_02/c.jpg,stim_02/d.jpg,2,2,j,5,58,358,37,j,1,0.61653397794,02,01,60.0169591309,PLT_learning_02,N,2014_Feb_06_1754,P05,
stim_fb/ques.jpg,stim_fb/posf.jpg,stim_fb/negf.jpg,stim_02/e.jpg,stim_02/f.jpg,2,3,j,5,59,359,57,j,1,0.76647269419,02,01,60.0169591309,PLT_learning_02,N,2014_Feb_06_1754,P05,
