Fb3,Fb2,Fb1,Symbol2,Symbol1,PosCond,Pair,Correct,trials.thisRepN,trials.thisTrialN,trials.thisN,trials.thisIndex,Response.keys,Response.corr,Response.rt,Version,Session Number,frameRate,expName,StimCondition,date,Participant,
stim_fb/ques.jpg,stim_fb/negf.jpg,stim_fb/posf.jpg,stim_02/c.jpg,stim_02/d.jpg,2,2,j,0,0,0,33,j,1,1.26630535975,02,01,60.0149796826,PLT_learning_02,N,2014_Feb_07_1056,P06,
stim_fb/ques.jpg,stim_fb/posf.jpg,stim_fb/negf.jpg,stim_02/f.jpg,stim_02/e.jpg,1,3,f,0,1,1,47,f,1,1.26640331427,02,01,60.0149796826,PLT_learning_02,N,2014_Feb_07_1056,P06,
stim_fb/ques.jpg,stim_fb/posf.jpg,stim_fb/negf.jpg,stim_02/d.jpg,stim_02/c.jpg,1,2,f,0,2,2,27,j,0,1.03306340352,02,01,60.0149796826,PLT_learning_02,N,2014_Feb_07_1056,P06,
stim_fb/ques.jpg,stim_fb/negf.jpg,stim_fb/posf.jpg,stim_02/b.jpg,stim_02/a.jpg,1,1,f,0,3,3,4,f,1,1.13298359931,02,01,60.0149796826,PLT_learning_02,N,2014_Feb_07_1056,P06,
stim_fb/ques.jpg,stim_fb/negf.jpg,stim_fb/posf.jpg,stim_02/f.jpg,stim_02/e.jpg,1,3,f,0,4,4,44,j,0,1.54953270401,02,01,60.0149796826,PLT_learning_02,N,2014_Feb_07_1056,P06,
stim_fb/ques.jpg,stim_fb/negf.jpg,stim_fb/posf.jpg,stim_02/c.jpg,stim_02/d.jpg,2,2,j,0,5,5,34,f,0,1.01639669926,02,01,60.0149796826,PLT_learning_02,N,2014_Feb_07_1056,P06,
stim_fb/ques.jpg,stim_fb/negf.jpg,stim_fb/posf.jpg,stim_02/d.jpg,stim_02/c.jpg,1,2,f,0,6,6,26,f,1,1.68285852459,02,01,60.0149796826,PLT_learning_02,N,2014_Feb_07_1056,P06,
stim_fb/ques.jpg,stim_fb/negf.jpg,stim_fb/posf.jpg,stim_02/e.jpg,stim_02/f.jpg,2,3,j,0,7,7,50,None,0,,02,01,60.0149796826,PLT_learning_02,N,2014_Feb_07_1056,P06,
stim_fb/ques.jpg,stim_fb/posf.jpg,stim_fb/negf.jpg,stim_02/b.jpg,stim_02/a.jpg,1,1,f,0,8,8,9,f,1,1.04970937703,02,01,60.0149796826,PLT_learning_02,N,2014_Feb_07_1056,P06,
stim_fb/ques.jpg,stim_fb/negf.jpg,stim_fb/posf.jpg,stim_02/d.jpg,stim_02/c.jpg,1,2,f,0,9,9,23,j,0,0.883104204871,02,01,60.0149796826,PLT_learning_02,N,2014_Feb_07_1056,P06,
stim_fb/ques.jpg,stim_fb/negf.jpg,stim_fb/posf.jpg,stim_02/f.jpg,stim_02/e.jpg,1,3,f,0,10,10,40,f,1,1.28299837068,02,01,60.0149796826,PLT_learning_02,N,2014_Feb_07_1056,P06,
stim_fb/ques.jpg,stim_fb/posf.jpg,stim_fb/negf.jpg,stim_02/c.jpg,stim_02/d.jpg,2,2,j,0,11,11,37,j,1,0.983077820008,02,01,60.0149796826,PLT_learning_02,N,2014_Feb_07_1056,P06,
stim_fb/ques.jpg,stim_fb/posf.jpg,stim_fb/negf.jpg,stim_02/a.jpg,stim_02/b.jpg,2,1,j,0,12,12,18,f,0,1.04970825824,02,01,60.0149796826,PLT_learning_02,N,2014_Feb_07_1056,P06,
stim_fb/ques.jpg,stim_fb/posf.jpg,stim_fb/negf.jpg,stim_02/f.jpg,stim_02/e.jpg,1,3,f,0,13,13,46,f,1,1.46623980511,02,01,60.0149796826,PLT_learning_02,N,2014_Feb_07_1056,P06,
stim_fb/ques.jpg,stim_fb/negf.jpg,stim_fb/posf.jpg,stim_02/c.jpg,stim_02/d.jpg,2,2,j,0,14,14,35,j,1,0.949713217619,02,01,60.0149796826,PLT_learning_02,N,2014_Feb_07_1056,P06,
stim_fb/ques.jpg,stim_fb/negf.jpg,stim_fb/posf.jpg,stim_02/d.jpg,stim_02/c.jpg,1,2,f,0,15,15,22,j,0,1.13300516615,02,01,60.0149796826,PLT_learning_02,N,2014_Feb_07_1056,P06,
stim_fb/ques.jpg,stim_fb/posf.jpg,stim_fb/negf.jpg,stim_02/d.jpg,stim_02/c.jpg,1,2,f,0,16,16,29,f,1,0.816474314006,02,01,60.0149796826,PLT_learning_02,N,2014_Feb_07_1056,P06,
stim_fb/ques.jpg,stim_fb/posf.jpg,stim_fb/negf.jpg,stim_02/c.jpg,stim_02/d.jpg,2,2,j,0,17,17,38,j,1,1.39958604366,02,01,60.0149796826,PLT_learning_02,N,2014_Feb_07_1056,P06,
stim_fb/ques.jpg,stim_fb/posf.jpg,stim_fb/negf.jpg,stim_02/e.jpg,stim_02/f.jpg,2,3,j,0,18,18,56,f,0,0.916423240514,02,01,60.0149796826,PLT_learning_02,N,2014_Feb_07_1056,P06,
stim_fb/ques.jpg,stim_fb/negf.jpg,stim_fb/posf.jpg,stim_02/e.jpg,stim_02/f.jpg,2,3,j,0,19,19,53,f,0,1.41622227586,02,01,60.0149796826,PLT_learning_02,N,2014_Feb_07_1056,P06,
stim_fb/ques.jpg,stim_fb/negf.jpg,stim_fb/posf.jpg,stim_02/f.jpg,stim_02/e.jpg,1,3,f,0,20,20,43,j,0,1.38292809726,02,01,60.0149796826,PLT_learning_02,N,2014_Feb_07_1056,P06,
stim_fb/ques.jpg,stim_fb/posf.jpg,stim_fb/negf.jpg,stim_02/e.jpg,stim_02/f.jpg,2,3,j,0,21,21,58,j,1,1.38294853328,02,01,60.0149796826,PLT_learning_02,N,2014_Feb_07_1056,P06,
stim_fb/ques.jpg,stim_fb/negf.jpg,stim_fb/posf.jpg,stim_02/f.jpg,stim_02/e.jpg,1,3,f,0,22,22,45,f,1,1.39962538186,02,01,60.0149796826,PLT_learning_02,N,2014_Feb_07_1056,P06,
stim_fb/ques.jpg,stim_fb/negf.jpg,stim_fb/posf.jpg,stim_02/c.jpg,stim_02/d.jpg,2,2,j,0,23,23,32,j,1,1.26628383803,02,01,60.0149796826,PLT_learning_02,N,2014_Feb_07_1056,P06,
stim_fb/ques.jpg,stim_fb/posf.jpg,stim_fb/negf.jpg,stim_02/b.jpg,stim_02/a.jpg,1,1,f,0,24,24,8,j,0,1.39960545712,02,01,60.0149796826,PLT_learning_02,N,2014_Feb_07_1056,P06,
stim_fb/ques.jpg,stim_fb/posf.jpg,stim_fb/negf.jpg,stim_02/d.jpg,stim_02/c.jpg,1,2,f,0,25,25,28,f,1,1.3495844963,02,01,60.0149796826,PLT_learning_02,N,2014_Feb_07_1056,P06,
stim_fb/ques.jpg,stim_fb/posf.jpg,stim_fb/negf.jpg,stim_02/e.jpg,stim_02/f.jpg,2,3,j,0,26,26,59,j,1,1.43276115804,02,01,60.0149796826,PLT_learning_02,N,2014_Feb_07_1056,P06,
stim_fb/ques.jpg,stim_fb/negf.jpg,stim_fb/posf.jpg,stim_02/c.jpg,stim_02/d.jpg,2,2,j,0,27,27,36,j,1,1.54954316412,02,01,60.0149796826,PLT_learning_02,N,2014_Feb_07_1056,P06,
stim_fb/ques.jpg,stim_fb/posf.jpg,stim_fb/negf.jpg,stim_02/c.jpg,stim_02/d.jpg,2,2,j,0,28,28,39,j,1,1.24961930218,02,01,60.0149796826,PLT_learning_02,N,2014_Feb_07_1056,P06,
stim_fb/ques.jpg,stim_fb/negf.jpg,stim_fb/posf.jpg,stim_02/b.jpg,stim_02/a.jpg,1,1,f,0,29,29,3,j,0,1.03304838102,02,01,60.0149796826,PLT_learning_02,N,2014_Feb_07_1056,P06,
stim_fb/ques.jpg,stim_fb/negf.jpg,stim_fb/posf.jpg,stim_02/a.jpg,stim_02/b.jpg,2,1,j,0,30,30,12,f,0,1.33294363254,02,01,60.0149796826,PLT_learning_02,N,2014_Feb_07_1056,P06,
stim_fb/ques.jpg,stim_fb/negf.jpg,stim_fb/posf.jpg,stim_02/d.jpg,stim_02/c.jpg,1,2,f,0,31,31,25,j,0,1.3162606727,02,01,60.0149796826,PLT_learning_02,N,2014_Feb_07_1056,P06,
stim_fb/ques.jpg,stim_fb/negf.jpg,stim_fb/posf.jpg,stim_02/a.jpg,stim_02/b.jpg,2,1,j,0,32,32,11,f,0,1.14973751226,02,01,60.0149796826,PLT_learning_02,N,2014_Feb_07_1056,P06,
stim_fb/ques.jpg,stim_fb/negf.jpg,stim_fb/posf.jpg,stim_02/a.jpg,stim_02/b.jpg,2,1,j,0,33,33,14,f,0,1.23298065496,02,01,60.0149796826,PLT_learning_02,N,2014_Feb_07_1056,P06,
stim_fb/ques.jpg,stim_fb/negf.jpg,stim_fb/posf.jpg,stim_02/d.jpg,stim_02/c.jpg,1,2,f,0,34,34,20,f,1,1.68279638648,02,01,60.0149796826,PLT_learning_02,N,2014_Feb_07_1056,P06,
stim_fb/ques.jpg,stim_fb/negf.jpg,stim_fb/posf.jpg,stim_02/e.jpg,stim_02/f.jpg,2,3,j,0,35,35,51,f,0,1.49955335206,02,01,60.0149796826,PLT_learning_02,N,2014_Feb_07_1056,P06,
stim_fb/ques.jpg,stim_fb/negf.jpg,stim_fb/posf.jpg,stim_02/c.jpg,stim_02/d.jpg,2,2,j,0,36,36,31,j,1,1.26632638825,02,01,60.0149796826,PLT_learning_02,N,2014_Feb_07_1056,P06,
stim_fb/ques.jpg,stim_fb/negf.jpg,stim_fb/posf.jpg,stim_02/a.jpg,stim_02/b.jpg,2,1,j,0,37,37,16,f,0,1.0330911568,02,01,60.0149796826,PLT_learning_02,N,2014_Feb_07_1056,P06,
stim_fb/ques.jpg,stim_fb/negf.jpg,stim_fb/posf.jpg,stim_02/b.jpg,stim_02/a.jpg,1,1,f,0,38,38,7,j,0,1.18299027147,02,01,60.0149796826,PLT_learning_02,N,2014_Feb_07_1056,P06,
stim_fb/ques.jpg,stim_fb/negf.jpg,stim_fb/posf.jpg,stim_02/b.jpg,stim_02/a.jpg,1,1,f,0,39,39,1,j,0,1.04971130184,02,01,60.0149796826,PLT_learning_02,N,2014_Feb_07_1056,P06,
stim_fb/ques.jpg,stim_fb/negf.jpg,stim_fb/posf.jpg,stim_02/b.jpg,stim_02/a.jpg,1,1,f,0,40,40,0,j,0,1.33291885369,02,01,60.0149796826,PLT_learning_02,N,2014_Feb_07_1056,P06,
stim_fb/ques.jpg,stim_fb/posf.jpg,stim_fb/negf.jpg,stim_02/f.jpg,stim_02/e.jpg,1,3,f,0,41,41,49,j,0,1.44958360307,02,01,60.0149796826,PLT_learning_02,N,2014_Feb_07_1056,P06,
stim_fb/ques.jpg,stim_fb/negf.jpg,stim_fb/posf.jpg,stim_02/f.jpg,stim_02/e.jpg,1,3,f,0,42,42,42,f,1,1.51623828783,02,01,60.0149796826,PLT_learning_02,N,2014_Feb_07_1056,P06,
stim_fb/ques.jpg,stim_fb/negf.jpg,stim_fb/posf.jpg,stim_02/a.jpg,stim_02/b.jpg,2,1,j,0,43,43,13,f,0,1.33294991222,02,01,60.0149796826,PLT_learning_02,N,2014_Feb_07_1056,P06,
stim_fb/ques.jpg,stim_fb/negf.jpg,stim_fb/posf.jpg,stim_02/e.jpg,stim_02/f.jpg,2,3,j,0,44,44,55,j,1,1.24965723588,02,01,60.0149796826,PLT_learning_02,N,2014_Feb_07_1056,P06,
stim_fb/ques.jpg,stim_fb/negf.jpg,stim_fb/posf.jpg,stim_02/a.jpg,stim_02/b.jpg,2,1,j,0,45,45,15,f,0,1.18299656317,02,01,60.0149796826,PLT_learning_02,N,2014_Feb_07_1056,P06,
stim_fb/ques.jpg,stim_fb/negf.jpg,stim_fb/posf.jpg,stim_02/c.jpg,stim_02/d.jpg,2,2,j,0,46,46,30,j,1,1.316284026,02,01,60.0149796826,PLT_learning_02,N,2014_Feb_07_1056,P06,
stim_fb/ques.jpg,stim_fb/negf.jpg,stim_fb/posf.jpg,stim_02/f.jpg,stim_02/e.jpg,1,3,f,0,47,47,41,j,0,1.39960740298,02,01,60.0149796826,PLT_learning_02,N,2014_Feb_07_1056,P06,
stim_fb/ques.jpg,stim_fb/negf.jpg,stim_fb/posf.jpg,stim_02/b.jpg,stim_02/a.jpg,1,1,f,0,48,48,5,j,0,1.16631821384,02,01,60.0149796826,PLT_learning_02,N,2014_Feb_07_1056,P06,
stim_fb/ques.jpg,stim_fb/negf.jpg,stim_fb/posf.jpg,stim_02/a.jpg,stim_02/b.jpg,2,1,j,0,49,49,10,f,0,1.26636215052,02,01,60.0149796826,PLT_learning_02,N,2014_Feb_07_1056,P06,
stim_fb/ques.jpg,stim_fb/negf.jpg,stim_fb/posf.jpg,stim_02/e.jpg,stim_02/f.jpg,2,3,j,0,50,50,52,f,0,1.21637406175,02,01,60.0149796826,PLT_learning_02,N,2014_Feb_07_1056,P06,
stim_fb/ques.jpg,stim_fb/posf.jpg,stim_fb/negf.jpg,stim_02/e.jpg,stim_02/f.jpg,2,3,j,0,51,51,57,j,1,1.16633277619,02,01,60.0149796826,PLT_learning_02,N,2014_Feb_07_1056,P06,
stim_fb/ques.jpg,stim_fb/posf.jpg,stim_fb/negf.jpg,stim_02/a.jpg,stim_02/b.jpg,2,1,j,0,52,52,19,f,0,1.14969297108,02,01,60.0149796826,PLT_learning_02,N,2014_Feb_07_1056,P06,
stim_fb/ques.jpg,stim_fb/negf.jpg,stim_fb/posf.jpg,stim_02/d.jpg,stim_02/c.jpg,1,2,f,0,53,53,24,f,1,1.24964798779,02,01,60.0149796826,PLT_learning_02,N,2014_Feb_07_1056,P06,
stim_fb/ques.jpg,stim_fb/negf.jpg,stim_fb/posf.jpg,stim_02/e.jpg,stim_02/f.jpg,2,3,j,0,54,54,54,j,1,1.38295239792,02,01,60.0149796826,PLT_learning_02,N,2014_Feb_07_1056,P06,
stim_fb/ques.jpg,stim_fb/negf.jpg,stim_fb/posf.jpg,stim_02/b.jpg,stim_02/a.jpg,1,1,f,0,55,55,6,None,0,,02,01,60.0149796826,PLT_learning_02,N,2014_Feb_07_1056,P06,
stim_fb/ques.jpg,stim_fb/negf.jpg,stim_fb/posf.jpg,stim_02/b.jpg,stim_02/a.jpg,1,1,f,0,56,56,2,f,1,0.916411547325,02,01,60.0149796826,PLT_learning_02,N,2014_Feb_07_1056,P06,
stim_fb/ques.jpg,stim_fb/negf.jpg,stim_fb/posf.jpg,stim_02/a.jpg,stim_02/b.jpg,2,1,j,0,57,57,17,f,0,1.08302000368,02,01,60.0149796826,PLT_learning_02,N,2014_Feb_07_1056,P06,
stim_fb/ques.jpg,stim_fb/posf.jpg,stim_fb/negf.jpg,stim_02/f.jpg,stim_02/e.jpg,1,3,f,0,58,58,48,j,0,0.999724957425,02,01,60.0149796826,PLT_learning_02,N,2014_Feb_07_1056,P06,
stim_fb/ques.jpg,stim_fb/negf.jpg,stim_fb/posf.jpg,stim_02/d.jpg,stim_02/c.jpg,1,2,f,0,59,59,21,f,1,1.21632091308,02,01,60.0149796826,PLT_learning_02,N,2014_Feb_07_1056,P06,
stim_fb/ques.jpg,stim_fb/posf.jpg,stim_fb/negf.jpg,stim_02/a.jpg,stim_02/b.jpg,2,1,j,1,0,60,19,j,1,1.13298930756,02,01,60.0149796826,PLT_learning_02,N,2014_Feb_07_1056,P06,
stim_fb/ques.jpg,stim_fb/negf.jpg,stim_fb/posf.jpg,stim_02/c.jpg,stim_02/d.jpg,2,2,j,1,1,61,32,f,0,1.26630028308,02,01,60.0149796826,PLT_learning_02,N,2014_Feb_07_1056,P06,
stim_fb/ques.jpg,stim_fb/negf.jpg,stim_fb/posf.jpg,stim_02/f.jpg,stim_02/e.jpg,1,3,f,1,2,62,41,f,1,1.19966086443,02,01,60.0149796826,PLT_learning_02,N,2014_Feb_07_1056,P06,
stim_fb/ques.jpg,stim_fb/negf.jpg,stim_fb/posf.jpg,stim_02/e.jpg,stim_02/f.jpg,2,3,j,1,3,63,53,f,0,1.53288449592,02,01,60.0149796826,PLT_learning_02,N,2014_Feb_07_1056,P06,
stim_fb/ques.jpg,stim_fb/negf.jpg,stim_fb/posf.jpg,stim_02/a.jpg,stim_02/b.jpg,2,1,j,1,4,64,15,f,0,1.26629212672,02,01,60.0149796826,PLT_learning_02,N,2014_Feb_07_1056,P06,
stim_fb/ques.jpg,stim_fb/posf.jpg,stim_fb/negf.jpg,stim_02/b.jpg,stim_02/a.jpg,1,1,f,1,5,65,9,None,0,,02,01,60.0149796826,PLT_learning_02,N,2014_Feb_07_1056,P06,
stim_fb/ques.jpg,stim_fb/posf.jpg,stim_fb/negf.jpg,stim_02/b.jpg,stim_02/a.jpg,1,1,f,1,6,66,8,j,0,0.666537515273,02,01,60.0149796826,PLT_learning_02,N,2014_Feb_07_1056,P06,
stim_fb/ques.jpg,stim_fb/negf.jpg,stim_fb/posf.jpg,stim_02/b.jpg,stim_02/a.jpg,1,1,f,1,7,67,4,j,0,0.883125919075,02,01,60.0149796826,PLT_learning_02,N,2014_Feb_07_1056,P06,
stim_fb/ques.jpg,stim_fb/posf.jpg,stim_fb/negf.jpg,stim_02/d.jpg,stim_02/c.jpg,1,2,f,1,8,68,28,j,0,1.46624875245,02,01,60.0149796826,PLT_learning_02,N,2014_Feb_07_1056,P06,
stim_fb/ques.jpg,stim_fb/negf.jpg,stim_fb/posf.jpg,stim_02/d.jpg,stim_02/c.jpg,1,2,f,1,9,69,26,f,1,1.48288463276,02,01,60.0149796826,PLT_learning_02,N,2014_Feb_07_1056,P06,
stim_fb/ques.jpg,stim_fb/negf.jpg,stim_fb/posf.jpg,stim_02/b.jpg,stim_02/a.jpg,1,1,f,1,10,70,6,f,1,1.59954671449,02,01,60.0149796826,PLT_learning_02,N,2014_Feb_07_1056,P06,
stim_fb/ques.jpg,stim_fb/negf.jpg,stim_fb/posf.jpg,stim_02/e.jpg,stim_02/f.jpg,2,3,j,1,11,71,54,j,1,1.33296258285,02,01,60.0149796826,PLT_learning_02,N,2014_Feb_07_1056,P06,
stim_fb/ques.jpg,stim_fb/posf.jpg,stim_fb/negf.jpg,stim_02/e.jpg,stim_02/f.jpg,2,3,j,1,12,72,57,j,1,1.36626690576,02,01,60.0149796826,PLT_learning_02,N,2014_Feb_07_1056,P06,
stim_fb/ques.jpg,stim_fb/negf.jpg,stim_fb/posf.jpg,stim_02/a.jpg,stim_02/b.jpg,2,1,j,1,13,73,17,f,0,1.36623816903,02,01,60.0149796826,PLT_learning_02,N,2014_Feb_07_1056,P06,
stim_fb/ques.jpg,stim_fb/posf.jpg,stim_fb/negf.jpg,stim_02/c.jpg,stim_02/d.jpg,2,2,j,1,14,74,38,j,1,1.08301830143,02,01,60.0149796826,PLT_learning_02,N,2014_Feb_07_1056,P06,
stim_fb/ques.jpg,stim_fb/negf.jpg,stim_fb/posf.jpg,stim_02/a.jpg,stim_02/b.jpg,2,1,j,1,15,75,10,f,0,1.11635274755,02,01,60.0149796826,PLT_learning_02,N,2014_Feb_07_1056,P06,
stim_fb/ques.jpg,stim_fb/negf.jpg,stim_fb/posf.jpg,stim_02/b.jpg,stim_02/a.jpg,1,1,f,1,16,76,2,j,0,1.33412205518,02,01,60.0149796826,PLT_learning_02,N,2014_Feb_07_1056,P06,
stim_fb/ques.jpg,stim_fb/posf.jpg,stim_fb/negf.jpg,stim_02/e.jpg,stim_02/f.jpg,2,3,j,1,17,77,58,f,0,1.18299222334,02,01,60.0149796826,PLT_learning_02,N,2014_Feb_07_1056,P06,
stim_fb/ques.jpg,stim_fb/negf.jpg,stim_fb/posf.jpg,stim_02/d.jpg,stim_02/c.jpg,1,2,f,1,18,78,25,f,1,1.59954140924,02,01,60.0149796826,PLT_learning_02,N,2014_Feb_07_1056,P06,
stim_fb/ques.jpg,stim_fb/negf.jpg,stim_fb/posf.jpg,stim_02/b.jpg,stim_02/a.jpg,1,1,f,1,19,79,5,j,0,0.999722301796,02,01,60.0149796826,PLT_learning_02,N,2014_Feb_07_1056,P06,
stim_fb/ques.jpg,stim_fb/posf.jpg,stim_fb/negf.jpg,stim_02/f.jpg,stim_02/e.jpg,1,3,f,1,20,80,48,j,0,1.06636360615,02,01,60.0149796826,PLT_learning_02,N,2014_Feb_07_1056,P06,
stim_fb/ques.jpg,stim_fb/negf.jpg,stim_fb/posf.jpg,stim_02/c.jpg,stim_02/d.jpg,2,2,j,1,21,81,34,j,1,1.1663649475,02,01,60.0149796826,PLT_learning_02,N,2014_Feb_07_1056,P06,
stim_fb/ques.jpg,stim_fb/posf.jpg,stim_fb/negf.jpg,stim_02/c.jpg,stim_02/d.jpg,2,2,j,1,22,82,37,f,0,1.2996261999,02,01,60.0149796826,PLT_learning_02,N,2014_Feb_07_1056,P06,
stim_fb/ques.jpg,stim_fb/negf.jpg,stim_fb/posf.jpg,stim_02/d.jpg,stim_02/c.jpg,1,2,f,1,23,83,20,f,1,1.29961154432,02,01,60.0149796826,PLT_learning_02,N,2014_Feb_07_1056,P06,
stim_fb/ques.jpg,stim_fb/negf.jpg,stim_fb/posf.jpg,stim_02/e.jpg,stim_02/f.jpg,2,3,j,1,24,84,52,j,1,1.14964400585,02,01,60.0149796826,PLT_learning_02,N,2014_Feb_07_1056,P06,
stim_fb/ques.jpg,stim_fb/negf.jpg,stim_fb/posf.jpg,stim_02/b.jpg,stim_02/a.jpg,1,1,f,1,25,85,0,j,0,1.43292017098,02,01,60.0149796826,PLT_learning_02,N,2014_Feb_07_1056,P06,
stim_fb/ques.jpg,stim_fb/negf.jpg,stim_fb/posf.jpg,stim_02/d.jpg,stim_02/c.jpg,1,2,f,1,26,86,21,f,1,1.28297350461,02,01,60.0149796826,PLT_learning_02,N,2014_Feb_07_1056,P06,
stim_fb/ques.jpg,stim_fb/posf.jpg,stim_fb/negf.jpg,stim_02/f.jpg,stim_02/e.jpg,1,3,f,1,27,87,49,j,0,1.03302651644,02,01,60.0149796826,PLT_learning_02,N,2014_Feb_07_1056,P06,
stim_fb/ques.jpg,stim_fb/negf.jpg,stim_fb/posf.jpg,stim_02/a.jpg,stim_02/b.jpg,2,1,j,1,28,88,13,f,0,1.1829956128,02,01,60.0149796826,PLT_learning_02,N,2014_Feb_07_1056,P06,
stim_fb/ques.jpg,stim_fb/negf.jpg,stim_fb/posf.jpg,stim_02/f.jpg,stim_02/e.jpg,1,3,f,1,29,89,42,j,0,1.21632098827,02,01,60.0149796826,PLT_learning_02,N,2014_Feb_07_1056,P06,
stim_fb/ques.jpg,stim_fb/posf.jpg,stim_fb/negf.jpg,stim_02/f.jpg,stim_02/e.jpg,1,3,f,1,30,90,47,j,0,0.966439401356,02,01,60.0149796826,PLT_learning_02,N,2014_Feb_07_1056,P06,
stim_fb/ques.jpg,stim_fb/negf.jpg,stim_fb/posf.jpg,stim_02/c.jpg,stim_02/d.jpg,2,2,j,1,31,91,36,f,0,1.16634201826,02,01,60.0149796826,PLT_learning_02,N,2014_Feb_07_1056,P06,
stim_fb/ques.jpg,stim_fb/negf.jpg,stim_fb/posf.jpg,stim_02/c.jpg,stim_02/d.jpg,2,2,j,1,32,92,35,f,0,1.36627363657,02,01,60.0149796826,PLT_learning_02,N,2014_Feb_07_1056,P06,
stim_fb/ques.jpg,stim_fb/posf.jpg,stim_fb/negf.jpg,stim_02/e.jpg,stim_02/f.jpg,2,3,j,1,33,93,56,j,1,1.11636881365,02,01,60.0149796826,PLT_learning_02,N,2014_Feb_07_1056,P06,
stim_fb/ques.jpg,stim_fb/negf.jpg,stim_fb/posf.jpg,stim_02/b.jpg,stim_02/a.jpg,1,1,f,1,34,94,1,j,0,1.24964324495,02,01,60.0149796826,PLT_learning_02,N,2014_Feb_07_1056,P06,
stim_fb/ques.jpg,stim_fb/negf.jpg,stim_fb/posf.jpg,stim_02/d.jpg,stim_02/c.jpg,1,2,f,1,35,95,22,j,0,1.5995241281,02,01,60.0149796826,PLT_learning_02,N,2014_Feb_07_1056,P06,
stim_fb/ques.jpg,stim_fb/negf.jpg,stim_fb/posf.jpg,stim_02/b.jpg,stim_02/a.jpg,1,1,f,1,36,96,3,j,0,0.999798611283,02,01,60.0149796826,PLT_learning_02,N,2014_Feb_07_1056,P06,
stim_fb/ques.jpg,stim_fb/negf.jpg,stim_fb/posf.jpg,stim_02/f.jpg,stim_02/e.jpg,1,3,f,1,37,97,40,j,0,0.716474289946,02,01,60.0149796826,PLT_learning_02,N,2014_Feb_07_1056,P06,
stim_fb/ques.jpg,stim_fb/negf.jpg,stim_fb/posf.jpg,stim_02/a.jpg,stim_02/b.jpg,2,1,j,1,38,98,12,f,0,0.849763743745,02,01,60.0149796826,PLT_learning_02,N,2014_Feb_07_1056,P06,
stim_fb/ques.jpg,stim_fb/posf.jpg,stim_fb/negf.jpg,stim_02/d.jpg,stim_02/c.jpg,1,2,f,1,39,99,27,None,0,,02,01,60.0149796826,PLT_learning_02,N,2014_Feb_07_1056,P06,
stim_fb/ques.jpg,stim_fb/negf.jpg,stim_fb/posf.jpg,stim_02/c.jpg,stim_02/d.jpg,2,2,j,1,40,100,30,j,1,1.03308040797,02,01,60.0149796826,PLT_learning_02,N,2014_Feb_07_1056,P06,
stim_fb/ques.jpg,stim_fb/negf.jpg,stim_fb/posf.jpg,stim_02/e.jpg,stim_02/f.jpg,2,3,j,1,41,101,50,j,1,0.949736976929,02,01,60.0149796826,PLT_learning_02,N,2014_Feb_07_1056,P06,
stim_fb/ques.jpg,stim_fb/negf.jpg,stim_fb/posf.jpg,stim_02/a.jpg,stim_02/b.jpg,2,1,j,1,42,102,16,f,0,0.983064884718,02,01,60.0149796826,PLT_learning_02,N,2014_Feb_07_1056,P06,
stim_fb/ques.jpg,stim_fb/negf.jpg,stim_fb/posf.jpg,stim_02/b.jpg,stim_02/a.jpg,1,1,f,1,43,103,7,j,0,0.899729616054,02,01,60.0149796826,PLT_learning_02,N,2014_Feb_07_1056,P06,
stim_fb/ques.jpg,stim_fb/negf.jpg,stim_fb/posf.jpg,stim_02/a.jpg,stim_02/b.jpg,2,1,j,1,44,104,11,f,0,0.766484983139,02,01,60.0149796826,PLT_learning_02,N,2014_Feb_07_1056,P06,
stim_fb/ques.jpg,stim_fb/negf.jpg,stim_fb/posf.jpg,stim_02/f.jpg,stim_02/e.jpg,1,3,f,1,45,105,45,j,0,1.38292804012,02,01,60.0149796826,PLT_learning_02,N,2014_Feb_07_1056,P06,
stim_fb/ques.jpg,stim_fb/posf.jpg,stim_fb/negf.jpg,stim_02/f.jpg,stim_02/e.jpg,1,3,f,1,46,106,46,j,0,1.44960038496,02,01,60.0149796826,PLT_learning_02,N,2014_Feb_07_1056,P06,
stim_fb/ques.jpg,stim_fb/negf.jpg,stim_fb/posf.jpg,stim_02/d.jpg,stim_02/c.jpg,1,2,f,1,47,107,24,f,1,1.31628124105,02,01,60.0149796826,PLT_learning_02,N,2014_Feb_07_1056,P06,
stim_fb/ques.jpg,stim_fb/negf.jpg,stim_fb/posf.jpg,stim_02/f.jpg,stim_02/e.jpg,1,3,f,1,48,108,44,f,1,1.18299202183,02,01,60.0149796826,PLT_learning_02,N,2014_Feb_07_1056,P06,
stim_fb/ques.jpg,stim_fb/negf.jpg,stim_fb/posf.jpg,stim_02/e.jpg,stim_02/f.jpg,2,3,j,1,49,109,55,j,1,1.21633924083,02,01,60.0149796826,PLT_learning_02,N,2014_Feb_07_1056,P06,
stim_fb/ques.jpg,stim_fb/posf.jpg,stim_fb/negf.jpg,stim_02/a.jpg,stim_02/b.jpg,2,1,j,1,50,110,18,f,0,1.68284825696,02,01,60.0149796826,PLT_learning_02,N,2014_Feb_07_1056,P06,
stim_fb/ques.jpg,stim_fb/negf.jpg,stim_fb/posf.jpg,stim_02/f.jpg,stim_02/e.jpg,1,3,f,1,51,111,43,j,0,1.28296875876,02,01,60.0149796826,PLT_learning_02,N,2014_Feb_07_1056,P06,
stim_fb/ques.jpg,stim_fb/negf.jpg,stim_fb/posf.jpg,stim_02/e.jpg,stim_02/f.jpg,2,3,j,1,52,112,51,j,1,1.56620688193,02,01,60.0149796826,PLT_learning_02,N,2014_Feb_07_1056,P06,
stim_fb/ques.jpg,stim_fb/posf.jpg,stim_fb/negf.jpg,stim_02/d.jpg,stim_02/c.jpg,1,2,f,1,53,113,29,f,1,1.2496385773,02,01,60.0149796826,PLT_learning_02,N,2014_Feb_07_1056,P06,
stim_fb/ques.jpg,stim_fb/posf.jpg,stim_fb/negf.jpg,stim_02/c.jpg,stim_02/d.jpg,2,2,j,1,54,114,39,f,0,1.2829829963,02,01,60.0149796826,PLT_learning_02,N,2014_Feb_07_1056,P06,
stim_fb/ques.jpg,stim_fb/negf.jpg,stim_fb/posf.jpg,stim_02/d.jpg,stim_02/c.jpg,1,2,f,1,55,115,23,f,1,1.21632202285,02,01,60.0149796826,PLT_learning_02,N,2014_Feb_07_1056,P06,
stim_fb/ques.jpg,stim_fb/posf.jpg,stim_fb/negf.jpg,stim_02/e.jpg,stim_02/f.jpg,2,3,j,1,56,116,59,j,1,1.51624060962,02,01,60.0149796826,PLT_learning_02,N,2014_Feb_07_1056,P06,
stim_fb/ques.jpg,stim_fb/negf.jpg,stim_fb/posf.jpg,stim_02/c.jpg,stim_02/d.jpg,2,2,j,1,57,117,33,j,1,1.28301962173,02,01,60.0149796826,PLT_learning_02,N,2014_Feb_07_1056,P06,
stim_fb/ques.jpg,stim_fb/negf.jpg,stim_fb/posf.jpg,stim_02/a.jpg,stim_02/b.jpg,2,1,j,1,58,118,14,j,1,1.49957302115,02,01,60.0149796826,PLT_learning_02,N,2014_Feb_07_1056,P06,
stim_fb/ques.jpg,stim_fb/negf.jpg,stim_fb/posf.jpg,stim_02/c.jpg,stim_02/d.jpg,2,2,j,1,59,119,31,None,0,,02,01,60.0149796826,PLT_learning_02,N,2014_Feb_07_1056,P06,
stim_fb/ques.jpg,stim_fb/negf.jpg,stim_fb/posf.jpg,stim_02/a.jpg,stim_02/b.jpg,2,1,j,2,0,120,10,f,0,1.08299070455,02,01,60.0149796826,PLT_learning_02,N,2014_Feb_07_1056,P06,
stim_fb/ques.jpg,stim_fb/negf.jpg,stim_fb/posf.jpg,stim_02/e.jpg,stim_02/f.jpg,2,3,j,2,1,121,55,f,0,0.799749907707,02,01,60.0149796826,PLT_learning_02,N,2014_Feb_07_1056,P06,
stim_fb/ques.jpg,stim_fb/negf.jpg,stim_fb/posf.jpg,stim_02/b.jpg,stim_02/a.jpg,1,1,f,2,2,122,6,j,0,0.66647412303,02,01,60.0149796826,PLT_learning_02,N,2014_Feb_07_1056,P06,
stim_fb/ques.jpg,stim_fb/negf.jpg,stim_fb/posf.jpg,stim_02/d.jpg,stim_02/c.jpg,1,2,f,2,3,123,22,f,1,0.899744990432,02,01,60.0149796826,PLT_learning_02,N,2014_Feb_07_1056,P06,
stim_fb/ques.jpg,stim_fb/negf.jpg,stim_fb/posf.jpg,stim_02/c.jpg,stim_02/d.jpg,2,2,j,2,4,124,30,f,0,1.26630838831,02,01,60.0149796826,PLT_learning_02,N,2014_Feb_07_1056,P06,
stim_fb/ques.jpg,stim_fb/posf.jpg,stim_fb/negf.jpg,stim_02/d.jpg,stim_02/c.jpg,1,2,f,2,5,125,28,f,1,1.09967353205,02,01,60.0149796826,PLT_learning_02,N,2014_Feb_07_1056,P06,
stim_fb/ques.jpg,stim_fb/negf.jpg,stim_fb/posf.jpg,stim_02/f.jpg,stim_02/e.jpg,1,3,f,2,6,126,42,f,1,1.44954763328,02,01,60.0149796826,PLT_learning_02,N,2014_Feb_07_1056,P06,
stim_fb/ques.jpg,stim_fb/negf.jpg,stim_fb/posf.jpg,stim_02/f.jpg,stim_02/e.jpg,1,3,f,2,7,127,44,j,0,0.983050791538,02,01,60.0149796826,PLT_learning_02,N,2014_Feb_07_1056,P06,
stim_fb/ques.jpg,stim_fb/negf.jpg,stim_fb/posf.jpg,stim_02/a.jpg,stim_02/b.jpg,2,1,j,2,8,128,17,j,1,1.33293349123,02,01,60.0149796826,PLT_learning_02,N,2014_Feb_07_1056,P06,
stim_fb/ques.jpg,stim_fb/negf.jpg,stim_fb/posf.jpg,stim_02/a.jpg,stim_02/b.jpg,2,1,j,2,9,129,13,f,0,1.26630025601,02,01,60.0149796826,PLT_learning_02,N,2014_Feb_07_1056,P06,
stim_fb/ques.jpg,stim_fb/negf.jpg,stim_fb/posf.jpg,stim_02/c.jpg,stim_02/d.jpg,2,2,j,2,10,130,33,j,1,1.03305930429,02,01,60.0149796826,PLT_learning_02,N,2014_Feb_07_1056,P06,
stim_fb/ques.jpg,stim_fb/posf.jpg,stim_fb/negf.jpg,stim_02/f.jpg,stim_02/e.jpg,1,3,f,2,11,131,47,j,0,1.09971011538,02,01,60.0149796826,PLT_learning_02,N,2014_Feb_07_1056,P06,
stim_fb/ques.jpg,stim_fb/negf.jpg,stim_fb/posf.jpg,stim_02/c.jpg,stim_02/d.jpg,2,2,j,2,12,132,36,j,1,1.56617815422,02,01,60.0149796826,PLT_learning_02,N,2014_Feb_07_1056,P06,
stim_fb/ques.jpg,stim_fb/negf.jpg,stim_fb/posf.jpg,stim_02/a.jpg,stim_02/b.jpg,2,1,j,2,13,133,12,f,0,1.08302862922,02,01,60.0149796826,PLT_learning_02,N,2014_Feb_07_1056,P06,
stim_fb/ques.jpg,stim_fb/negf.jpg,stim_fb/posf.jpg,stim_02/c.jpg,stim_02/d.jpg,2,2,j,2,14,134,34,f,0,1.06636631291,02,01,60.0149796826,PLT_learning_02,N,2014_Feb_07_1056,P06,
stim_fb/ques.jpg,stim_fb/negf.jpg,stim_fb/posf.jpg,stim_02/b.jpg,stim_02/a.jpg,1,1,f,2,15,135,2,j,0,0.766460748644,02,01,60.0149796826,PLT_learning_02,N,2014_Feb_07_1056,P06,
stim_fb/ques.jpg,stim_fb/negf.jpg,stim_fb/posf.jpg,stim_02/e.jpg,stim_02/f.jpg,2,3,j,2,16,136,52,j,1,1.11638893688,02,01,60.0149796826,PLT_learning_02,N,2014_Feb_07_1056,P06,
stim_fb/ques.jpg,stim_fb/posf.jpg,stim_fb/negf.jpg,stim_02/c.jpg,stim_02/d.jpg,2,2,j,2,17,137,39,f,0,1.09970458457,02,01,60.0149796826,PLT_learning_02,N,2014_Feb_07_1056,P06,
stim_fb/ques.jpg,stim_fb/posf.jpg,stim_fb/negf.jpg,stim_02/e.jpg,stim_02/f.jpg,2,3,j,2,18,138,57,f,0,1.34962354277,02,01,60.0149796826,PLT_learning_02,N,2014_Feb_07_1056,P06,
stim_fb/ques.jpg,stim_fb/negf.jpg,stim_fb/posf.jpg,stim_02/b.jpg,stim_02/a.jpg,1,1,f,2,19,139,5,j,0,1.03305266672,02,01,60.0149796826,PLT_learning_02,N,2014_Feb_07_1056,P06,
stim_fb/ques.jpg,stim_fb/posf.jpg,stim_fb/negf.jpg,stim_02/f.jpg,stim_02/e.jpg,1,3,f,2,20,140,46,f,1,0.999682783147,02,01,60.0149796826,PLT_learning_02,N,2014_Feb_07_1056,P06,
stim_fb/ques.jpg,stim_fb/posf.jpg,stim_fb/negf.jpg,stim_02/e.jpg,stim_02/f.jpg,2,3,j,2,21,141,58,j,1,1.38290250638,02,01,60.0149796826,PLT_learning_02,N,2014_Feb_07_1056,P06,
stim_fb/ques.jpg,stim_fb/negf.jpg,stim_fb/posf.jpg,stim_02/f.jpg,stim_02/e.jpg,1,3,f,2,22,142,40,j,0,1.08304904117,02,01,60.0149796826,PLT_learning_02,N,2014_Feb_07_1056,P06,
stim_fb/ques.jpg,stim_fb/posf.jpg,stim_fb/negf.jpg,stim_02/f.jpg,stim_02/e.jpg,1,3,f,2,23,143,48,f,1,0.683202012022,02,01,60.0149796826,PLT_learning_02,N,2014_Feb_07_1056,P06,
stim_fb/ques.jpg,stim_fb/posf.jpg,stim_fb/negf.jpg,stim_02/d.jpg,stim_02/c.jpg,1,2,f,2,24,144,27,f,1,1.649536304,02,01,60.0149796826,PLT_learning_02,N,2014_Feb_07_1056,P06,
stim_fb/ques.jpg,stim_fb/negf.jpg,stim_fb/posf.jpg,stim_02/e.jpg,stim_02/f.jpg,2,3,j,2,25,145,53,j,1,1.36626382307,02,01,60.0149796826,PLT_learning_02,N,2014_Feb_07_1056,P06,
stim_fb/ques.jpg,stim_fb/negf.jpg,stim_fb/posf.jpg,stim_02/a.jpg,stim_02/b.jpg,2,1,j,2,26,146,16,j,1,1.43294323555,02,01,60.0149796826,PLT_learning_02,N,2014_Feb_07_1056,P06,
stim_fb/ques.jpg,stim_fb/posf.jpg,stim_fb/negf.jpg,stim_02/a.jpg,stim_02/b.jpg,2,1,j,2,27,147,18,f,0,1.4828973846,02,01,60.0149796826,PLT_learning_02,N,2014_Feb_07_1056,P06,
stim_fb/ques.jpg,stim_fb/negf.jpg,stim_fb/posf.jpg,stim_02/e.jpg,stim_02/f.jpg,2,3,j,2,28,148,54,j,1,1.49955867835,02,01,60.0149796826,PLT_learning_02,N,2014_Feb_07_1056,P06,
stim_fb/ques.jpg,stim_fb/negf.jpg,stim_fb/posf.jpg,stim_02/b.jpg,stim_02/a.jpg,1,1,f,2,29,149,3,j,0,1.06635910692,02,01,60.0149796826,PLT_learning_02,N,2014_Feb_07_1056,P06,
stim_fb/ques.jpg,stim_fb/posf.jpg,stim_fb/negf.jpg,stim_02/c.jpg,stim_02/d.jpg,2,2,j,2,30,150,37,j,1,1.18298909854,02,01,60.0149796826,PLT_learning_02,N,2014_Feb_07_1056,P06,
stim_fb/ques.jpg,stim_fb/negf.jpg,stim_fb/posf.jpg,stim_02/c.jpg,stim_02/d.jpg,2,2,j,2,31,151,32,j,1,1.1330200112,02,01,60.0149796826,PLT_learning_02,N,2014_Feb_07_1056,P06,
stim_fb/ques.jpg,stim_fb/negf.jpg,stim_fb/posf.jpg,stim_02/e.jpg,stim_02/f.jpg,2,3,j,2,32,152,51,f,0,1.39956179714,02,01,60.0149796826,PLT_learning_02,N,2014_Feb_07_1056,P06,
stim_fb/ques.jpg,stim_fb/posf.jpg,stim_fb/negf.jpg,stim_02/e.jpg,stim_02/f.jpg,2,3,j,2,33,153,59,f,0,1.19966650952,02,01,60.0149796826,PLT_learning_02,N,2014_Feb_07_1056,P06,
stim_fb/ques.jpg,stim_fb/negf.jpg,stim_fb/posf.jpg,stim_02/e.jpg,stim_02/f.jpg,2,3,j,2,34,154,50,f,0,1.06636219864,02,01,60.0149796826,PLT_learning_02,N,2014_Feb_07_1056,P06,
stim_fb/ques.jpg,stim_fb/negf.jpg,stim_fb/posf.jpg,stim_02/d.jpg,stim_02/c.jpg,1,2,f,2,35,155,21,j,0,0.816432407397,02,01,60.0149796826,PLT_learning_02,N,2014_Feb_07_1056,P06,
stim_fb/ques.jpg,stim_fb/posf.jpg,stim_fb/negf.jpg,stim_02/b.jpg,stim_02/a.jpg,1,1,f,2,36,156,8,j,0,1.3495938707,02,01,60.0149796826,PLT_learning_02,N,2014_Feb_07_1056,P06,
stim_fb/ques.jpg,stim_fb/posf.jpg,stim_fb/negf.jpg,stim_02/c.jpg,stim_02/d.jpg,2,2,j,2,37,157,38,j,1,1.09974051827,02,01,60.0149796826,PLT_learning_02,N,2014_Feb_07_1056,P06,
stim_fb/ques.jpg,stim_fb/negf.jpg,stim_fb/posf.jpg,stim_02/b.jpg,stim_02/a.jpg,1,1,f,2,38,158,1,None,0,,02,01,60.0149796826,PLT_learning_02,N,2014_Feb_07_1056,P06,
stim_fb/ques.jpg,stim_fb/negf.jpg,stim_fb/posf.jpg,stim_02/d.jpg,stim_02/c.jpg,1,2,f,2,39,159,20,f,1,0.983062304277,02,01,60.0149796826,PLT_learning_02,N,2014_Feb_07_1056,P06,
stim_fb/ques.jpg,stim_fb/negf.jpg,stim_fb/posf.jpg,stim_02/b.jpg,stim_02/a.jpg,1,1,f,2,40,160,4,j,0,0.999730701764,02,01,60.0149796826,PLT_learning_02,N,2014_Feb_07_1056,P06,
stim_fb/ques.jpg,stim_fb/negf.jpg,stim_fb/posf.jpg,stim_02/f.jpg,stim_02/e.jpg,1,3,f,2,41,161,43,j,0,1.0330228954,02,01,60.0149796826,PLT_learning_02,N,2014_Feb_07_1056,P06,
stim_fb/ques.jpg,stim_fb/negf.jpg,stim_fb/posf.jpg,stim_02/d.jpg,stim_02/c.jpg,1,2,f,2,42,162,23,f,1,0.99972817245,02,01,60.0149796826,PLT_learning_02,N,2014_Feb_07_1056,P06,
stim_fb/ques.jpg,stim_fb/negf.jpg,stim_fb/posf.jpg,stim_02/d.jpg,stim_02/c.jpg,1,2,f,2,43,163,26,f,1,1.13303528032,02,01,60.0149796826,PLT_learning_02,N,2014_Feb_07_1056,P06,
stim_fb/ques.jpg,stim_fb/negf.jpg,stim_fb/posf.jpg,stim_02/a.jpg,stim_02/b.jpg,2,1,j,2,44,164,14,f,0,1.04972214691,02,01,60.0149796826,PLT_learning_02,N,2014_Feb_07_1056,P06,
stim_fb/ques.jpg,stim_fb/posf.jpg,stim_fb/negf.jpg,stim_02/a.jpg,stim_02/b.jpg,2,1,j,2,45,165,19,f,0,1.16635374153,02,01,60.0149796826,PLT_learning_02,N,2014_Feb_07_1056,P06,
stim_fb/ques.jpg,stim_fb/posf.jpg,stim_fb/negf.jpg,stim_02/b.jpg,stim_02/a.jpg,1,1,f,2,46,166,9,f,1,1.08306669223,02,01,60.0149796826,PLT_learning_02,N,2014_Feb_07_1056,P06,
stim_fb/ques.jpg,stim_fb/posf.jpg,stim_fb/negf.jpg,stim_02/f.jpg,stim_02/e.jpg,1,3,f,2,47,167,49,j,0,0.783066803508,02,01,60.0149796826,PLT_learning_02,N,2014_Feb_07_1056,P06,
stim_fb/ques.jpg,stim_fb/negf.jpg,stim_fb/posf.jpg,stim_02/c.jpg,stim_02/d.jpg,2,2,j,2,48,168,31,j,1,1.133012318,02,01,60.0149796826,PLT_learning_02,N,2014_Feb_07_1056,P06,
stim_fb/ques.jpg,stim_fb/negf.jpg,stim_fb/posf.jpg,stim_02/f.jpg,stim_02/e.jpg,1,3,f,2,49,169,41,j,0,1.51618267901,02,01,60.0149796826,PLT_learning_02,N,2014_Feb_07_1056,P06,
stim_fb/ques.jpg,stim_fb/negf.jpg,stim_fb/posf.jpg,stim_02/f.jpg,stim_02/e.jpg,1,3,f,2,50,170,45,j,0,0.999725228101,02,01,60.0149796826,PLT_learning_02,N,2014_Feb_07_1056,P06,
stim_fb/ques.jpg,stim_fb/posf.jpg,stim_fb/negf.jpg,stim_02/e.jpg,stim_02/f.jpg,2,3,j,2,51,171,56,f,0,1.06637641513,02,01,60.0149796826,PLT_learning_02,N,2014_Feb_07_1056,P06,
stim_fb/ques.jpg,stim_fb/negf.jpg,stim_fb/posf.jpg,stim_02/b.jpg,stim_02/a.jpg,1,1,f,2,52,172,0,j,0,0.766492658298,02,01,60.0149796826,PLT_learning_02,N,2014_Feb_07_1056,P06,
stim_fb/ques.jpg,stim_fb/negf.jpg,stim_fb/posf.jpg,stim_02/d.jpg,stim_02/c.jpg,1,2,f,2,53,173,24,f,1,0.883074220022,02,01,60.0149796826,PLT_learning_02,N,2014_Feb_07_1056,P06,
stim_fb/ques.jpg,stim_fb/negf.jpg,stim_fb/posf.jpg,stim_02/c.jpg,stim_02/d.jpg,2,2,j,2,54,174,35,j,1,1.04966165691,02,01,60.0149796826,PLT_learning_02,N,2014_Feb_07_1056,P06,
stim_fb/ques.jpg,stim_fb/negf.jpg,stim_fb/posf.jpg,stim_02/a.jpg,stim_02/b.jpg,2,1,j,2,55,175,11,j,1,1.18298172112,02,01,60.0149796826,PLT_learning_02,N,2014_Feb_07_1056,P06,
stim_fb/ques.jpg,stim_fb/negf.jpg,stim_fb/posf.jpg,stim_02/d.jpg,stim_02/c.jpg,1,2,f,2,56,176,25,f,1,1.2330529013,02,01,60.0149796826,PLT_learning_02,N,2014_Feb_07_1056,P06,
stim_fb/ques.jpg,stim_fb/negf.jpg,stim_fb/posf.jpg,stim_02/a.jpg,stim_02/b.jpg,2,1,j,2,57,177,15,f,0,1.03307254334,02,01,60.0149796826,PLT_learning_02,N,2014_Feb_07_1056,P06,
stim_fb/ques.jpg,stim_fb/posf.jpg,stim_fb/negf.jpg,stim_02/d.jpg,stim_02/c.jpg,1,2,f,2,58,178,29,f,1,1.16632695065,02,01,60.0149796826,PLT_learning_02,N,2014_Feb_07_1056,P06,
stim_fb/ques.jpg,stim_fb/negf.jpg,stim_fb/posf.jpg,stim_02/b.jpg,stim_02/a.jpg,1,1,f,2,59,179,7,j,0,1.34956696855,02,01,60.0149796826,PLT_learning_02,N,2014_Feb_07_1056,P06,
stim_fb/ques.jpg,stim_fb/negf.jpg,stim_fb/posf.jpg,stim_02/b.jpg,stim_02/a.jpg,1,1,f,3,0,180,5,j,0,1.182987682,02,01,60.0149796826,PLT_learning_02,N,2014_Feb_07_1056,P06,
stim_fb/ques.jpg,stim_fb/posf.jpg,stim_fb/negf.jpg,stim_02/c.jpg,stim_02/d.jpg,2,2,j,3,1,181,39,j,1,1.21633919572,02,01,60.0149796826,PLT_learning_02,N,2014_Feb_07_1056,P06,
stim_fb/ques.jpg,stim_fb/posf.jpg,stim_fb/negf.jpg,stim_02/b.jpg,stim_02/a.jpg,1,1,f,3,2,182,9,j,0,1.24962241195,02,01,60.0149796826,PLT_learning_02,N,2014_Feb_07_1056,P06,
stim_fb/ques.jpg,stim_fb/negf.jpg,stim_fb/posf.jpg,stim_02/a.jpg,stim_02/b.jpg,2,1,j,3,3,183,13,f,0,1.06636470991,02,01,60.0149796826,PLT_learning_02,N,2014_Feb_07_1056,P06,
stim_fb/ques.jpg,stim_fb/negf.jpg,stim_fb/posf.jpg,stim_02/c.jpg,stim_02/d.jpg,2,2,j,3,4,184,32,j,1,1.34965658926,02,01,60.0149796826,PLT_learning_02,N,2014_Feb_07_1056,P06,
stim_fb/ques.jpg,stim_fb/negf.jpg,stim_fb/posf.jpg,stim_02/c.jpg,stim_02/d.jpg,2,2,j,3,5,185,34,j,1,1.06634141977,02,01,60.0149796826,PLT_learning_02,N,2014_Feb_07_1056,P06,
stim_fb/ques.jpg,stim_fb/posf.jpg,stim_fb/negf.jpg,stim_02/a.jpg,stim_02/b.jpg,2,1,j,3,6,186,18,f,0,1.26631020485,02,01,60.0149796826,PLT_learning_02,N,2014_Feb_07_1056,P06,
stim_fb/ques.jpg,stim_fb/negf.jpg,stim_fb/posf.jpg,stim_02/e.jpg,stim_02/f.jpg,2,3,j,3,7,187,50,j,1,1.26630352818,02,01,60.0149796826,PLT_learning_02,N,2014_Feb_07_1056,P06,
stim_fb/ques.jpg,stim_fb/posf.jpg,stim_fb/negf.jpg,stim_02/a.jpg,stim_02/b.jpg,2,1,j,3,8,188,19,j,1,1.64951273717,02,01,60.0149796826,PLT_learning_02,N,2014_Feb_07_1056,P06,
stim_fb/ques.jpg,stim_fb/posf.jpg,stim_fb/negf.jpg,stim_02/e.jpg,stim_02/f.jpg,2,3,j,3,9,189,57,j,1,1.41629524701,02,01,60.0149796826,PLT_learning_02,N,2014_Feb_07_1056,P06,
stim_fb/ques.jpg,stim_fb/negf.jpg,stim_fb/posf.jpg,stim_02/d.jpg,stim_02/c.jpg,1,2,f,3,10,190,25,None,0,,02,01,60.0149796826,PLT_learning_02,N,2014_Feb_07_1056,P06,
stim_fb/ques.jpg,stim_fb/posf.jpg,stim_fb/negf.jpg,stim_02/e.jpg,stim_02/f.jpg,2,3,j,3,11,191,59,j,1,1.14963635776,02,01,60.0149796826,PLT_learning_02,N,2014_Feb_07_1056,P06,
stim_fb/ques.jpg,stim_fb/negf.jpg,stim_fb/posf.jpg,stim_02/a.jpg,stim_02/b.jpg,2,1,j,3,12,192,16,f,0,1.14966211104,02,01,60.0149796826,PLT_learning_02,N,2014_Feb_07_1056,P06,
stim_fb/ques.jpg,stim_fb/negf.jpg,stim_fb/posf.jpg,stim_02/e.jpg,stim_02/f.jpg,2,3,j,3,13,193,51,f,0,1.46623951639,02,01,60.0149796826,PLT_learning_02,N,2014_Feb_07_1056,P06,
stim_fb/ques.jpg,stim_fb/posf.jpg,stim_fb/negf.jpg,stim_02/c.jpg,stim_02/d.jpg,2,2,j,3,14,194,37,j,1,1.16635997308,02,01,60.0149796826,PLT_learning_02,N,2014_Feb_07_1056,P06,
stim_fb/ques.jpg,stim_fb/negf.jpg,stim_fb/posf.jpg,stim_02/d.jpg,stim_02/c.jpg,1,2,f,3,15,195,21,f,1,1.24957559408,02,01,60.0149796826,PLT_learning_02,N,2014_Feb_07_1056,P06,
stim_fb/ques.jpg,stim_fb/negf.jpg,stim_fb/posf.jpg,stim_02/e.jpg,stim_02/f.jpg,2,3,j,3,16,196,54,j,1,1.38291526423,02,01,60.0149796826,PLT_learning_02,N,2014_Feb_07_1056,P06,
stim_fb/ques.jpg,stim_fb/negf.jpg,stim_fb/posf.jpg,stim_02/a.jpg,stim_02/b.jpg,2,1,j,3,17,197,17,f,0,1.39962288262,02,01,60.0149796826,PLT_learning_02,N,2014_Feb_07_1056,P06,
stim_fb/ques.jpg,stim_fb/negf.jpg,stim_fb/posf.jpg,stim_02/b.jpg,stim_02/a.jpg,1,1,f,3,18,198,4,f,1,1.24962385555,02,01,60.0149796826,PLT_learning_02,N,2014_Feb_07_1056,P06,
stim_fb/ques.jpg,stim_fb/negf.jpg,stim_fb/posf.jpg,stim_02/b.jpg,stim_02/a.jpg,1,1,f,3,19,199,6,f,1,1.6162606697,02,01,60.0149796826,PLT_learning_02,N,2014_Feb_07_1056,P06,
stim_fb/ques.jpg,stim_fb/negf.jpg,stim_fb/posf.jpg,stim_02/b.jpg,stim_02/a.jpg,1,1,f,3,20,200,1,j,0,1.21624311187,02,01,60.0149796826,PLT_learning_02,N,2014_Feb_07_1056,P06,
stim_fb/ques.jpg,stim_fb/posf.jpg,stim_fb/negf.jpg,stim_02/f.jpg,stim_02/e.jpg,1,3,f,3,21,201,49,f,1,1.2496702644,02,01,60.0149796826,PLT_learning_02,N,2014_Feb_07_1056,P06,
stim_fb/ques.jpg,stim_fb/posf.jpg,stim_fb/negf.jpg,stim_02/e.jpg,stim_02/f.jpg,2,3,j,3,22,202,58,f,0,1.13301505182,02,01,60.0149796826,PLT_learning_02,N,2014_Feb_07_1056,P06,
stim_fb/ques.jpg,stim_fb/negf.jpg,stim_fb/posf.jpg,stim_02/e.jpg,stim_02/f.jpg,2,3,j,3,23,203,55,f,0,1.36614780847,02,01,60.0149796826,PLT_learning_02,N,2014_Feb_07_1056,P06,
stim_fb/ques.jpg,stim_fb/negf.jpg,stim_fb/posf.jpg,stim_02/d.jpg,stim_02/c.jpg,1,2,f,3,24,204,23,f,1,1.26627658994,02,01,60.0149796826,PLT_learning_02,N,2014_Feb_07_1056,P06,
stim_fb/ques.jpg,stim_fb/posf.jpg,stim_fb/negf.jpg,stim_02/d.jpg,stim_02/c.jpg,1,2,f,3,25,205,29,f,1,1.24957931436,02,01,60.0149796826,PLT_learning_02,N,2014_Feb_07_1056,P06,
stim_fb/ques.jpg,stim_fb/negf.jpg,stim_fb/posf.jpg,stim_02/a.jpg,stim_02/b.jpg,2,1,j,3,26,206,12,j,1,1.49957344521,02,01,60.0149796826,PLT_learning_02,N,2014_Feb_07_1056,P06,
stim_fb/ques.jpg,stim_fb/negf.jpg,stim_fb/posf.jpg,stim_02/f.jpg,stim_02/e.jpg,1,3,f,3,27,207,40,f,1,1.44958346773,02,01,60.0149796826,PLT_learning_02,N,2014_Feb_07_1056,P06,
stim_fb/ques.jpg,stim_fb/negf.jpg,stim_fb/posf.jpg,stim_02/c.jpg,stim_02/d.jpg,2,2,j,3,28,208,31,j,1,0.933054988515,02,01,60.0149796826,PLT_learning_02,N,2014_Feb_07_1056,P06,
stim_fb/ques.jpg,stim_fb/negf.jpg,stim_fb/posf.jpg,stim_02/d.jpg,stim_02/c.jpg,1,2,f,3,29,209,26,f,1,1.04970162067,02,01,60.0149796826,PLT_learning_02,N,2014_Feb_07_1056,P06,
stim_fb/ques.jpg,stim_fb/posf.jpg,stim_fb/negf.jpg,stim_02/d.jpg,stim_02/c.jpg,1,2,f,3,30,210,28,f,1,0.783130827328,02,01,60.0149796826,PLT_learning_02,N,2014_Feb_07_1056,P06,
stim_fb/ques.jpg,stim_fb/negf.jpg,stim_fb/posf.jpg,stim_02/a.jpg,stim_02/b.jpg,2,1,j,3,31,211,15,j,1,0.79972185067,02,01,60.0149796826,PLT_learning_02,N,2014_Feb_07_1056,P06,
stim_fb/ques.jpg,stim_fb/negf.jpg,stim_fb/posf.jpg,stim_02/c.jpg,stim_02/d.jpg,2,2,j,3,32,212,36,j,1,1.01637961963,02,01,60.0149796826,PLT_learning_02,N,2014_Feb_07_1056,P06,
stim_fb/ques.jpg,stim_fb/negf.jpg,stim_fb/posf.jpg,stim_02/a.jpg,stim_02/b.jpg,2,1,j,3,33,213,14,f,0,1.49958860305,02,01,60.0149796826,PLT_learning_02,N,2014_Feb_07_1056,P06,
stim_fb/ques.jpg,stim_fb/posf.jpg,stim_fb/negf.jpg,stim_02/c.jpg,stim_02/d.jpg,2,2,j,3,34,214,38,j,1,1.46625496596,02,01,60.0149796826,PLT_learning_02,N,2014_Feb_07_1056,P06,
stim_fb/ques.jpg,stim_fb/negf.jpg,stim_fb/posf.jpg,stim_02/f.jpg,stim_02/e.jpg,1,3,f,3,35,215,41,f,1,1.33296034827,02,01,60.0149796826,PLT_learning_02,N,2014_Feb_07_1056,P06,
stim_fb/ques.jpg,stim_fb/negf.jpg,stim_fb/posf.jpg,stim_02/a.jpg,stim_02/b.jpg,2,1,j,3,36,216,11,f,0,1.31628993575,02,01,60.0149796826,PLT_learning_02,N,2014_Feb_07_1056,P06,
stim_fb/ques.jpg,stim_fb/negf.jpg,stim_fb/posf.jpg,stim_02/d.jpg,stim_02/c.jpg,1,2,f,3,37,217,24,j,0,1.09968542073,02,01,60.0149796826,PLT_learning_02,N,2014_Feb_07_1056,P06,
stim_fb/ques.jpg,stim_fb/negf.jpg,stim_fb/posf.jpg,stim_02/f.jpg,stim_02/e.jpg,1,3,f,3,38,218,42,f,1,1.14968711847,02,01,60.0149796826,PLT_learning_02,N,2014_Feb_07_1056,P06,
stim_fb/ques.jpg,stim_fb/posf.jpg,stim_fb/negf.jpg,stim_02/f.jpg,stim_02/e.jpg,1,3,f,3,39,219,48,f,1,0.883115173251,02,01,60.0149796826,PLT_learning_02,N,2014_Feb_07_1056,P06,
stim_fb/ques.jpg,stim_fb/negf.jpg,stim_fb/posf.jpg,stim_02/c.jpg,stim_02/d.jpg,2,2,j,3,40,220,30,j,1,0.83310118383,02,01,60.0149796826,PLT_learning_02,N,2014_Feb_07_1056,P06,
stim_fb/ques.jpg,stim_fb/negf.jpg,stim_fb/posf.jpg,stim_02/c.jpg,stim_02/d.jpg,2,2,j,3,41,221,33,j,1,0.899754238518,02,01,60.0149796826,PLT_learning_02,N,2014_Feb_07_1056,P06,
stim_fb/ques.jpg,stim_fb/negf.jpg,stim_fb/posf.jpg,stim_02/c.jpg,stim_02/d.jpg,2,2,j,3,42,222,35,j,1,0.866440595336,02,01,60.0149796826,PLT_learning_02,N,2014_Feb_07_1056,P06,
stim_fb/ques.jpg,stim_fb/negf.jpg,stim_fb/posf.jpg,stim_02/e.jpg,stim_02/f.jpg,2,3,j,3,43,223,52,j,1,1.5328947425,02,01,60.0149796826,PLT_learning_02,N,2014_Feb_07_1056,P06,
stim_fb/ques.jpg,stim_fb/negf.jpg,stim_fb/posf.jpg,stim_02/b.jpg,stim_02/a.jpg,1,1,f,3,44,224,0,f,1,1.4996080917,02,01,60.0149796826,PLT_learning_02,N,2014_Feb_07_1056,P06,
stim_fb/ques.jpg,stim_fb/negf.jpg,stim_fb/posf.jpg,stim_02/d.jpg,stim_02/c.jpg,1,2,f,3,45,225,20,f,1,1.59958656697,02,01,60.0149796826,PLT_learning_02,N,2014_Feb_07_1056,P06,
stim_fb/ques.jpg,stim_fb/posf.jpg,stim_fb/negf.jpg,stim_02/f.jpg,stim_02/e.jpg,1,3,f,3,46,226,46,f,1,1.41626420051,02,01,60.0149796826,PLT_learning_02,N,2014_Feb_07_1056,P06,
stim_fb/ques.jpg,stim_fb/negf.jpg,stim_fb/posf.jpg,stim_02/b.jpg,stim_02/a.jpg,1,1,f,3,47,227,7,j,0,1.68279529175,02,01,60.0149796826,PLT_learning_02,N,2014_Feb_07_1056,P06,
stim_fb/ques.jpg,stim_fb/negf.jpg,stim_fb/posf.jpg,stim_02/b.jpg,stim_02/a.jpg,1,1,f,3,48,228,2,j,0,1.21626534336,02,01,60.0149796826,PLT_learning_02,N,2014_Feb_07_1056,P06,
stim_fb/ques.jpg,stim_fb/negf.jpg,stim_fb/posf.jpg,stim_02/f.jpg,stim_02/e.jpg,1,3,f,3,49,229,44,f,1,1.54955188289,02,01,60.0149796826,PLT_learning_02,N,2014_Feb_07_1056,P06,
stim_fb/ques.jpg,stim_fb/posf.jpg,stim_fb/negf.jpg,stim_02/b.jpg,stim_02/a.jpg,1,1,f,3,50,230,8,f,1,1.19966765839,02,01,60.0149796826,PLT_learning_02,N,2014_Feb_07_1056,P06,
stim_fb/ques.jpg,stim_fb/negf.jpg,stim_fb/posf.jpg,stim_02/f.jpg,stim_02/e.jpg,1,3,f,3,51,231,45,f,1,1.36628982598,02,01,60.0149796826,PLT_learning_02,N,2014_Feb_07_1056,P06,
stim_fb/ques.jpg,stim_fb/posf.jpg,stim_fb/negf.jpg,stim_02/d.jpg,stim_02/c.jpg,1,2,f,3,52,232,27,f,1,0.899831582588,02,01,60.0149796826,PLT_learning_02,N,2014_Feb_07_1056,P06,
stim_fb/ques.jpg,stim_fb/negf.jpg,stim_fb/posf.jpg,stim_02/d.jpg,stim_02/c.jpg,1,2,f,3,53,233,22,f,1,1.28297376626,02,01,60.0149796826,PLT_learning_02,N,2014_Feb_07_1056,P06,
stim_fb/ques.jpg,stim_fb/posf.jpg,stim_fb/negf.jpg,stim_02/e.jpg,stim_02/f.jpg,2,3,j,3,54,234,56,j,1,1.16628255383,02,01,60.0149796826,PLT_learning_02,N,2014_Feb_07_1056,P06,
stim_fb/ques.jpg,stim_fb/posf.jpg,stim_fb/negf.jpg,stim_02/f.jpg,stim_02/e.jpg,1,3,f,3,55,235,47,f,1,1.08304459908,02,01,60.0149796826,PLT_learning_02,N,2014_Feb_07_1056,P06,
stim_fb/ques.jpg,stim_fb/negf.jpg,stim_fb/posf.jpg,stim_02/b.jpg,stim_02/a.jpg,1,1,f,3,56,236,3,j,0,1.13303962316,02,01,60.0149796826,PLT_learning_02,N,2014_Feb_07_1056,P06,
stim_fb/ques.jpg,stim_fb/negf.jpg,stim_fb/posf.jpg,stim_02/a.jpg,stim_02/b.jpg,2,1,j,3,57,237,10,j,1,1.23294681148,02,01,60.0149796826,PLT_learning_02,N,2014_Feb_07_1056,P06,
stim_fb/ques.jpg,stim_fb/negf.jpg,stim_fb/posf.jpg,stim_02/f.jpg,stim_02/e.jpg,1,3,f,3,58,238,43,f,1,1.03304274495,02,01,60.0149796826,PLT_learning_02,N,2014_Feb_07_1056,P06,
stim_fb/ques.jpg,stim_fb/negf.jpg,stim_fb/posf.jpg,stim_02/e.jpg,stim_02/f.jpg,2,3,j,3,59,239,53,j,1,1.08301966083,02,01,60.0149796826,PLT_learning_02,N,2014_Feb_07_1056,P06,
stim_fb/ques.jpg,stim_fb/negf.jpg,stim_fb/posf.jpg,stim_02/b.jpg,stim_02/a.jpg,1,1,f,4,0,240,6,j,0,0.999721255183,02,01,60.0149796826,PLT_learning_02,N,2014_Feb_07_1056,P06,
stim_fb/ques.jpg,stim_fb/posf.jpg,stim_fb/negf.jpg,stim_02/f.jpg,stim_02/e.jpg,1,3,f,4,1,241,46,f,1,1.03303721114,02,01,60.0149796826,PLT_learning_02,N,2014_Feb_07_1056,P06,
stim_fb/ques.jpg,stim_fb/negf.jpg,stim_fb/posf.jpg,stim_02/d.jpg,stim_02/c.jpg,1,2,f,4,2,242,24,f,1,1.23296856478,02,01,60.0149796826,PLT_learning_02,N,2014_Feb_07_1056,P06,
stim_fb/ques.jpg,stim_fb/negf.jpg,stim_fb/posf.jpg,stim_02/b.jpg,stim_02/a.jpg,1,1,f,4,3,243,0,j,0,0.599847976511,02,01,60.0149796826,PLT_learning_02,N,2014_Feb_07_1056,P06,
stim_fb/ques.jpg,stim_fb/negf.jpg,stim_fb/posf.jpg,stim_02/c.jpg,stim_02/d.jpg,2,2,j,4,4,244,31,j,1,1.11632586945,02,01,60.0149796826,PLT_learning_02,N,2014_Feb_07_1056,P06,
stim_fb/ques.jpg,stim_fb/negf.jpg,stim_fb/posf.jpg,stim_02/c.jpg,stim_02/d.jpg,2,2,j,4,5,245,34,j,1,1.34961599092,02,01,60.0149796826,PLT_learning_02,N,2014_Feb_07_1056,P06,
stim_fb/ques.jpg,stim_fb/negf.jpg,stim_fb/posf.jpg,stim_02/b.jpg,stim_02/a.jpg,1,1,f,4,6,246,2,j,0,1.26633661979,02,01,60.0149796826,PLT_learning_02,N,2014_Feb_07_1056,P06,
stim_fb/ques.jpg,stim_fb/negf.jpg,stim_fb/posf.jpg,stim_02/b.jpg,stim_02/a.jpg,1,1,f,4,7,247,7,f,1,1.13300706388,02,01,60.0149796826,PLT_learning_02,N,2014_Feb_07_1056,P06,
stim_fb/ques.jpg,stim_fb/posf.jpg,stim_fb/negf.jpg,stim_02/c.jpg,stim_02/d.jpg,2,2,j,4,8,248,37,j,1,1.1830218112,02,01,60.0149796826,PLT_learning_02,N,2014_Feb_07_1056,P06,
stim_fb/ques.jpg,stim_fb/posf.jpg,stim_fb/negf.jpg,stim_02/e.jpg,stim_02/f.jpg,2,3,j,4,9,249,58,None,0,,02,01,60.0149796826,PLT_learning_02,N,2014_Feb_07_1056,P06,
stim_fb/ques.jpg,stim_fb/negf.jpg,stim_fb/posf.jpg,stim_02/e.jpg,stim_02/f.jpg,2,3,j,4,10,250,51,j,1,0.616453474987,02,01,60.0149796826,PLT_learning_02,N,2014_Feb_07_1056,P06,
stim_fb/ques.jpg,stim_fb/negf.jpg,stim_fb/posf.jpg,stim_02/c.jpg,stim_02/d.jpg,2,2,j,4,11,251,35,j,1,0.949716955951,02,01,60.0149796826,PLT_learning_02,N,2014_Feb_07_1056,P06,
stim_fb/ques.jpg,stim_fb/posf.jpg,stim_fb/negf.jpg,stim_02/c.jpg,stim_02/d.jpg,2,2,j,4,12,252,39,j,1,0.833091244018,02,01,60.0149796826,PLT_learning_02,N,2014_Feb_07_1056,P06,
stim_fb/ques.jpg,stim_fb/negf.jpg,stim_fb/posf.jpg,stim_02/e.jpg,stim_02/f.jpg,2,3,j,4,13,253,50,f,0,0.749785042913,02,01,60.0149796826,PLT_learning_02,N,2014_Feb_07_1056,P06,
stim_fb/ques.jpg,stim_fb/negf.jpg,stim_fb/posf.jpg,stim_02/e.jpg,stim_02/f.jpg,2,3,j,4,14,254,52,j,1,1.38293864459,02,01,60.0149796826,PLT_learning_02,N,2014_Feb_07_1056,P06,
stim_fb/ques.jpg,stim_fb/negf.jpg,stim_fb/posf.jpg,stim_02/c.jpg,stim_02/d.jpg,2,2,j,4,15,255,33,j,1,1.13300042932,02,01,60.0149796826,PLT_learning_02,N,2014_Feb_07_1056,P06,
stim_fb/ques.jpg,stim_fb/negf.jpg,stim_fb/posf.jpg,stim_02/d.jpg,stim_02/c.jpg,1,2,f,4,16,256,26,j,0,1.04970330788,02,01,60.0149796826,PLT_learning_02,N,2014_Feb_07_1056,P06,
stim_fb/ques.jpg,stim_fb/negf.jpg,stim_fb/posf.jpg,stim_02/a.jpg,stim_02/b.jpg,2,1,j,4,17,257,12,j,1,1.08303062921,02,01,60.0149796826,PLT_learning_02,N,2014_Feb_07_1056,P06,
stim_fb/ques.jpg,stim_fb/posf.jpg,stim_fb/negf.jpg,stim_02/b.jpg,stim_02/a.jpg,1,1,f,4,18,258,8,j,0,0.716481023755,02,01,60.0149796826,PLT_learning_02,N,2014_Feb_07_1056,P06,
stim_fb/ques.jpg,stim_fb/posf.jpg,stim_fb/negf.jpg,stim_02/f.jpg,stim_02/e.jpg,1,3,f,4,19,259,49,j,0,0.633168209142,02,01,60.0149796826,PLT_learning_02,N,2014_Feb_07_1056,P06,
stim_fb/ques.jpg,stim_fb/negf.jpg,stim_fb/posf.jpg,stim_02/d.jpg,stim_02/c.jpg,1,2,f,4,20,260,23,j,0,0.649886723734,02,01,60.0149796826,PLT_learning_02,N,2014_Feb_07_1056,P06,
stim_fb/ques.jpg,stim_fb/negf.jpg,stim_fb/posf.jpg,stim_02/a.jpg,stim_02/b.jpg,2,1,j,4,21,261,10,f,0,0.549861574957,02,01,60.0149796826,PLT_learning_02,N,2014_Feb_07_1056,P06,
stim_fb/ques.jpg,stim_fb/posf.jpg,stim_fb/negf.jpg,stim_02/d.jpg,stim_02/c.jpg,1,2,f,4,22,262,29,f,1,1.01638664516,02,01,60.0149796826,PLT_learning_02,N,2014_Feb_07_1056,P06,
stim_fb/ques.jpg,stim_fb/negf.jpg,stim_fb/posf.jpg,stim_02/f.jpg,stim_02/e.jpg,1,3,f,4,23,263,43,f,1,0.799783471491,02,01,60.0149796826,PLT_learning_02,N,2014_Feb_07_1056,P06,
stim_fb/ques.jpg,stim_fb/posf.jpg,stim_fb/negf.jpg,stim_02/d.jpg,stim_02/c.jpg,1,2,f,4,24,264,27,f,1,1.08302492397,02,01,60.0149796826,PLT_learning_02,N,2014_Feb_07_1056,P06,
stim_fb/ques.jpg,stim_fb/negf.jpg,stim_fb/posf.jpg,stim_02/e.jpg,stim_02/f.jpg,2,3,j,4,25,265,53,j,1,1.21637170687,02,01,60.0149796826,PLT_learning_02,N,2014_Feb_07_1056,P06,
stim_fb/ques.jpg,stim_fb/negf.jpg,stim_fb/posf.jpg,stim_02/d.jpg,stim_02/c.jpg,1,2,f,4,26,266,25,j,0,0.949741743828,02,01,60.0149796826,PLT_learning_02,N,2014_Feb_07_1056,P06,
stim_fb/ques.jpg,stim_fb/negf.jpg,stim_fb/posf.jpg,stim_02/d.jpg,stim_02/c.jpg,1,2,f,4,27,267,22,f,1,1.09974883102,02,01,60.0149796826,PLT_learning_02,N,2014_Feb_07_1056,P06,
stim_fb/ques.jpg,stim_fb/negf.jpg,stim_fb/posf.jpg,stim_02/a.jpg,stim_02/b.jpg,2,1,j,4,28,268,15,f,0,0.899686581629,02,01,60.0149796826,PLT_learning_02,N,2014_Feb_07_1056,P06,
stim_fb/ques.jpg,stim_fb/posf.jpg,stim_fb/negf.jpg,stim_02/a.jpg,stim_02/b.jpg,2,1,j,4,29,269,18,j,1,0.999742891192,02,01,60.0149796826,PLT_learning_02,N,2014_Feb_07_1056,P06,
stim_fb/ques.jpg,stim_fb/negf.jpg,stim_fb/posf.jpg,stim_02/f.jpg,stim_02/e.jpg,1,3,f,4,30,270,41,f,1,0.849773024913,02,01,60.0149796826,PLT_learning_02,N,2014_Feb_07_1056,P06,
stim_fb/ques.jpg,stim_fb/negf.jpg,stim_fb/posf.jpg,stim_02/a.jpg,stim_02/b.jpg,2,1,j,4,31,271,11,f,0,1.01635449792,02,01,60.0149796826,PLT_learning_02,N,2014_Feb_07_1056,P06,
stim_fb/ques.jpg,stim_fb/negf.jpg,stim_fb/posf.jpg,stim_02/a.jpg,stim_02/b.jpg,2,1,j,4,32,272,13,f,0,1.63288377713,02,01,60.0149796826,PLT_learning_02,N,2014_Feb_07_1056,P06,
stim_fb/ques.jpg,stim_fb/negf.jpg,stim_fb/posf.jpg,stim_02/a.jpg,stim_02/b.jpg,2,1,j,4,33,273,14,f,0,1.49955421521,02,01,60.0149796826,PLT_learning_02,N,2014_Feb_07_1056,P06,
stim_fb/ques.jpg,stim_fb/negf.jpg,stim_fb/posf.jpg,stim_02/d.jpg,stim_02/c.jpg,1,2,f,4,34,274,21,j,0,1.09968530344,02,01,60.0149796826,PLT_learning_02,N,2014_Feb_07_1056,P06,
stim_fb/ques.jpg,stim_fb/negf.jpg,stim_fb/posf.jpg,stim_02/b.jpg,stim_02/a.jpg,1,1,f,4,35,275,3,None,0,,02,01,60.0149796826,PLT_learning_02,N,2014_Feb_07_1056,P06,
stim_fb/ques.jpg,stim_fb/negf.jpg,stim_fb/posf.jpg,stim_02/b.jpg,stim_02/a.jpg,1,1,f,4,36,276,4,f,1,1.08302531193,02,01,60.0149796826,PLT_learning_02,N,2014_Feb_07_1056,P06,
stim_fb/ques.jpg,stim_fb/posf.jpg,stim_fb/negf.jpg,stim_02/b.jpg,stim_02/a.jpg,1,1,f,4,37,277,9,f,1,0.716466452382,02,01,60.0149796826,PLT_learning_02,N,2014_Feb_07_1056,P06,
stim_fb/ques.jpg,stim_fb/negf.jpg,stim_fb/posf.jpg,stim_02/f.jpg,stim_02/e.jpg,1,3,f,4,38,278,44,j,0,0.849762799388,02,01,60.0149796826,PLT_learning_02,N,2014_Feb_07_1056,P06,
stim_fb/ques.jpg,stim_fb/negf.jpg,stim_fb/posf.jpg,stim_02/c.jpg,stim_02/d.jpg,2,2,j,4,39,279,36,j,1,0.299968643727,02,01,60.0149796826,PLT_learning_02,N,2014_Feb_07_1056,P06,
stim_fb/ques.jpg,stim_fb/posf.jpg,stim_fb/negf.jpg,stim_02/e.jpg,stim_02/f.jpg,2,3,j,4,40,280,57,j,1,1.63285624641,02,01,60.0149796826,PLT_learning_02,N,2014_Feb_07_1056,P06,
stim_fb/ques.jpg,stim_fb/negf.jpg,stim_fb/posf.jpg,stim_02/f.jpg,stim_02/e.jpg,1,3,f,4,41,281,40,f,1,0.866402156383,02,01,60.0149796826,PLT_learning_02,N,2014_Feb_07_1056,P06,
stim_fb/ques.jpg,stim_fb/negf.jpg,stim_fb/posf.jpg,stim_02/a.jpg,stim_02/b.jpg,2,1,j,4,42,282,16,j,1,1.34957341965,02,01,60.0149796826,PLT_learning_02,N,2014_Feb_07_1056,P06,
stim_fb/ques.jpg,stim_fb/negf.jpg,stim_fb/posf.jpg,stim_02/f.jpg,stim_02/e.jpg,1,3,f,4,43,283,45,f,1,1.19964567652,02,01,60.0149796826,PLT_learning_02,N,2014_Feb_07_1056,P06,
stim_fb/ques.jpg,stim_fb/posf.jpg,stim_fb/negf.jpg,stim_02/d.jpg,stim_02/c.jpg,1,2,f,4,44,284,28,f,1,1.11636144225,02,01,60.0149796826,PLT_learning_02,N,2014_Feb_07_1056,P06,
stim_fb/ques.jpg,stim_fb/posf.jpg,stim_fb/negf.jpg,stim_02/f.jpg,stim_02/e.jpg,1,3,f,4,45,285,47,j,0,0.716492190631,02,01,60.0149796826,PLT_learning_02,N,2014_Feb_07_1056,P06,
stim_fb/ques.jpg,stim_fb/posf.jpg,stim_fb/negf.jpg,stim_02/f.jpg,stim_02/e.jpg,1,3,f,4,46,286,48,f,1,0.983021844279,02,01,60.0149796826,PLT_learning_02,N,2014_Feb_07_1056,P06,
stim_fb/ques.jpg,stim_fb/negf.jpg,stim_fb/posf.jpg,stim_02/c.jpg,stim_02/d.jpg,2,2,j,4,47,287,30,j,1,0.74982268187,02,01,60.0149796826,PLT_learning_02,N,2014_Feb_07_1056,P06,
stim_fb/ques.jpg,stim_fb/negf.jpg,stim_fb/posf.jpg,stim_02/c.jpg,stim_02/d.jpg,2,2,j,4,48,288,32,j,1,0.899730632592,02,01,60.0149796826,PLT_learning_02,N,2014_Feb_07_1056,P06,
stim_fb/ques.jpg,stim_fb/posf.jpg,stim_fb/negf.jpg,stim_02/e.jpg,stim_02/f.jpg,2,3,j,4,49,289,56,j,1,1.0996801215,02,01,60.0149796826,PLT_learning_02,N,2014_Feb_07_1056,P06,
stim_fb/ques.jpg,stim_fb/posf.jpg,stim_fb/negf.jpg,stim_02/e.jpg,stim_02/f.jpg,2,3,j,4,50,290,59,f,0,0.299943122018,02,01,60.0149796826,PLT_learning_02,N,2014_Feb_07_1056,P06,
stim_fb/ques.jpg,stim_fb/posf.jpg,stim_fb/negf.jpg,stim_02/c.jpg,stim_02/d.jpg,2,2,j,4,51,291,38,j,1,0.949731235597,02,01,60.0149796826,PLT_learning_02,N,2014_Feb_07_1056,P06,
stim_fb/ques.jpg,stim_fb/negf.jpg,stim_fb/posf.jpg,stim_02/b.jpg,stim_02/a.jpg,1,1,f,4,52,292,5,f,1,1.04973340401,02,01,60.0149796826,PLT_learning_02,N,2014_Feb_07_1056,P06,
stim_fb/ques.jpg,stim_fb/negf.jpg,stim_fb/posf.jpg,stim_02/e.jpg,stim_02/f.jpg,2,3,j,4,53,293,55,j,1,0.716415649565,02,01,60.0149796826,PLT_learning_02,N,2014_Feb_07_1056,P06,
stim_fb/ques.jpg,stim_fb/negf.jpg,stim_fb/posf.jpg,stim_02/d.jpg,stim_02/c.jpg,1,2,f,4,54,294,20,f,1,0.86642796982,02,01,60.0149796826,PLT_learning_02,N,2014_Feb_07_1056,P06,
stim_fb/ques.jpg,stim_fb/negf.jpg,stim_fb/posf.jpg,stim_02/a.jpg,stim_02/b.jpg,2,1,j,4,55,295,17,j,1,0.816490461314,02,01,60.0149796826,PLT_learning_02,N,2014_Feb_07_1056,P06,
stim_fb/ques.jpg,stim_fb/posf.jpg,stim_fb/negf.jpg,stim_02/a.jpg,stim_02/b.jpg,2,1,j,4,56,296,19,j,1,0.566529608535,02,01,60.0149796826,PLT_learning_02,N,2014_Feb_07_1056,P06,
stim_fb/ques.jpg,stim_fb/negf.jpg,stim_fb/posf.jpg,stim_02/b.jpg,stim_02/a.jpg,1,1,f,4,57,297,1,f,1,0.366599478949,02,01,60.0149796826,PLT_learning_02,N,2014_Feb_07_1056,P06,
stim_fb/ques.jpg,stim_fb/negf.jpg,stim_fb/posf.jpg,stim_02/e.jpg,stim_02/f.jpg,2,3,j,4,58,298,54,j,1,1.0829854775,02,01,60.0149796826,PLT_learning_02,N,2014_Feb_07_1056,P06,
stim_fb/ques.jpg,stim_fb/negf.jpg,stim_fb/posf.jpg,stim_02/f.jpg,stim_02/e.jpg,1,3,f,4,59,299,42,f,1,1.18293699948,02,01,60.0149796826,PLT_learning_02,N,2014_Feb_07_1056,P06,
stim_fb/ques.jpg,stim_fb/posf.jpg,stim_fb/negf.jpg,stim_02/b.jpg,stim_02/a.jpg,1,1,f,5,0,300,9,j,0,0.966407019522,02,01,60.0149796826,PLT_learning_02,N,2014_Feb_07_1056,P06,
stim_fb/ques.jpg,stim_fb/negf.jpg,stim_fb/posf.jpg,stim_02/d.jpg,stim_02/c.jpg,1,2,f,5,1,301,24,f,1,1.16634747388,02,01,60.0149796826,PLT_learning_02,N,2014_Feb_07_1056,P06,
stim_fb/ques.jpg,stim_fb/negf.jpg,stim_fb/posf.jpg,stim_02/a.jpg,stim_02/b.jpg,2,1,j,5,2,302,13,f,0,1.38287486438,02,01,60.0149796826,PLT_learning_02,N,2014_Feb_07_1056,P06,
stim_fb/ques.jpg,stim_fb/negf.jpg,stim_fb/posf.jpg,stim_02/d.jpg,stim_02/c.jpg,1,2,f,5,3,303,25,f,1,1.29962771869,02,01,60.0149796826,PLT_learning_02,N,2014_Feb_07_1056,P06,
stim_fb/ques.jpg,stim_fb/negf.jpg,stim_fb/posf.jpg,stim_02/f.jpg,stim_02/e.jpg,1,3,f,5,4,304,45,f,1,1.1496634554,02,01,60.0149796826,PLT_learning_02,N,2014_Feb_07_1056,P06,
stim_fb/ques.jpg,stim_fb/posf.jpg,stim_fb/negf.jpg,stim_02/d.jpg,stim_02/c.jpg,1,2,f,5,5,305,29,f,1,1.08303728482,02,01,60.0149796826,PLT_learning_02,N,2014_Feb_07_1056,P06,
stim_fb/ques.jpg,stim_fb/negf.jpg,stim_fb/posf.jpg,stim_02/b.jpg,stim_02/a.jpg,1,1,f,5,6,306,6,j,0,0.949652673486,02,01,60.0149796826,PLT_learning_02,N,2014_Feb_07_1056,P06,
stim_fb/ques.jpg,stim_fb/negf.jpg,stim_fb/posf.jpg,stim_02/d.jpg,stim_02/c.jpg,1,2,f,5,7,307,21,f,1,1.01638295194,02,01,60.0149796826,PLT_learning_02,N,2014_Feb_07_1056,P06,
stim_fb/ques.jpg,stim_fb/posf.jpg,stim_fb/negf.jpg,stim_02/c.jpg,stim_02/d.jpg,2,2,j,5,8,308,38,j,1,0.932995039868,02,01,60.0149796826,PLT_learning_02,N,2014_Feb_07_1056,P06,
stim_fb/ques.jpg,stim_fb/negf.jpg,stim_fb/posf.jpg,stim_02/d.jpg,stim_02/c.jpg,1,2,f,5,9,309,26,f,1,1.03305970729,02,01,60.0149796826,PLT_learning_02,N,2014_Feb_07_1056,P06,
stim_fb/ques.jpg,stim_fb/negf.jpg,stim_fb/posf.jpg,stim_02/c.jpg,stim_02/d.jpg,2,2,j,5,10,310,34,j,1,1.09969940263,02,01,60.0149796826,PLT_learning_02,N,2014_Feb_07_1056,P06,
stim_fb/ques.jpg,stim_fb/negf.jpg,stim_fb/posf.jpg,stim_02/e.jpg,stim_02/f.jpg,2,3,j,5,11,311,52,j,1,0.983069474175,02,01,60.0149796826,PLT_learning_02,N,2014_Feb_07_1056,P06,
stim_fb/ques.jpg,stim_fb/negf.jpg,stim_fb/posf.jpg,stim_02/d.jpg,stim_02/c.jpg,1,2,f,5,12,312,23,f,1,0.94972155443,02,01,60.0149796826,PLT_learning_02,N,2014_Feb_07_1056,P06,
stim_fb/ques.jpg,stim_fb/negf.jpg,stim_fb/posf.jpg,stim_02/e.jpg,stim_02/f.jpg,2,3,j,5,13,313,51,j,1,1.149647672,02,01,60.0149796826,PLT_learning_02,N,2014_Feb_07_1056,P06,
stim_fb/ques.jpg,stim_fb/negf.jpg,stim_fb/posf.jpg,stim_02/f.jpg,stim_02/e.jpg,1,3,f,5,14,314,41,f,1,1.06637998805,02,01,60.0149796826,PLT_learning_02,N,2014_Feb_07_1056,P06,
stim_fb/ques.jpg,stim_fb/negf.jpg,stim_fb/posf.jpg,stim_02/a.jpg,stim_02/b.jpg,2,1,j,5,15,315,17,f,0,1.0330389585,02,01,60.0149796826,PLT_learning_02,N,2014_Feb_07_1056,P06,
stim_fb/ques.jpg,stim_fb/posf.jpg,stim_fb/negf.jpg,stim_02/d.jpg,stim_02/c.jpg,1,2,f,5,16,316,27,f,1,0.783090529735,02,01,60.0149796826,PLT_learning_02,N,2014_Feb_07_1056,P06,
stim_fb/ques.jpg,stim_fb/negf.jpg,stim_fb/posf.jpg,stim_02/e.jpg,stim_02/f.jpg,2,3,j,5,17,317,53,j,1,0.433227201401,02,01,60.0149796826,PLT_learning_02,N,2014_Feb_07_1056,P06,
stim_fb/ques.jpg,stim_fb/posf.jpg,stim_fb/negf.jpg,stim_02/f.jpg,stim_02/e.jpg,1,3,f,5,18,318,49,j,0,0.54985802309,02,01,60.0149796826,PLT_learning_02,N,2014_Feb_07_1056,P06,
stim_fb/ques.jpg,stim_fb/negf.jpg,stim_fb/posf.jpg,stim_02/b.jpg,stim_02/a.jpg,1,1,f,5,19,319,0,j,0,0.483178929403,02,01,60.0149796826,PLT_learning_02,N,2014_Feb_07_1056,P06,
stim_fb/ques.jpg,stim_fb/negf.jpg,stim_fb/posf.jpg,stim_02/f.jpg,stim_02/e.jpg,1,3,f,5,20,320,40,f,1,0.516539342333,02,01,60.0149796826,PLT_learning_02,N,2014_Feb_07_1056,P06,
stim_fb/ques.jpg,stim_fb/negf.jpg,stim_fb/posf.jpg,stim_02/a.jpg,stim_02/b.jpg,2,1,j,5,21,321,11,j,1,0.533208443577,02,01,60.0149796826,PLT_learning_02,N,2014_Feb_07_1056,P06,
stim_fb/ques.jpg,stim_fb/negf.jpg,stim_fb/posf.jpg,stim_02/b.jpg,stim_02/a.jpg,1,1,f,5,22,322,4,j,0,1.26629163349,02,01,60.0149796826,PLT_learning_02,N,2014_Feb_07_1056,P06,
stim_fb/ques.jpg,stim_fb/posf.jpg,stim_fb/negf.jpg,stim_02/c.jpg,stim_02/d.jpg,2,2,j,5,23,323,37,j,1,1.09967843128,02,01,60.0149796826,PLT_learning_02,N,2014_Feb_07_1056,P06,
stim_fb/ques.jpg,stim_fb/negf.jpg,stim_fb/posf.jpg,stim_02/c.jpg,stim_02/d.jpg,2,2,j,5,24,324,35,j,1,1.26630588005,02,01,60.0149796826,PLT_learning_02,N,2014_Feb_07_1056,P06,
stim_fb/ques.jpg,stim_fb/negf.jpg,stim_fb/posf.jpg,stim_02/d.jpg,stim_02/c.jpg,1,2,f,5,25,325,22,f,1,1.16628761847,02,01,60.0149796826,PLT_learning_02,N,2014_Feb_07_1056,P06,
stim_fb/ques.jpg,stim_fb/negf.jpg,stim_fb/posf.jpg,stim_02/b.jpg,stim_02/a.jpg,1,1,f,5,26,326,7,f,1,1.18300736915,02,01,60.0149796826,PLT_learning_02,N,2014_Feb_07_1056,P06,
stim_fb/ques.jpg,stim_fb/posf.jpg,stim_fb/negf.jpg,stim_02/e.jpg,stim_02/f.jpg,2,3,j,5,27,327,57,f,0,1.08306377194,02,01,60.0149796826,PLT_learning_02,N,2014_Feb_07_1056,P06,
stim_fb/ques.jpg,stim_fb/negf.jpg,stim_fb/posf.jpg,stim_02/e.jpg,stim_02/f.jpg,2,3,j,5,28,328,50,f,0,0.883084400435,02,01,60.0149796826,PLT_learning_02,N,2014_Feb_07_1056,P06,
stim_fb/ques.jpg,stim_fb/posf.jpg,stim_fb/negf.jpg,stim_02/f.jpg,stim_02/e.jpg,1,3,f,5,29,329,46,f,1,1.01638350232,02,01,60.0149796826,PLT_learning_02,N,2014_Feb_07_1056,P06,
stim_fb/ques.jpg,stim_fb/negf.jpg,stim_fb/posf.jpg,stim_02/a.jpg,stim_02/b.jpg,2,1,j,5,30,330,16,f,0,1.3495536122,02,01,60.0149796826,PLT_learning_02,N,2014_Feb_07_1056,P06,
stim_fb/ques.jpg,stim_fb/posf.jpg,stim_fb/negf.jpg,stim_02/b.jpg,stim_02/a.jpg,1,1,f,5,31,331,8,j,0,1.28295849113,02,01,60.0149796826,PLT_learning_02,N,2014_Feb_07_1056,P06,
stim_fb/ques.jpg,stim_fb/posf.jpg,stim_fb/negf.jpg,stim_02/e.jpg,stim_02/f.jpg,2,3,j,5,32,332,59,j,1,1.18300784433,02,01,60.0149796826,PLT_learning_02,N,2014_Feb_07_1056,P06,
stim_fb/ques.jpg,stim_fb/negf.jpg,stim_fb/posf.jpg,stim_02/b.jpg,stim_02/a.jpg,1,1,f,5,33,333,5,f,1,1.31627992677,02,01,60.0149796826,PLT_learning_02,N,2014_Feb_07_1056,P06,
stim_fb/ques.jpg,stim_fb/negf.jpg,stim_fb/posf.jpg,stim_02/f.jpg,stim_02/e.jpg,1,3,f,5,34,334,42,f,1,1.59950632065,02,01,60.0149796826,PLT_learning_02,N,2014_Feb_07_1056,P06,
stim_fb/ques.jpg,stim_fb/negf.jpg,stim_fb/posf.jpg,stim_02/f.jpg,stim_02/e.jpg,1,3,f,5,35,335,44,None,0,,02,01,60.0149796826,PLT_learning_02,N,2014_Feb_07_1056,P06,
stim_fb/ques.jpg,stim_fb/negf.jpg,stim_fb/posf.jpg,stim_02/e.jpg,stim_02/f.jpg,2,3,j,5,36,336,54,j,1,1.08297160988,02,01,60.0149796826,PLT_learning_02,N,2014_Feb_07_1056,P06,
stim_fb/ques.jpg,stim_fb/negf.jpg,stim_fb/posf.jpg,stim_02/b.jpg,stim_02/a.jpg,1,1,f,5,37,337,2,f,1,1.11634904831,02,01,60.0149796826,PLT_learning_02,N,2014_Feb_07_1056,P06,
stim_fb/ques.jpg,stim_fb/negf.jpg,stim_fb/posf.jpg,stim_02/e.jpg,stim_02/f.jpg,2,3,j,5,38,338,55,j,1,0.616481216236,02,01,60.0149796826,PLT_learning_02,N,2014_Feb_07_1056,P06,
stim_fb/ques.jpg,stim_fb/posf.jpg,stim_fb/negf.jpg,stim_02/e.jpg,stim_02/f.jpg,2,3,j,5,39,339,56,f,0,1.13301959617,02,01,60.0149796826,PLT_learning_02,N,2014_Feb_07_1056,P06,
stim_fb/ques.jpg,stim_fb/negf.jpg,stim_fb/posf.jpg,stim_02/c.jpg,stim_02/d.jpg,2,2,j,5,40,340,31,j,1,1.09971014244,02,01,60.0149796826,PLT_learning_02,N,2014_Feb_07_1056,P06,
stim_fb/ques.jpg,stim_fb/posf.jpg,stim_fb/negf.jpg,stim_02/f.jpg,stim_02/e.jpg,1,3,f,5,41,341,48,f,1,0.749695488363,02,01,60.0149796826,PLT_learning_02,N,2014_Feb_07_1056,P06,
stim_fb/ques.jpg,stim_fb/negf.jpg,stim_fb/posf.jpg,stim_02/b.jpg,stim_02/a.jpg,1,1,f,5,42,342,1,j,0,0.633171162515,02,01,60.0149796826,PLT_learning_02,N,2014_Feb_07_1056,P06,
stim_fb/ques.jpg,stim_fb/posf.jpg,stim_fb/negf.jpg,stim_02/d.jpg,stim_02/c.jpg,1,2,f,5,43,343,28,f,1,0.466562306157,02,01,60.0149796826,PLT_learning_02,N,2014_Feb_07_1056,P06,
stim_fb/ques.jpg,stim_fb/posf.jpg,stim_fb/negf.jpg,stim_02/c.jpg,stim_02/d.jpg,2,2,j,5,44,344,39,j,1,0.68314587088,02,01,60.0149796826,PLT_learning_02,N,2014_Feb_07_1056,P06,
stim_fb/ques.jpg,stim_fb/negf.jpg,stim_fb/posf.jpg,stim_02/a.jpg,stim_02/b.jpg,2,1,j,5,45,345,15,f,0,0.799784875997,02,01,60.0149796826,PLT_learning_02,N,2014_Feb_07_1056,P06,
stim_fb/ques.jpg,stim_fb/negf.jpg,stim_fb/posf.jpg,stim_02/a.jpg,stim_02/b.jpg,2,1,j,5,46,346,14,j,1,1.18300680674,02,01,60.0149796826,PLT_learning_02,N,2014_Feb_07_1056,P06,
stim_fb/ques.jpg,stim_fb/negf.jpg,stim_fb/posf.jpg,stim_02/c.jpg,stim_02/d.jpg,2,2,j,5,47,347,36,j,1,1.08299668648,02,01,60.0149796826,PLT_learning_02,N,2014_Feb_07_1056,P06,
stim_fb/ques.jpg,stim_fb/posf.jpg,stim_fb/negf.jpg,stim_02/a.jpg,stim_02/b.jpg,2,1,j,5,48,348,18,j,1,1.36626804862,02,01,60.0149796826,PLT_learning_02,N,2014_Feb_07_1056,P06,
stim_fb/ques.jpg,stim_fb/negf.jpg,stim_fb/posf.jpg,stim_02/a.jpg,stim_02/b.jpg,2,1,j,5,49,349,12,j,1,0.716491519957,02,01,60.0149796826,PLT_learning_02,N,2014_Feb_07_1056,P06,
stim_fb/ques.jpg,stim_fb/negf.jpg,stim_fb/posf.jpg,stim_02/d.jpg,stim_02/c.jpg,1,2,f,5,50,350,20,f,1,1.21632407698,02,01,60.0149796826,PLT_learning_02,N,2014_Feb_07_1056,P06,
stim_fb/ques.jpg,stim_fb/negf.jpg,stim_fb/posf.jpg,stim_02/b.jpg,stim_02/a.jpg,1,1,f,5,51,351,3,j,0,1.03305744866,02,01,60.0149796826,PLT_learning_02,N,2014_Feb_07_1056,P06,
stim_fb/ques.jpg,stim_fb/posf.jpg,stim_fb/negf.jpg,stim_02/e.jpg,stim_02/f.jpg,2,3,j,5,52,352,58,j,1,1.1496839245,02,01,60.0149796826,PLT_learning_02,N,2014_Feb_07_1056,P06,
stim_fb/ques.jpg,stim_fb/posf.jpg,stim_fb/negf.jpg,stim_02/a.jpg,stim_02/b.jpg,2,1,j,5,53,353,19,j,1,0.949761846008,02,01,60.0149796826,PLT_learning_02,N,2014_Feb_07_1056,P06,
stim_fb/ques.jpg,stim_fb/posf.jpg,stim_fb/negf.jpg,stim_02/f.jpg,stim_02/e.jpg,1,3,f,5,54,354,47,f,1,0.599800638344,02,01,60.0149796826,PLT_learning_02,N,2014_Feb_07_1056,P06,
stim_fb/ques.jpg,stim_fb/negf.jpg,stim_fb/posf.jpg,stim_02/c.jpg,stim_02/d.jpg,2,2,j,5,55,355,32,j,1,0.433295113928,02,01,60.0149796826,PLT_learning_02,N,2014_Feb_07_1056,P06,
stim_fb/ques.jpg,stim_fb/negf.jpg,stim_fb/posf.jpg,stim_02/c.jpg,stim_02/d.jpg,2,2,j,5,56,356,30,j,1,0.683168959515,02,01,60.0149796826,PLT_learning_02,N,2014_Feb_07_1056,P06,
stim_fb/ques.jpg,stim_fb/negf.jpg,stim_fb/posf.jpg,stim_02/a.jpg,stim_02/b.jpg,2,1,j,5,57,357,10,j,1,1.34955698061,02,01,60.0149796826,PLT_learning_02,N,2014_Feb_07_1056,P06,
stim_fb/ques.jpg,stim_fb/negf.jpg,stim_fb/posf.jpg,stim_02/c.jpg,stim_02/d.jpg,2,2,j,5,58,358,33,j,1,0.883088415457,02,01,60.0149796826,PLT_learning_02,N,2014_Feb_07_1056,P06,
stim_fb/ques.jpg,stim_fb/negf.jpg,stim_fb/posf.jpg,stim_02/f.jpg,stim_02/e.jpg,1,3,f,5,59,359,43,f,1,0.999777513618,02,01,60.0149796826,PLT_learning_02,N,2014_Feb_07_1056,P06,
