Fb3,Fb2,Fb1,Symbol2,Symbol1,PosCond,Pair,Correct,trials.thisRepN,trials.thisTrialN,trials.thisN,trials.thisIndex,Response.keys,Response.corr,Response.rt,Version,Session Number,frameRate,expName,StimCondition,date,Participant,
stim_fb/ques.jpg,stim_fb/negf.jpg,stim_fb/posf.jpg,stim_02/a.jpg,stim_02/b.jpg,2,1,j,0,0,0,17,f,0,0.933090106916,02,01,60.0175371314,PLT_learning_02,N,2014_Feb_10_1850,P07,
stim_fb/ques.jpg,stim_fb/negf.jpg,stim_fb/posf.jpg,stim_02/d.jpg,stim_02/c.jpg,1,2,f,0,1,1,26,f,1,1.29962004481,02,01,60.0175371314,PLT_learning_02,N,2014_Feb_10_1850,P07,
stim_fb/ques.jpg,stim_fb/negf.jpg,stim_fb/posf.jpg,stim_02/c.jpg,stim_02/d.jpg,2,2,j,0,2,2,36,j,1,1.29961584337,02,01,60.0175371314,PLT_learning_02,N,2014_Feb_10_1850,P07,
stim_fb/ques.jpg,stim_fb/posf.jpg,stim_fb/negf.jpg,stim_02/b.jpg,stim_02/a.jpg,1,1,f,0,3,3,8,j,0,1.19961110059,02,01,60.0175371314,PLT_learning_02,N,2014_Feb_10_1850,P07,
stim_fb/ques.jpg,stim_fb/negf.jpg,stim_fb/posf.jpg,stim_02/a.jpg,stim_02/b.jpg,2,1,j,0,4,4,12,f,0,1.06629607976,02,01,60.0175371314,PLT_learning_02,N,2014_Feb_10_1850,P07,
stim_fb/ques.jpg,stim_fb/negf.jpg,stim_fb/posf.jpg,stim_02/a.jpg,stim_02/b.jpg,2,1,j,0,5,5,10,f,0,0.83309703012,02,01,60.0175371314,PLT_learning_02,N,2014_Feb_10_1850,P07,
stim_fb/ques.jpg,stim_fb/negf.jpg,stim_fb/posf.jpg,stim_02/e.jpg,stim_02/f.jpg,2,3,j,0,6,6,52,f,0,1.39962849581,02,01,60.0175371314,PLT_learning_02,N,2014_Feb_10_1850,P07,
stim_fb/ques.jpg,stim_fb/posf.jpg,stim_fb/negf.jpg,stim_02/b.jpg,stim_02/a.jpg,1,1,f,0,7,7,9,j,0,1.03306870273,02,01,60.0175371314,PLT_learning_02,N,2014_Feb_10_1850,P07,
stim_fb/ques.jpg,stim_fb/negf.jpg,stim_fb/posf.jpg,stim_02/f.jpg,stim_02/e.jpg,1,3,f,0,8,8,45,f,1,1.08306988466,02,01,60.0175371314,PLT_learning_02,N,2014_Feb_10_1850,P07,
stim_fb/ques.jpg,stim_fb/negf.jpg,stim_fb/posf.jpg,stim_02/a.jpg,stim_02/b.jpg,2,1,j,0,9,9,13,j,1,1.36625429693,02,01,60.0175371314,PLT_learning_02,N,2014_Feb_10_1850,P07,
stim_fb/ques.jpg,stim_fb/negf.jpg,stim_fb/posf.jpg,stim_02/b.jpg,stim_02/a.jpg,1,1,f,0,10,10,0,f,1,1.31631910197,02,01,60.0175371314,PLT_learning_02,N,2014_Feb_10_1850,P07,
stim_fb/ques.jpg,stim_fb/negf.jpg,stim_fb/posf.jpg,stim_02/f.jpg,stim_02/e.jpg,1,3,f,0,11,11,41,j,0,1.11634019338,02,01,60.0175371314,PLT_learning_02,N,2014_Feb_10_1850,P07,
stim_fb/ques.jpg,stim_fb/negf.jpg,stim_fb/posf.jpg,stim_02/c.jpg,stim_02/d.jpg,2,2,j,0,12,12,32,j,1,1.23297262297,02,01,60.0175371314,PLT_learning_02,N,2014_Feb_10_1850,P07,
stim_fb/ques.jpg,stim_fb/negf.jpg,stim_fb/posf.jpg,stim_02/e.jpg,stim_02/f.jpg,2,3,j,0,13,13,54,f,0,1.31624115728,02,01,60.0175371314,PLT_learning_02,N,2014_Feb_10_1850,P07,
stim_fb/ques.jpg,stim_fb/posf.jpg,stim_fb/negf.jpg,stim_02/f.jpg,stim_02/e.jpg,1,3,f,0,14,14,49,f,1,1.24965756004,02,01,60.0175371314,PLT_learning_02,N,2014_Feb_10_1850,P07,
stim_fb/ques.jpg,stim_fb/negf.jpg,stim_fb/posf.jpg,stim_02/d.jpg,stim_02/c.jpg,1,2,f,0,15,15,21,f,1,1.28295797356,02,01,60.0175371314,PLT_learning_02,N,2014_Feb_10_1850,P07,
stim_fb/ques.jpg,stim_fb/negf.jpg,stim_fb/posf.jpg,stim_02/b.jpg,stim_02/a.jpg,1,1,f,0,16,16,3,f,1,1.68283563856,02,01,60.0175371314,PLT_learning_02,N,2014_Feb_10_1850,P07,
stim_fb/ques.jpg,stim_fb/posf.jpg,stim_fb/negf.jpg,stim_02/f.jpg,stim_02/e.jpg,1,3,f,0,17,17,48,None,0,,02,01,60.0175371314,PLT_learning_02,N,2014_Feb_10_1850,P07,
stim_fb/ques.jpg,stim_fb/negf.jpg,stim_fb/posf.jpg,stim_02/f.jpg,stim_02/e.jpg,1,3,f,0,18,18,42,f,1,1.21631901776,02,01,60.0175371314,PLT_learning_02,N,2014_Feb_10_1850,P07,
stim_fb/ques.jpg,stim_fb/negf.jpg,stim_fb/posf.jpg,stim_02/c.jpg,stim_02/d.jpg,2,2,j,0,19,19,35,f,0,1.61618437918,02,01,60.0175371314,PLT_learning_02,N,2014_Feb_10_1850,P07,
stim_fb/ques.jpg,stim_fb/negf.jpg,stim_fb/posf.jpg,stim_02/e.jpg,stim_02/f.jpg,2,3,j,0,20,20,55,None,0,,02,01,60.0175371314,PLT_learning_02,N,2014_Feb_10_1850,P07,
stim_fb/ques.jpg,stim_fb/posf.jpg,stim_fb/negf.jpg,stim_02/c.jpg,stim_02/d.jpg,2,2,j,0,21,21,37,f,0,1.24963184313,02,01,60.0175371314,PLT_learning_02,N,2014_Feb_10_1850,P07,
stim_fb/ques.jpg,stim_fb/posf.jpg,stim_fb/negf.jpg,stim_02/e.jpg,stim_02/f.jpg,2,3,j,0,22,22,58,j,1,1.29961539225,02,01,60.0175371314,PLT_learning_02,N,2014_Feb_10_1850,P07,
stim_fb/ques.jpg,stim_fb/negf.jpg,stim_fb/posf.jpg,stim_02/f.jpg,stim_02/e.jpg,1,3,f,0,23,23,44,f,1,0.783096988015,02,01,60.0175371314,PLT_learning_02,N,2014_Feb_10_1850,P07,
stim_fb/ques.jpg,stim_fb/posf.jpg,stim_fb/negf.jpg,stim_02/f.jpg,stim_02/e.jpg,1,3,f,0,24,24,47,f,1,1.2829310657,02,01,60.0175371314,PLT_learning_02,N,2014_Feb_10_1850,P07,
stim_fb/ques.jpg,stim_fb/negf.jpg,stim_fb/posf.jpg,stim_02/d.jpg,stim_02/c.jpg,1,2,f,0,25,25,22,j,0,1.16626922603,02,01,60.0175371314,PLT_learning_02,N,2014_Feb_10_1850,P07,
stim_fb/ques.jpg,stim_fb/negf.jpg,stim_fb/posf.jpg,stim_02/c.jpg,stim_02/d.jpg,2,2,j,0,26,26,31,f,0,1.0330368205,02,01,60.0175371314,PLT_learning_02,N,2014_Feb_10_1850,P07,
stim_fb/ques.jpg,stim_fb/negf.jpg,stim_fb/posf.jpg,stim_02/d.jpg,stim_02/c.jpg,1,2,f,0,27,27,25,f,1,0.949757690862,02,01,60.0175371314,PLT_learning_02,N,2014_Feb_10_1850,P07,
stim_fb/ques.jpg,stim_fb/negf.jpg,stim_fb/posf.jpg,stim_02/c.jpg,stim_02/d.jpg,2,2,j,0,28,28,33,j,1,0.949720975625,02,01,60.0175371314,PLT_learning_02,N,2014_Feb_10_1850,P07,
stim_fb/ques.jpg,stim_fb/negf.jpg,stim_fb/posf.jpg,stim_02/e.jpg,stim_02/f.jpg,2,3,j,0,29,29,51,f,0,1.16634089412,02,01,60.0175371314,PLT_learning_02,N,2014_Feb_10_1850,P07,
stim_fb/ques.jpg,stim_fb/posf.jpg,stim_fb/negf.jpg,stim_02/f.jpg,stim_02/e.jpg,1,3,f,0,30,30,46,j,0,1.38290989609,02,01,60.0175371314,PLT_learning_02,N,2014_Feb_10_1850,P07,
stim_fb/ques.jpg,stim_fb/negf.jpg,stim_fb/posf.jpg,stim_02/b.jpg,stim_02/a.jpg,1,1,f,0,31,31,5,f,1,1.39954865641,02,01,60.0175371314,PLT_learning_02,N,2014_Feb_10_1850,P07,
stim_fb/ques.jpg,stim_fb/posf.jpg,stim_fb/negf.jpg,stim_02/e.jpg,stim_02/f.jpg,2,3,j,0,32,32,56,f,0,1.41621192463,02,01,60.0175371314,PLT_learning_02,N,2014_Feb_10_1850,P07,
stim_fb/ques.jpg,stim_fb/posf.jpg,stim_fb/negf.jpg,stim_02/d.jpg,stim_02/c.jpg,1,2,f,0,33,33,29,f,1,1.1996243455,02,01,60.0175371314,PLT_learning_02,N,2014_Feb_10_1850,P07,
stim_fb/ques.jpg,stim_fb/posf.jpg,stim_fb/negf.jpg,stim_02/e.jpg,stim_02/f.jpg,2,3,j,0,34,34,57,f,0,1.0663678862,02,01,60.0175371314,PLT_learning_02,N,2014_Feb_10_1850,P07,
stim_fb/ques.jpg,stim_fb/negf.jpg,stim_fb/posf.jpg,stim_02/f.jpg,stim_02/e.jpg,1,3,f,0,35,35,43,j,0,1.2496408054,02,01,60.0175371314,PLT_learning_02,N,2014_Feb_10_1850,P07,
stim_fb/ques.jpg,stim_fb/negf.jpg,stim_fb/posf.jpg,stim_02/d.jpg,stim_02/c.jpg,1,2,f,0,36,36,24,f,1,0.599863075743,02,01,60.0175371314,PLT_learning_02,N,2014_Feb_10_1850,P07,
stim_fb/ques.jpg,stim_fb/posf.jpg,stim_fb/negf.jpg,stim_02/a.jpg,stim_02/b.jpg,2,1,j,0,37,37,18,j,1,1.23300731418,02,01,60.0175371314,PLT_learning_02,N,2014_Feb_10_1850,P07,
stim_fb/ques.jpg,stim_fb/negf.jpg,stim_fb/posf.jpg,stim_02/b.jpg,stim_02/a.jpg,1,1,f,0,38,38,4,f,1,0.583167134329,02,01,60.0175371314,PLT_learning_02,N,2014_Feb_10_1850,P07,
stim_fb/ques.jpg,stim_fb/negf.jpg,stim_fb/posf.jpg,stim_02/b.jpg,stim_02/a.jpg,1,1,f,0,39,39,1,f,1,0.649839788875,02,01,60.0175371314,PLT_learning_02,N,2014_Feb_10_1850,P07,
stim_fb/ques.jpg,stim_fb/negf.jpg,stim_fb/posf.jpg,stim_02/a.jpg,stim_02/b.jpg,2,1,j,0,40,40,15,f,0,0.749786397197,02,01,60.0175371314,PLT_learning_02,N,2014_Feb_10_1850,P07,
stim_fb/ques.jpg,stim_fb/posf.jpg,stim_fb/negf.jpg,stim_02/d.jpg,stim_02/c.jpg,1,2,f,0,41,41,27,j,0,1.46628057623,02,01,60.0175371314,PLT_learning_02,N,2014_Feb_10_1850,P07,
stim_fb/ques.jpg,stim_fb/negf.jpg,stim_fb/posf.jpg,stim_02/b.jpg,stim_02/a.jpg,1,1,f,0,42,42,7,f,1,1.11634630457,02,01,60.0175371314,PLT_learning_02,N,2014_Feb_10_1850,P07,
stim_fb/ques.jpg,stim_fb/posf.jpg,stim_fb/negf.jpg,stim_02/d.jpg,stim_02/c.jpg,1,2,f,0,43,43,28,j,0,1.28295104735,02,01,60.0175371314,PLT_learning_02,N,2014_Feb_10_1850,P07,
stim_fb/ques.jpg,stim_fb/posf.jpg,stim_fb/negf.jpg,stim_02/c.jpg,stim_02/d.jpg,2,2,j,0,44,44,38,None,0,,02,01,60.0175371314,PLT_learning_02,N,2014_Feb_10_1850,P07,
stim_fb/ques.jpg,stim_fb/posf.jpg,stim_fb/negf.jpg,stim_02/a.jpg,stim_02/b.jpg,2,1,j,0,45,45,19,j,1,1.23298676712,02,01,60.0175371314,PLT_learning_02,N,2014_Feb_10_1850,P07,
stim_fb/ques.jpg,stim_fb/negf.jpg,stim_fb/posf.jpg,stim_02/d.jpg,stim_02/c.jpg,1,2,f,0,46,46,20,j,0,1.63285362025,02,01,60.0175371314,PLT_learning_02,N,2014_Feb_10_1850,P07,
stim_fb/ques.jpg,stim_fb/negf.jpg,stim_fb/posf.jpg,stim_02/d.jpg,stim_02/c.jpg,1,2,f,0,47,47,23,f,1,1.06636468023,02,01,60.0175371314,PLT_learning_02,N,2014_Feb_10_1850,P07,
stim_fb/ques.jpg,stim_fb/negf.jpg,stim_fb/posf.jpg,stim_02/c.jpg,stim_02/d.jpg,2,2,j,0,48,48,34,j,1,1.08304415573,02,01,60.0175371314,PLT_learning_02,N,2014_Feb_10_1850,P07,
stim_fb/ques.jpg,stim_fb/negf.jpg,stim_fb/posf.jpg,stim_02/c.jpg,stim_02/d.jpg,2,2,j,0,49,49,30,j,1,0.833117700486,02,01,60.0175371314,PLT_learning_02,N,2014_Feb_10_1850,P07,
stim_fb/ques.jpg,stim_fb/negf.jpg,stim_fb/posf.jpg,stim_02/a.jpg,stim_02/b.jpg,2,1,j,0,50,50,16,j,1,1.23298750996,02,01,60.0175371314,PLT_learning_02,N,2014_Feb_10_1850,P07,
stim_fb/ques.jpg,stim_fb/negf.jpg,stim_fb/posf.jpg,stim_02/f.jpg,stim_02/e.jpg,1,3,f,0,51,51,40,j,0,1.4162195576,02,01,60.0175371314,PLT_learning_02,N,2014_Feb_10_1850,P07,
stim_fb/ques.jpg,stim_fb/negf.jpg,stim_fb/posf.jpg,stim_02/b.jpg,stim_02/a.jpg,1,1,f,0,52,52,6,f,1,1.46621820724,02,01,60.0175371314,PLT_learning_02,N,2014_Feb_10_1850,P07,
stim_fb/ques.jpg,stim_fb/negf.jpg,stim_fb/posf.jpg,stim_02/e.jpg,stim_02/f.jpg,2,3,j,0,53,53,53,f,0,1.34958469497,02,01,60.0175371314,PLT_learning_02,N,2014_Feb_10_1850,P07,
stim_fb/ques.jpg,stim_fb/negf.jpg,stim_fb/posf.jpg,stim_02/a.jpg,stim_02/b.jpg,2,1,j,0,54,54,14,j,1,1.41623307018,02,01,60.0175371314,PLT_learning_02,N,2014_Feb_10_1850,P07,
stim_fb/ques.jpg,stim_fb/posf.jpg,stim_fb/negf.jpg,stim_02/e.jpg,stim_02/f.jpg,2,3,j,0,55,55,59,j,1,1.49954710455,02,01,60.0175371314,PLT_learning_02,N,2014_Feb_10_1850,P07,
stim_fb/ques.jpg,stim_fb/posf.jpg,stim_fb/negf.jpg,stim_02/c.jpg,stim_02/d.jpg,2,2,j,0,56,56,39,j,1,1.24963017097,02,01,60.0175371314,PLT_learning_02,N,2014_Feb_10_1850,P07,
stim_fb/ques.jpg,stim_fb/negf.jpg,stim_fb/posf.jpg,stim_02/b.jpg,stim_02/a.jpg,1,1,f,0,57,57,2,j,0,1.48290848859,02,01,60.0175371314,PLT_learning_02,N,2014_Feb_10_1850,P07,
stim_fb/ques.jpg,stim_fb/negf.jpg,stim_fb/posf.jpg,stim_02/a.jpg,stim_02/b.jpg,2,1,j,0,58,58,11,f,0,0.549877331168,02,01,60.0175371314,PLT_learning_02,N,2014_Feb_10_1850,P07,
stim_fb/ques.jpg,stim_fb/negf.jpg,stim_fb/posf.jpg,stim_02/e.jpg,stim_02/f.jpg,2,3,j,0,59,59,50,f,0,1.13300810213,02,01,60.0175371314,PLT_learning_02,N,2014_Feb_10_1850,P07,
stim_fb/ques.jpg,stim_fb/posf.jpg,stim_fb/negf.jpg,stim_02/b.jpg,stim_02/a.jpg,1,1,f,1,0,60,9,j,0,1.01637677027,02,01,60.0175371314,PLT_learning_02,N,2014_Feb_10_1850,P07,
stim_fb/ques.jpg,stim_fb/negf.jpg,stim_fb/posf.jpg,stim_02/c.jpg,stim_02/d.jpg,2,2,j,1,1,61,34,f,0,0.96660398791,02,01,60.0175371314,PLT_learning_02,N,2014_Feb_10_1850,P07,
stim_fb/ques.jpg,stim_fb/negf.jpg,stim_fb/posf.jpg,stim_02/f.jpg,stim_02/e.jpg,1,3,f,1,2,62,41,f,1,0.833102593946,02,01,60.0175371314,PLT_learning_02,N,2014_Feb_10_1850,P07,
stim_fb/ques.jpg,stim_fb/posf.jpg,stim_fb/negf.jpg,stim_02/b.jpg,stim_02/a.jpg,1,1,f,1,3,63,8,f,1,0.683138458068,02,01,60.0175371314,PLT_learning_02,N,2014_Feb_10_1850,P07,
stim_fb/ques.jpg,stim_fb/negf.jpg,stim_fb/posf.jpg,stim_02/d.jpg,stim_02/c.jpg,1,2,f,1,4,64,21,j,0,1.08304376175,02,01,60.0175371314,PLT_learning_02,N,2014_Feb_10_1850,P07,
stim_fb/ques.jpg,stim_fb/posf.jpg,stim_fb/negf.jpg,stim_02/f.jpg,stim_02/e.jpg,1,3,f,1,5,65,49,f,1,0.683151149607,02,01,60.0175371314,PLT_learning_02,N,2014_Feb_10_1850,P07,
stim_fb/ques.jpg,stim_fb/negf.jpg,stim_fb/posf.jpg,stim_02/a.jpg,stim_02/b.jpg,2,1,j,1,6,66,10,j,1,1.06635591946,02,01,60.0175371314,PLT_learning_02,N,2014_Feb_10_1850,P07,
stim_fb/ques.jpg,stim_fb/negf.jpg,stim_fb/posf.jpg,stim_02/e.jpg,stim_02/f.jpg,2,3,j,1,7,67,52,f,0,1.36624777372,02,01,60.0175371314,PLT_learning_02,N,2014_Feb_10_1850,P07,
stim_fb/ques.jpg,stim_fb/negf.jpg,stim_fb/posf.jpg,stim_02/a.jpg,stim_02/b.jpg,2,1,j,1,8,68,11,j,1,1.24962755447,02,01,60.0175371314,PLT_learning_02,N,2014_Feb_10_1850,P07,
stim_fb/ques.jpg,stim_fb/negf.jpg,stim_fb/posf.jpg,stim_02/a.jpg,stim_02/b.jpg,2,1,j,1,9,69,15,f,0,0.816471559826,02,01,60.0175371314,PLT_learning_02,N,2014_Feb_10_1850,P07,
stim_fb/ques.jpg,stim_fb/posf.jpg,stim_fb/negf.jpg,stim_02/f.jpg,stim_02/e.jpg,1,3,f,1,10,70,46,f,1,1.28293173336,02,01,60.0175371314,PLT_learning_02,N,2014_Feb_10_1850,P07,
stim_fb/ques.jpg,stim_fb/negf.jpg,stim_fb/posf.jpg,stim_02/c.jpg,stim_02/d.jpg,2,2,j,1,11,71,30,f,0,1.48289315649,02,01,60.0175371314,PLT_learning_02,N,2014_Feb_10_1850,P07,
stim_fb/ques.jpg,stim_fb/negf.jpg,stim_fb/posf.jpg,stim_02/b.jpg,stim_02/a.jpg,1,1,f,1,12,72,0,j,0,1.39958042135,02,01,60.0175371314,PLT_learning_02,N,2014_Feb_10_1850,P07,
stim_fb/ques.jpg,stim_fb/negf.jpg,stim_fb/posf.jpg,stim_02/d.jpg,stim_02/c.jpg,1,2,f,1,13,73,23,f,1,0.916366460654,02,01,60.0175371314,PLT_learning_02,N,2014_Feb_10_1850,P07,
stim_fb/ques.jpg,stim_fb/negf.jpg,stim_fb/posf.jpg,stim_02/a.jpg,stim_02/b.jpg,2,1,j,1,14,74,14,j,1,1.08302128991,02,01,60.0175371314,PLT_learning_02,N,2014_Feb_10_1850,P07,
stim_fb/ques.jpg,stim_fb/negf.jpg,stim_fb/posf.jpg,stim_02/f.jpg,stim_02/e.jpg,1,3,f,1,15,75,40,j,0,1.64950073533,02,01,60.0175371314,PLT_learning_02,N,2014_Feb_10_1850,P07,
stim_fb/ques.jpg,stim_fb/negf.jpg,stim_fb/posf.jpg,stim_02/a.jpg,stim_02/b.jpg,2,1,j,1,16,76,12,j,1,1.24963578593,02,01,60.0175371314,PLT_learning_02,N,2014_Feb_10_1850,P07,
stim_fb/ques.jpg,stim_fb/posf.jpg,stim_fb/negf.jpg,stim_02/a.jpg,stim_02/b.jpg,2,1,j,1,17,77,19,j,1,1.63284303695,02,01,60.0175371314,PLT_learning_02,N,2014_Feb_10_1850,P07,
stim_fb/ques.jpg,stim_fb/negf.jpg,stim_fb/posf.jpg,stim_02/b.jpg,stim_02/a.jpg,1,1,f,1,18,78,6,f,1,1.06636769973,02,01,60.0175371314,PLT_learning_02,N,2014_Feb_10_1850,P07,
stim_fb/ques.jpg,stim_fb/negf.jpg,stim_fb/posf.jpg,stim_02/c.jpg,stim_02/d.jpg,2,2,j,1,19,79,36,j,1,1.51616525165,02,01,60.0175371314,PLT_learning_02,N,2014_Feb_10_1850,P07,
stim_fb/ques.jpg,stim_fb/negf.jpg,stim_fb/posf.jpg,stim_02/c.jpg,stim_02/d.jpg,2,2,j,1,20,80,33,j,1,0.899734503241,02,01,60.0175371314,PLT_learning_02,N,2014_Feb_10_1850,P07,
stim_fb/ques.jpg,stim_fb/posf.jpg,stim_fb/negf.jpg,stim_02/e.jpg,stim_02/f.jpg,2,3,j,1,21,81,58,f,0,0.883095415106,02,01,60.0175371314,PLT_learning_02,N,2014_Feb_10_1850,P07,
stim_fb/ques.jpg,stim_fb/negf.jpg,stim_fb/posf.jpg,stim_02/b.jpg,stim_02/a.jpg,1,1,f,1,22,82,1,f,1,1.11634363092,02,01,60.0175371314,PLT_learning_02,N,2014_Feb_10_1850,P07,
stim_fb/ques.jpg,stim_fb/negf.jpg,stim_fb/posf.jpg,stim_02/a.jpg,stim_02/b.jpg,2,1,j,1,23,83,17,j,1,0.366457948001,02,01,60.0175371314,PLT_learning_02,N,2014_Feb_10_1850,P07,
stim_fb/ques.jpg,stim_fb/posf.jpg,stim_fb/negf.jpg,stim_02/c.jpg,stim_02/d.jpg,2,2,j,1,24,84,37,f,0,0.316599251139,02,01,60.0175371314,PLT_learning_02,N,2014_Feb_10_1850,P07,
stim_fb/ques.jpg,stim_fb/posf.jpg,stim_fb/negf.jpg,stim_02/d.jpg,stim_02/c.jpg,1,2,f,1,25,85,29,f,1,0.68314871656,02,01,60.0175371314,PLT_learning_02,N,2014_Feb_10_1850,P07,
stim_fb/ques.jpg,stim_fb/negf.jpg,stim_fb/posf.jpg,stim_02/e.jpg,stim_02/f.jpg,2,3,j,1,26,86,51,j,1,0.833110999835,02,01,60.0175371314,PLT_learning_02,N,2014_Feb_10_1850,P07,
stim_fb/ques.jpg,stim_fb/posf.jpg,stim_fb/negf.jpg,stim_02/e.jpg,stim_02/f.jpg,2,3,j,1,27,87,59,f,0,1.51617551315,02,01,60.0175371314,PLT_learning_02,N,2014_Feb_10_1850,P07,
stim_fb/ques.jpg,stim_fb/negf.jpg,stim_fb/posf.jpg,stim_02/f.jpg,stim_02/e.jpg,1,3,f,1,28,88,44,f,1,0.833029566473,02,01,60.0175371314,PLT_learning_02,N,2014_Feb_10_1850,P07,
stim_fb/ques.jpg,stim_fb/negf.jpg,stim_fb/posf.jpg,stim_02/b.jpg,stim_02/a.jpg,1,1,f,1,29,89,3,f,1,1.09968572202,02,01,60.0175371314,PLT_learning_02,N,2014_Feb_10_1850,P07,
stim_fb/ques.jpg,stim_fb/negf.jpg,stim_fb/posf.jpg,stim_02/f.jpg,stim_02/e.jpg,1,3,f,1,30,90,45,j,0,1.11633455738,02,01,60.0175371314,PLT_learning_02,N,2014_Feb_10_1850,P07,
stim_fb/ques.jpg,stim_fb/negf.jpg,stim_fb/posf.jpg,stim_02/c.jpg,stim_02/d.jpg,2,2,j,1,31,91,35,j,1,1.29960851416,02,01,60.0175371314,PLT_learning_02,N,2014_Feb_10_1850,P07,
stim_fb/ques.jpg,stim_fb/posf.jpg,stim_fb/negf.jpg,stim_02/d.jpg,stim_02/c.jpg,1,2,f,1,32,92,27,None,0,,02,01,60.0175371314,PLT_learning_02,N,2014_Feb_10_1850,P07,
stim_fb/ques.jpg,stim_fb/negf.jpg,stim_fb/posf.jpg,stim_02/b.jpg,stim_02/a.jpg,1,1,f,1,33,93,5,f,1,0.566533005519,02,01,60.0175371314,PLT_learning_02,N,2014_Feb_10_1850,P07,
stim_fb/ques.jpg,stim_fb/negf.jpg,stim_fb/posf.jpg,stim_02/e.jpg,stim_02/f.jpg,2,3,j,1,34,94,53,f,0,0.283271198929,02,01,60.0175371314,PLT_learning_02,N,2014_Feb_10_1850,P07,
stim_fb/ques.jpg,stim_fb/negf.jpg,stim_fb/posf.jpg,stim_02/d.jpg,stim_02/c.jpg,1,2,f,1,35,95,26,j,0,0.816410402851,02,01,60.0175371314,PLT_learning_02,N,2014_Feb_10_1850,P07,
stim_fb/ques.jpg,stim_fb/negf.jpg,stim_fb/posf.jpg,stim_02/e.jpg,stim_02/f.jpg,2,3,j,1,36,96,55,f,0,0.56656847867,02,01,60.0175371314,PLT_learning_02,N,2014_Feb_10_1850,P07,
stim_fb/ques.jpg,stim_fb/posf.jpg,stim_fb/negf.jpg,stim_02/e.jpg,stim_02/f.jpg,2,3,j,1,37,97,57,f,0,0.899772307183,02,01,60.0175371314,PLT_learning_02,N,2014_Feb_10_1850,P07,
stim_fb/ques.jpg,stim_fb/negf.jpg,stim_fb/posf.jpg,stim_02/c.jpg,stim_02/d.jpg,2,2,j,1,38,98,31,j,1,1.29962214704,02,01,60.0175371314,PLT_learning_02,N,2014_Feb_10_1850,P07,
stim_fb/ques.jpg,stim_fb/posf.jpg,stim_fb/negf.jpg,stim_02/f.jpg,stim_02/e.jpg,1,3,f,1,39,99,47,f,1,0.566528716862,02,01,60.0175371314,PLT_learning_02,N,2014_Feb_10_1850,P07,
stim_fb/ques.jpg,stim_fb/negf.jpg,stim_fb/posf.jpg,stim_02/d.jpg,stim_02/c.jpg,1,2,f,1,40,100,25,j,0,0.533184231816,02,01,60.0175371314,PLT_learning_02,N,2014_Feb_10_1850,P07,
stim_fb/ques.jpg,stim_fb/posf.jpg,stim_fb/negf.jpg,stim_02/c.jpg,stim_02/d.jpg,2,2,j,1,41,101,39,f,0,0.549726620653,02,01,60.0175371314,PLT_learning_02,N,2014_Feb_10_1850,P07,
stim_fb/ques.jpg,stim_fb/negf.jpg,stim_fb/posf.jpg,stim_02/b.jpg,stim_02/a.jpg,1,1,f,1,42,102,7,f,1,0.766500599991,02,01,60.0175371314,PLT_learning_02,N,2014_Feb_10_1850,P07,
stim_fb/ques.jpg,stim_fb/negf.jpg,stim_fb/posf.jpg,stim_02/b.jpg,stim_02/a.jpg,1,1,f,1,43,103,4,f,1,0.549861502835,02,01,60.0175371314,PLT_learning_02,N,2014_Feb_10_1850,P07,
stim_fb/ques.jpg,stim_fb/negf.jpg,stim_fb/posf.jpg,stim_02/d.jpg,stim_02/c.jpg,1,2,f,1,44,104,24,j,0,1.36626324115,02,01,60.0175371314,PLT_learning_02,N,2014_Feb_10_1850,P07,
stim_fb/ques.jpg,stim_fb/negf.jpg,stim_fb/posf.jpg,stim_02/a.jpg,stim_02/b.jpg,2,1,j,1,45,105,16,j,1,1.24959426776,02,01,60.0175371314,PLT_learning_02,N,2014_Feb_10_1850,P07,
stim_fb/ques.jpg,stim_fb/negf.jpg,stim_fb/posf.jpg,stim_02/f.jpg,stim_02/e.jpg,1,3,f,1,46,106,43,j,0,1.19965495556,02,01,60.0175371314,PLT_learning_02,N,2014_Feb_10_1850,P07,
stim_fb/ques.jpg,stim_fb/posf.jpg,stim_fb/negf.jpg,stim_02/c.jpg,stim_02/d.jpg,2,2,j,1,47,107,38,f,0,1.01641235771,02,01,60.0175371314,PLT_learning_02,N,2014_Feb_10_1850,P07,
stim_fb/ques.jpg,stim_fb/negf.jpg,stim_fb/posf.jpg,stim_02/b.jpg,stim_02/a.jpg,1,1,f,1,48,108,2,f,1,1.04972493947,02,01,60.0175371314,PLT_learning_02,N,2014_Feb_10_1850,P07,
stim_fb/ques.jpg,stim_fb/posf.jpg,stim_fb/negf.jpg,stim_02/f.jpg,stim_02/e.jpg,1,3,f,1,49,109,48,j,0,1.64949805868,02,01,60.0175371314,PLT_learning_02,N,2014_Feb_10_1850,P07,
stim_fb/ques.jpg,stim_fb/negf.jpg,stim_fb/posf.jpg,stim_02/a.jpg,stim_02/b.jpg,2,1,j,1,50,110,13,j,1,1.46623550623,02,01,60.0175371314,PLT_learning_02,N,2014_Feb_10_1850,P07,
stim_fb/ques.jpg,stim_fb/negf.jpg,stim_fb/posf.jpg,stim_02/d.jpg,stim_02/c.jpg,1,2,f,1,51,111,22,f,1,1.03302391543,02,01,60.0175371314,PLT_learning_02,N,2014_Feb_10_1850,P07,
stim_fb/ques.jpg,stim_fb/posf.jpg,stim_fb/negf.jpg,stim_02/a.jpg,stim_02/b.jpg,2,1,j,1,52,112,18,j,1,1.13301326597,02,01,60.0175371314,PLT_learning_02,N,2014_Feb_10_1850,P07,
stim_fb/ques.jpg,stim_fb/negf.jpg,stim_fb/posf.jpg,stim_02/c.jpg,stim_02/d.jpg,2,2,j,1,53,113,32,f,0,0.883080215335,02,01,60.0175371314,PLT_learning_02,N,2014_Feb_10_1850,P07,
stim_fb/ques.jpg,stim_fb/negf.jpg,stim_fb/posf.jpg,stim_02/e.jpg,stim_02/f.jpg,2,3,j,1,54,114,50,j,1,1.2496082104,02,01,60.0175371314,PLT_learning_02,N,2014_Feb_10_1850,P07,
stim_fb/ques.jpg,stim_fb/negf.jpg,stim_fb/posf.jpg,stim_02/f.jpg,stim_02/e.jpg,1,3,f,1,55,115,42,j,0,0.849769615495,02,01,60.0175371314,PLT_learning_02,N,2014_Feb_10_1850,P07,
stim_fb/ques.jpg,stim_fb/posf.jpg,stim_fb/negf.jpg,stim_02/d.jpg,stim_02/c.jpg,1,2,f,1,56,116,28,f,1,0.999751176674,02,01,60.0175371314,PLT_learning_02,N,2014_Feb_10_1850,P07,
stim_fb/ques.jpg,stim_fb/negf.jpg,stim_fb/posf.jpg,stim_02/d.jpg,stim_02/c.jpg,1,2,f,1,57,117,20,f,1,1.28296115246,02,01,60.0175371314,PLT_learning_02,N,2014_Feb_10_1850,P07,
stim_fb/ques.jpg,stim_fb/posf.jpg,stim_fb/negf.jpg,stim_02/e.jpg,stim_02/f.jpg,2,3,j,1,58,118,56,j,1,1.41626023368,02,01,60.0175371314,PLT_learning_02,N,2014_Feb_10_1850,P07,
stim_fb/ques.jpg,stim_fb/negf.jpg,stim_fb/posf.jpg,stim_02/e.jpg,stim_02/f.jpg,2,3,j,1,59,119,54,j,1,1.19964467602,02,01,60.0175371314,PLT_learning_02,N,2014_Feb_10_1850,P07,
stim_fb/ques.jpg,stim_fb/negf.jpg,stim_fb/posf.jpg,stim_02/b.jpg,stim_02/a.jpg,1,1,f,2,0,120,2,j,0,0.966394794063,02,01,60.0175371314,PLT_learning_02,N,2014_Feb_10_1850,P07,
stim_fb/ques.jpg,stim_fb/posf.jpg,stim_fb/negf.jpg,stim_02/d.jpg,stim_02/c.jpg,1,2,f,2,1,121,27,f,1,1.18298799417,02,01,60.0175371314,PLT_learning_02,N,2014_Feb_10_1850,P07,
stim_fb/ques.jpg,stim_fb/negf.jpg,stim_fb/posf.jpg,stim_02/b.jpg,stim_02/a.jpg,1,1,f,2,2,122,1,f,1,1.11635051503,02,01,60.0175371314,PLT_learning_02,N,2014_Feb_10_1850,P07,
stim_fb/ques.jpg,stim_fb/negf.jpg,stim_fb/posf.jpg,stim_02/b.jpg,stim_02/a.jpg,1,1,f,2,3,123,7,f,1,0.999721020736,02,01,60.0175371314,PLT_learning_02,N,2014_Feb_10_1850,P07,
stim_fb/ques.jpg,stim_fb/negf.jpg,stim_fb/posf.jpg,stim_02/c.jpg,stim_02/d.jpg,2,2,j,2,4,124,30,f,0,0.533222565074,02,01,60.0175371314,PLT_learning_02,N,2014_Feb_10_1850,P07,
stim_fb/ques.jpg,stim_fb/posf.jpg,stim_fb/negf.jpg,stim_02/f.jpg,stim_02/e.jpg,1,3,f,2,5,125,49,j,0,0.899688825732,02,01,60.0175371314,PLT_learning_02,N,2014_Feb_10_1850,P07,
stim_fb/ques.jpg,stim_fb/negf.jpg,stim_fb/posf.jpg,stim_02/d.jpg,stim_02/c.jpg,1,2,f,2,6,126,23,f,1,1.26632741463,02,01,60.0175371314,PLT_learning_02,N,2014_Feb_10_1850,P07,
stim_fb/ques.jpg,stim_fb/negf.jpg,stim_fb/posf.jpg,stim_02/a.jpg,stim_02/b.jpg,2,1,j,2,7,127,16,j,1,0.683161254718,02,01,60.0175371314,PLT_learning_02,N,2014_Feb_10_1850,P07,
stim_fb/ques.jpg,stim_fb/negf.jpg,stim_fb/posf.jpg,stim_02/e.jpg,stim_02/f.jpg,2,3,j,2,8,128,52,f,0,0.583191082841,02,01,60.0175371314,PLT_learning_02,N,2014_Feb_10_1850,P07,
stim_fb/ques.jpg,stim_fb/negf.jpg,stim_fb/posf.jpg,stim_02/f.jpg,stim_02/e.jpg,1,3,f,2,9,129,45,j,0,0.283277003353,02,01,60.0175371314,PLT_learning_02,N,2014_Feb_10_1850,P07,
stim_fb/ques.jpg,stim_fb/posf.jpg,stim_fb/negf.jpg,stim_02/f.jpg,stim_02/e.jpg,1,3,f,2,10,130,47,j,0,0.266788192659,02,01,60.0175371314,PLT_learning_02,N,2014_Feb_10_1850,P07,
stim_fb/ques.jpg,stim_fb/negf.jpg,stim_fb/posf.jpg,stim_02/f.jpg,stim_02/e.jpg,1,3,f,2,11,131,40,j,0,0.266641100134,02,01,60.0175371314,PLT_learning_02,N,2014_Feb_10_1850,P07,
stim_fb/ques.jpg,stim_fb/posf.jpg,stim_fb/negf.jpg,stim_02/a.jpg,stim_02/b.jpg,2,1,j,2,12,132,19,f,0,0.299955979609,02,01,60.0175371314,PLT_learning_02,N,2014_Feb_10_1850,P07,
stim_fb/ques.jpg,stim_fb/negf.jpg,stim_fb/posf.jpg,stim_02/c.jpg,stim_02/d.jpg,2,2,j,2,13,133,33,j,1,0.316623623705,02,01,60.0175371314,PLT_learning_02,N,2014_Feb_10_1850,P07,
stim_fb/ques.jpg,stim_fb/negf.jpg,stim_fb/posf.jpg,stim_02/d.jpg,stim_02/c.jpg,1,2,f,2,14,134,26,j,0,0.149973260552,02,01,60.0175371314,PLT_learning_02,N,2014_Feb_10_1850,P07,
stim_fb/ques.jpg,stim_fb/negf.jpg,stim_fb/posf.jpg,stim_02/f.jpg,stim_02/e.jpg,1,3,f,2,15,135,41,f,1,0.216605954798,02,01,60.0175371314,PLT_learning_02,N,2014_Feb_10_1850,P07,
stim_fb/ques.jpg,stim_fb/negf.jpg,stim_fb/posf.jpg,stim_02/d.jpg,stim_02/c.jpg,1,2,f,2,16,136,21,f,1,0.59983919941,02,01,60.0175371314,PLT_learning_02,N,2014_Feb_10_1850,P07,
stim_fb/ques.jpg,stim_fb/negf.jpg,stim_fb/posf.jpg,stim_02/a.jpg,stim_02/b.jpg,2,1,j,2,17,137,11,j,1,0.86641080886,02,01,60.0175371314,PLT_learning_02,N,2014_Feb_10_1850,P07,
stim_fb/ques.jpg,stim_fb/negf.jpg,stim_fb/posf.jpg,stim_02/b.jpg,stim_02/a.jpg,1,1,f,2,18,138,6,f,1,0.94972005233,02,01,60.0175371314,PLT_learning_02,N,2014_Feb_10_1850,P07,
stim_fb/ques.jpg,stim_fb/negf.jpg,stim_fb/posf.jpg,stim_02/b.jpg,stim_02/a.jpg,1,1,f,2,19,139,4,f,1,0.899743324161,02,01,60.0175371314,PLT_learning_02,N,2014_Feb_10_1850,P07,
stim_fb/ques.jpg,stim_fb/posf.jpg,stim_fb/negf.jpg,stim_02/a.jpg,stim_02/b.jpg,2,1,j,2,20,140,18,j,1,1.53289288582,02,01,60.0175371314,PLT_learning_02,N,2014_Feb_10_1850,P07,
stim_fb/ques.jpg,stim_fb/negf.jpg,stim_fb/posf.jpg,stim_02/c.jpg,stim_02/d.jpg,2,2,j,2,21,141,35,j,1,1.66611028706,02,01,60.0175371314,PLT_learning_02,N,2014_Feb_10_1850,P07,
stim_fb/ques.jpg,stim_fb/posf.jpg,stim_fb/negf.jpg,stim_02/f.jpg,stim_02/e.jpg,1,3,f,2,22,142,46,j,0,1.23297238838,02,01,60.0175371314,PLT_learning_02,N,2014_Feb_10_1850,P07,
stim_fb/ques.jpg,stim_fb/negf.jpg,stim_fb/posf.jpg,stim_02/c.jpg,stim_02/d.jpg,2,2,j,2,23,143,36,j,1,1.11636149832,02,01,60.0175371314,PLT_learning_02,N,2014_Feb_10_1850,P07,
stim_fb/ques.jpg,stim_fb/negf.jpg,stim_fb/posf.jpg,stim_02/b.jpg,stim_02/a.jpg,1,1,f,2,24,144,5,f,1,0.849763618593,02,01,60.0175371314,PLT_learning_02,N,2014_Feb_10_1850,P07,
stim_fb/ques.jpg,stim_fb/negf.jpg,stim_fb/posf.jpg,stim_02/f.jpg,stim_02/e.jpg,1,3,f,2,25,145,43,f,1,1.28297255981,02,01,60.0175371314,PLT_learning_02,N,2014_Feb_10_1850,P07,
stim_fb/ques.jpg,stim_fb/negf.jpg,stim_fb/posf.jpg,stim_02/a.jpg,stim_02/b.jpg,2,1,j,2,26,146,15,j,1,1.01636182614,02,01,60.0175371314,PLT_learning_02,N,2014_Feb_10_1850,P07,
stim_fb/ques.jpg,stim_fb/posf.jpg,stim_fb/negf.jpg,stim_02/e.jpg,stim_02/f.jpg,2,3,j,2,27,147,56,j,1,0.899767657629,02,01,60.0175371314,PLT_learning_02,N,2014_Feb_10_1850,P07,
stim_fb/ques.jpg,stim_fb/posf.jpg,stim_fb/negf.jpg,stim_02/d.jpg,stim_02/c.jpg,1,2,f,2,28,148,28,j,0,0.949724665794,02,01,60.0175371314,PLT_learning_02,N,2014_Feb_10_1850,P07,
stim_fb/ques.jpg,stim_fb/negf.jpg,stim_fb/posf.jpg,stim_02/a.jpg,stim_02/b.jpg,2,1,j,2,29,149,10,j,1,1.0996870002,02,01,60.0175371314,PLT_learning_02,N,2014_Feb_10_1850,P07,
stim_fb/ques.jpg,stim_fb/posf.jpg,stim_fb/negf.jpg,stim_02/c.jpg,stim_02/d.jpg,2,2,j,2,30,150,38,j,1,0.716503357844,02,01,60.0175371314,PLT_learning_02,N,2014_Feb_10_1850,P07,
stim_fb/ques.jpg,stim_fb/negf.jpg,stim_fb/posf.jpg,stim_02/b.jpg,stim_02/a.jpg,1,1,f,2,31,151,3,f,1,0.499850835326,02,01,60.0175371314,PLT_learning_02,N,2014_Feb_10_1850,P07,
stim_fb/ques.jpg,stim_fb/posf.jpg,stim_fb/negf.jpg,stim_02/e.jpg,stim_02/f.jpg,2,3,j,2,32,152,58,j,1,0.349912975745,02,01,60.0175371314,PLT_learning_02,N,2014_Feb_10_1850,P07,
stim_fb/ques.jpg,stim_fb/negf.jpg,stim_fb/posf.jpg,stim_02/c.jpg,stim_02/d.jpg,2,2,j,2,33,153,31,j,1,0.416581076976,02,01,60.0175371314,PLT_learning_02,N,2014_Feb_10_1850,P07,
stim_fb/ques.jpg,stim_fb/posf.jpg,stim_fb/negf.jpg,stim_02/d.jpg,stim_02/c.jpg,1,2,f,2,34,154,29,f,1,0.816386788169,02,01,60.0175371314,PLT_learning_02,N,2014_Feb_10_1850,P07,
stim_fb/ques.jpg,stim_fb/negf.jpg,stim_fb/posf.jpg,stim_02/e.jpg,stim_02/f.jpg,2,3,j,2,35,155,51,j,1,0.816440649013,02,01,60.0175371314,PLT_learning_02,N,2014_Feb_10_1850,P07,
stim_fb/ques.jpg,stim_fb/negf.jpg,stim_fb/posf.jpg,stim_02/a.jpg,stim_02/b.jpg,2,1,j,2,36,156,12,j,1,0.866433969414,02,01,60.0175371314,PLT_learning_02,N,2014_Feb_10_1850,P07,
stim_fb/ques.jpg,stim_fb/negf.jpg,stim_fb/posf.jpg,stim_02/f.jpg,stim_02/e.jpg,1,3,f,2,37,157,42,j,0,1.36631698771,02,01,60.0175371314,PLT_learning_02,N,2014_Feb_10_1850,P07,
stim_fb/ques.jpg,stim_fb/negf.jpg,stim_fb/posf.jpg,stim_02/a.jpg,stim_02/b.jpg,2,1,j,2,38,158,17,None,0,,02,01,60.0175371314,PLT_learning_02,N,2014_Feb_10_1850,P07,
stim_fb/ques.jpg,stim_fb/posf.jpg,stim_fb/negf.jpg,stim_02/c.jpg,stim_02/d.jpg,2,2,j,2,39,159,37,f,0,1.2496513466,02,01,60.0175371314,PLT_learning_02,N,2014_Feb_10_1850,P07,
stim_fb/ques.jpg,stim_fb/negf.jpg,stim_fb/posf.jpg,stim_02/d.jpg,stim_02/c.jpg,1,2,f,2,40,160,22,None,0,,02,01,60.0175371314,PLT_learning_02,N,2014_Feb_10_1850,P07,
stim_fb/ques.jpg,stim_fb/negf.jpg,stim_fb/posf.jpg,stim_02/e.jpg,stim_02/f.jpg,2,3,j,2,41,161,53,j,1,1.53289630833,02,01,60.0175371314,PLT_learning_02,N,2014_Feb_10_1850,P07,
stim_fb/ques.jpg,stim_fb/negf.jpg,stim_fb/posf.jpg,stim_02/c.jpg,stim_02/d.jpg,2,2,j,2,42,162,34,f,0,1.18299651434,02,01,60.0175371314,PLT_learning_02,N,2014_Feb_10_1850,P07,
stim_fb/ques.jpg,stim_fb/negf.jpg,stim_fb/posf.jpg,stim_02/c.jpg,stim_02/d.jpg,2,2,j,2,43,163,32,j,1,0.783125246237,02,01,60.0175371314,PLT_learning_02,N,2014_Feb_10_1850,P07,
stim_fb/ques.jpg,stim_fb/posf.jpg,stim_fb/negf.jpg,stim_02/e.jpg,stim_02/f.jpg,2,3,j,2,44,164,59,f,0,1.36625695253,02,01,60.0175371314,PLT_learning_02,N,2014_Feb_10_1850,P07,
stim_fb/ques.jpg,stim_fb/posf.jpg,stim_fb/negf.jpg,stim_02/b.jpg,stim_02/a.jpg,1,1,f,2,45,165,9,f,1,0.983051277425,02,01,60.0175371314,PLT_learning_02,N,2014_Feb_10_1850,P07,
stim_fb/ques.jpg,stim_fb/negf.jpg,stim_fb/posf.jpg,stim_02/f.jpg,stim_02/e.jpg,1,3,f,2,46,166,44,j,0,1.51620392776,02,01,60.0175371314,PLT_learning_02,N,2014_Feb_10_1850,P07,
stim_fb/ques.jpg,stim_fb/negf.jpg,stim_fb/posf.jpg,stim_02/b.jpg,stim_02/a.jpg,1,1,f,2,47,167,0,f,1,0.949720762094,02,01,60.0175371314,PLT_learning_02,N,2014_Feb_10_1850,P07,
stim_fb/ques.jpg,stim_fb/posf.jpg,stim_fb/negf.jpg,stim_02/f.jpg,stim_02/e.jpg,1,3,f,2,48,168,48,j,0,1.06636832228,02,01,60.0175371314,PLT_learning_02,N,2014_Feb_10_1850,P07,
stim_fb/ques.jpg,stim_fb/negf.jpg,stim_fb/posf.jpg,stim_02/a.jpg,stim_02/b.jpg,2,1,j,2,49,169,13,f,0,1.03307535225,02,01,60.0175371314,PLT_learning_02,N,2014_Feb_10_1850,P07,
stim_fb/ques.jpg,stim_fb/negf.jpg,stim_fb/posf.jpg,stim_02/e.jpg,stim_02/f.jpg,2,3,j,2,50,170,55,f,0,0.983068949339,02,01,60.0175371314,PLT_learning_02,N,2014_Feb_10_1850,P07,
stim_fb/ques.jpg,stim_fb/negf.jpg,stim_fb/posf.jpg,stim_02/e.jpg,stim_02/f.jpg,2,3,j,2,51,171,50,f,0,1.01636594638,02,01,60.0175371314,PLT_learning_02,N,2014_Feb_10_1850,P07,
stim_fb/ques.jpg,stim_fb/negf.jpg,stim_fb/posf.jpg,stim_02/d.jpg,stim_02/c.jpg,1,2,f,2,52,172,25,f,1,1.03304642637,02,01,60.0175371314,PLT_learning_02,N,2014_Feb_10_1850,P07,
stim_fb/ques.jpg,stim_fb/posf.jpg,stim_fb/negf.jpg,stim_02/c.jpg,stim_02/d.jpg,2,2,j,2,53,173,39,j,1,0.916390800138,02,01,60.0175371314,PLT_learning_02,N,2014_Feb_10_1850,P07,
stim_fb/ques.jpg,stim_fb/posf.jpg,stim_fb/negf.jpg,stim_02/e.jpg,stim_02/f.jpg,2,3,j,2,54,174,57,None,0,,02,01,60.0175371314,PLT_learning_02,N,2014_Feb_10_1850,P07,
stim_fb/ques.jpg,stim_fb/negf.jpg,stim_fb/posf.jpg,stim_02/d.jpg,stim_02/c.jpg,1,2,f,2,55,175,24,f,1,1.43290043759,02,01,60.0175371314,PLT_learning_02,N,2014_Feb_10_1850,P07,
stim_fb/ques.jpg,stim_fb/posf.jpg,stim_fb/negf.jpg,stim_02/b.jpg,stim_02/a.jpg,1,1,f,2,56,176,8,f,1,1.19963764755,02,01,60.0175371314,PLT_learning_02,N,2014_Feb_10_1850,P07,
stim_fb/ques.jpg,stim_fb/negf.jpg,stim_fb/posf.jpg,stim_02/e.jpg,stim_02/f.jpg,2,3,j,2,57,177,54,j,1,1.34959081217,02,01,60.0175371314,PLT_learning_02,N,2014_Feb_10_1850,P07,
stim_fb/ques.jpg,stim_fb/negf.jpg,stim_fb/posf.jpg,stim_02/d.jpg,stim_02/c.jpg,1,2,f,2,58,178,20,j,0,1.43289346025,02,01,60.0175371314,PLT_learning_02,N,2014_Feb_10_1850,P07,
stim_fb/ques.jpg,stim_fb/negf.jpg,stim_fb/posf.jpg,stim_02/a.jpg,stim_02/b.jpg,2,1,j,2,59,179,14,j,1,1.23295213305,02,01,60.0175371314,PLT_learning_02,N,2014_Feb_10_1850,P07,
stim_fb/ques.jpg,stim_fb/negf.jpg,stim_fb/posf.jpg,stim_02/f.jpg,stim_02/e.jpg,1,3,f,3,0,180,40,f,1,1.03307280191,02,01,60.0175371314,PLT_learning_02,N,2014_Feb_10_1850,P07,
stim_fb/ques.jpg,stim_fb/negf.jpg,stim_fb/posf.jpg,stim_02/f.jpg,stim_02/e.jpg,1,3,f,3,1,181,42,j,0,1.1496501406,02,01,60.0175371314,PLT_learning_02,N,2014_Feb_10_1850,P07,
stim_fb/ques.jpg,stim_fb/negf.jpg,stim_fb/posf.jpg,stim_02/b.jpg,stim_02/a.jpg,1,1,f,3,2,182,5,f,1,1.01638083036,02,01,60.0175371314,PLT_learning_02,N,2014_Feb_10_1850,P07,
stim_fb/ques.jpg,stim_fb/negf.jpg,stim_fb/posf.jpg,stim_02/c.jpg,stim_02/d.jpg,2,2,j,3,3,183,34,j,1,1.03301346747,02,01,60.0175371314,PLT_learning_02,N,2014_Feb_10_1850,P07,
stim_fb/ques.jpg,stim_fb/negf.jpg,stim_fb/posf.jpg,stim_02/c.jpg,stim_02/d.jpg,2,2,j,3,4,184,35,j,1,0.883427455226,02,01,60.0175371314,PLT_learning_02,N,2014_Feb_10_1850,P07,
stim_fb/ques.jpg,stim_fb/negf.jpg,stim_fb/posf.jpg,stim_02/a.jpg,stim_02/b.jpg,2,1,j,3,5,185,17,j,1,1.09967745447,02,01,60.0175371314,PLT_learning_02,N,2014_Feb_10_1850,P07,
stim_fb/ques.jpg,stim_fb/negf.jpg,stim_fb/posf.jpg,stim_02/f.jpg,stim_02/e.jpg,1,3,f,3,6,186,44,j,0,1.21632750184,02,01,60.0175371314,PLT_learning_02,N,2014_Feb_10_1850,P07,
stim_fb/ques.jpg,stim_fb/negf.jpg,stim_fb/posf.jpg,stim_02/a.jpg,stim_02/b.jpg,2,1,j,3,7,187,12,j,1,1.0661919129,02,01,60.0175371314,PLT_learning_02,N,2014_Feb_10_1850,P07,
stim_fb/ques.jpg,stim_fb/negf.jpg,stim_fb/posf.jpg,stim_02/d.jpg,stim_02/c.jpg,1,2,f,3,8,188,21,j,0,1.282948491,02,01,60.0175371314,PLT_learning_02,N,2014_Feb_10_1850,P07,
stim_fb/ques.jpg,stim_fb/negf.jpg,stim_fb/posf.jpg,stim_02/b.jpg,stim_02/a.jpg,1,1,f,3,9,189,3,f,1,1.01637489361,02,01,60.0175371314,PLT_learning_02,N,2014_Feb_10_1850,P07,
stim_fb/ques.jpg,stim_fb/negf.jpg,stim_fb/posf.jpg,stim_02/d.jpg,stim_02/c.jpg,1,2,f,3,10,190,22,j,0,1.36626527421,02,01,60.0175371314,PLT_learning_02,N,2014_Feb_10_1850,P07,
stim_fb/ques.jpg,stim_fb/negf.jpg,stim_fb/posf.jpg,stim_02/a.jpg,stim_02/b.jpg,2,1,j,3,11,191,16,j,1,1.03300848408,02,01,60.0175371314,PLT_learning_02,N,2014_Feb_10_1850,P07,
stim_fb/ques.jpg,stim_fb/posf.jpg,stim_fb/negf.jpg,stim_02/f.jpg,stim_02/e.jpg,1,3,f,3,12,192,46,f,1,1.31627355378,02,01,60.0175371314,PLT_learning_02,N,2014_Feb_10_1850,P07,
stim_fb/ques.jpg,stim_fb/negf.jpg,stim_fb/posf.jpg,stim_02/a.jpg,stim_02/b.jpg,2,1,j,3,13,193,15,j,1,1.11636692381,02,01,60.0175371314,PLT_learning_02,N,2014_Feb_10_1850,P07,
stim_fb/ques.jpg,stim_fb/negf.jpg,stim_fb/posf.jpg,stim_02/b.jpg,stim_02/a.jpg,1,1,f,3,14,194,0,f,1,1.11633370626,02,01,60.0175371314,PLT_learning_02,N,2014_Feb_10_1850,P07,
stim_fb/ques.jpg,stim_fb/posf.jpg,stim_fb/negf.jpg,stim_02/f.jpg,stim_02/e.jpg,1,3,f,3,15,195,49,f,1,0.966395233154,02,01,60.0175371314,PLT_learning_02,N,2014_Feb_10_1850,P07,
stim_fb/ques.jpg,stim_fb/posf.jpg,stim_fb/negf.jpg,stim_02/b.jpg,stim_02/a.jpg,1,1,f,3,16,196,9,f,1,0.933096428626,02,01,60.0175371314,PLT_learning_02,N,2014_Feb_10_1850,P07,
stim_fb/ques.jpg,stim_fb/posf.jpg,stim_fb/negf.jpg,stim_02/e.jpg,stim_02/f.jpg,2,3,j,3,17,197,56,j,1,1.26630864498,02,01,60.0175371314,PLT_learning_02,N,2014_Feb_10_1850,P07,
stim_fb/ques.jpg,stim_fb/posf.jpg,stim_fb/negf.jpg,stim_02/a.jpg,stim_02/b.jpg,2,1,j,3,18,198,18,j,1,1.03303963549,02,01,60.0175371314,PLT_learning_02,N,2014_Feb_10_1850,P07,
stim_fb/ques.jpg,stim_fb/negf.jpg,stim_fb/posf.jpg,stim_02/d.jpg,stim_02/c.jpg,1,2,f,3,19,199,23,f,1,0.999719980151,02,01,60.0175371314,PLT_learning_02,N,2014_Feb_10_1850,P07,
stim_fb/ques.jpg,stim_fb/negf.jpg,stim_fb/posf.jpg,stim_02/f.jpg,stim_02/e.jpg,1,3,f,3,20,200,43,f,1,1.0996898603,02,01,60.0175371314,PLT_learning_02,N,2014_Feb_10_1850,P07,
stim_fb/ques.jpg,stim_fb/posf.jpg,stim_fb/negf.jpg,stim_02/c.jpg,stim_02/d.jpg,2,2,j,3,21,201,37,j,1,0.816491857265,02,01,60.0175371314,PLT_learning_02,N,2014_Feb_10_1850,P07,
stim_fb/ques.jpg,stim_fb/posf.jpg,stim_fb/negf.jpg,stim_02/f.jpg,stim_02/e.jpg,1,3,f,3,22,202,48,j,0,0.983049286477,02,01,60.0175371314,PLT_learning_02,N,2014_Feb_10_1850,P07,
stim_fb/ques.jpg,stim_fb/posf.jpg,stim_fb/negf.jpg,stim_02/d.jpg,stim_02/c.jpg,1,2,f,3,23,203,28,f,1,0.999722738004,02,01,60.0175371314,PLT_learning_02,N,2014_Feb_10_1850,P07,
stim_fb/ques.jpg,stim_fb/negf.jpg,stim_fb/posf.jpg,stim_02/f.jpg,stim_02/e.jpg,1,3,f,3,24,204,45,j,0,1.09967906347,02,01,60.0175371314,PLT_learning_02,N,2014_Feb_10_1850,P07,
stim_fb/ques.jpg,stim_fb/negf.jpg,stim_fb/posf.jpg,stim_02/b.jpg,stim_02/a.jpg,1,1,f,3,25,205,2,f,1,1.04972974542,02,01,60.0175371314,PLT_learning_02,N,2014_Feb_10_1850,P07,
stim_fb/ques.jpg,stim_fb/posf.jpg,stim_fb/negf.jpg,stim_02/c.jpg,stim_02/d.jpg,2,2,j,3,26,206,39,j,1,1.04968790545,02,01,60.0175371314,PLT_learning_02,N,2014_Feb_10_1850,P07,
stim_fb/ques.jpg,stim_fb/negf.jpg,stim_fb/posf.jpg,stim_02/e.jpg,stim_02/f.jpg,2,3,j,3,27,207,51,j,1,1.41623427918,02,01,60.0175371314,PLT_learning_02,N,2014_Feb_10_1850,P07,
stim_fb/ques.jpg,stim_fb/negf.jpg,stim_fb/posf.jpg,stim_02/e.jpg,stim_02/f.jpg,2,3,j,3,28,208,55,j,1,1.46623864904,02,01,60.0175371314,PLT_learning_02,N,2014_Feb_10_1850,P07,
stim_fb/ques.jpg,stim_fb/posf.jpg,stim_fb/negf.jpg,stim_02/d.jpg,stim_02/c.jpg,1,2,f,3,29,209,29,j,0,1.51619298657,02,01,60.0175371314,PLT_learning_02,N,2014_Feb_10_1850,P07,
stim_fb/ques.jpg,stim_fb/negf.jpg,stim_fb/posf.jpg,stim_02/d.jpg,stim_02/c.jpg,1,2,f,3,30,210,24,f,1,1.19965549992,02,01,60.0175371314,PLT_learning_02,N,2014_Feb_10_1850,P07,
stim_fb/ques.jpg,stim_fb/negf.jpg,stim_fb/posf.jpg,stim_02/b.jpg,stim_02/a.jpg,1,1,f,3,31,211,6,f,1,1.16633308371,02,01,60.0175371314,PLT_learning_02,N,2014_Feb_10_1850,P07,
stim_fb/ques.jpg,stim_fb/posf.jpg,stim_fb/negf.jpg,stim_02/e.jpg,stim_02/f.jpg,2,3,j,3,32,212,59,f,0,1.54956195847,02,01,60.0175371314,PLT_learning_02,N,2014_Feb_10_1850,P07,
stim_fb/ques.jpg,stim_fb/negf.jpg,stim_fb/posf.jpg,stim_02/f.jpg,stim_02/e.jpg,1,3,f,3,33,213,41,f,1,1.43290409167,02,01,60.0175371314,PLT_learning_02,N,2014_Feb_10_1850,P07,
stim_fb/ques.jpg,stim_fb/negf.jpg,stim_fb/posf.jpg,stim_02/a.jpg,stim_02/b.jpg,2,1,j,3,34,214,13,j,1,1.28296504413,02,01,60.0175371314,PLT_learning_02,N,2014_Feb_10_1850,P07,
stim_fb/ques.jpg,stim_fb/posf.jpg,stim_fb/negf.jpg,stim_02/d.jpg,stim_02/c.jpg,1,2,f,3,35,215,27,f,1,1.31627232072,02,01,60.0175371314,PLT_learning_02,N,2014_Feb_10_1850,P07,
stim_fb/ques.jpg,stim_fb/negf.jpg,stim_fb/posf.jpg,stim_02/a.jpg,stim_02/b.jpg,2,1,j,3,36,216,10,j,1,1.0330555721,02,01,60.0175371314,PLT_learning_02,N,2014_Feb_10_1850,P07,
stim_fb/ques.jpg,stim_fb/negf.jpg,stim_fb/posf.jpg,stim_02/a.jpg,stim_02/b.jpg,2,1,j,3,37,217,11,j,1,0.916399593991,02,01,60.0175371314,PLT_learning_02,N,2014_Feb_10_1850,P07,
stim_fb/ques.jpg,stim_fb/negf.jpg,stim_fb/posf.jpg,stim_02/c.jpg,stim_02/d.jpg,2,2,j,3,38,218,33,j,1,1.33293509872,02,01,60.0175371314,PLT_learning_02,N,2014_Feb_10_1850,P07,
stim_fb/ques.jpg,stim_fb/negf.jpg,stim_fb/posf.jpg,stim_02/e.jpg,stim_02/f.jpg,2,3,j,3,39,219,52,f,0,1.66617139893,02,01,60.0175371314,PLT_learning_02,N,2014_Feb_10_1850,P07,
stim_fb/ques.jpg,stim_fb/negf.jpg,stim_fb/posf.jpg,stim_02/c.jpg,stim_02/d.jpg,2,2,j,3,40,220,36,j,1,0.966402890182,02,01,60.0175371314,PLT_learning_02,N,2014_Feb_10_1850,P07,
stim_fb/ques.jpg,stim_fb/negf.jpg,stim_fb/posf.jpg,stim_02/d.jpg,stim_02/c.jpg,1,2,f,3,41,221,26,f,1,1.13304545195,02,01,60.0175371314,PLT_learning_02,N,2014_Feb_10_1850,P07,
stim_fb/ques.jpg,stim_fb/negf.jpg,stim_fb/posf.jpg,stim_02/d.jpg,stim_02/c.jpg,1,2,f,3,42,222,25,f,1,0.983052657855,02,01,60.0175371314,PLT_learning_02,N,2014_Feb_10_1850,P07,
stim_fb/ques.jpg,stim_fb/negf.jpg,stim_fb/posf.jpg,stim_02/e.jpg,stim_02/f.jpg,2,3,j,3,43,223,50,None,0,,02,01,60.0175371314,PLT_learning_02,N,2014_Feb_10_1850,P07,
stim_fb/ques.jpg,stim_fb/negf.jpg,stim_fb/posf.jpg,stim_02/b.jpg,stim_02/a.jpg,1,1,f,3,44,224,1,f,1,0.883019115502,02,01,60.0175371314,PLT_learning_02,N,2014_Feb_10_1850,P07,
stim_fb/ques.jpg,stim_fb/negf.jpg,stim_fb/posf.jpg,stim_02/c.jpg,stim_02/d.jpg,2,2,j,3,45,225,31,j,1,0.833150331574,02,01,60.0175371314,PLT_learning_02,N,2014_Feb_10_1850,P07,
stim_fb/ques.jpg,stim_fb/posf.jpg,stim_fb/negf.jpg,stim_02/b.jpg,stim_02/a.jpg,1,1,f,3,46,226,8,None,0,,02,01,60.0175371314,PLT_learning_02,N,2014_Feb_10_1850,P07,
stim_fb/ques.jpg,stim_fb/negf.jpg,stim_fb/posf.jpg,stim_02/a.jpg,stim_02/b.jpg,2,1,j,3,47,227,14,j,1,0.899770538789,02,01,60.0175371314,PLT_learning_02,N,2014_Feb_10_1850,P07,
stim_fb/ques.jpg,stim_fb/negf.jpg,stim_fb/posf.jpg,stim_02/c.jpg,stim_02/d.jpg,2,2,j,3,48,228,32,j,1,0.816453045819,02,01,60.0175371314,PLT_learning_02,N,2014_Feb_10_1850,P07,
stim_fb/ques.jpg,stim_fb/posf.jpg,stim_fb/negf.jpg,stim_02/a.jpg,stim_02/b.jpg,2,1,j,3,49,229,19,j,1,1.01638292356,02,01,60.0175371314,PLT_learning_02,N,2014_Feb_10_1850,P07,
stim_fb/ques.jpg,stim_fb/posf.jpg,stim_fb/negf.jpg,stim_02/f.jpg,stim_02/e.jpg,1,3,f,3,50,230,47,j,0,1.11636158855,02,01,60.0175371314,PLT_learning_02,N,2014_Feb_10_1850,P07,
stim_fb/ques.jpg,stim_fb/negf.jpg,stim_fb/posf.jpg,stim_02/e.jpg,stim_02/f.jpg,2,3,j,3,51,231,54,j,1,1.29959527526,02,01,60.0175371314,PLT_learning_02,N,2014_Feb_10_1850,P07,
stim_fb/ques.jpg,stim_fb/posf.jpg,stim_fb/negf.jpg,stim_02/e.jpg,stim_02/f.jpg,2,3,j,3,52,232,57,j,1,1.21631133968,02,01,60.0175371314,PLT_learning_02,N,2014_Feb_10_1850,P07,
stim_fb/ques.jpg,stim_fb/negf.jpg,stim_fb/posf.jpg,stim_02/b.jpg,stim_02/a.jpg,1,1,f,3,53,233,4,f,1,1.16633077097,02,01,60.0175371314,PLT_learning_02,N,2014_Feb_10_1850,P07,
stim_fb/ques.jpg,stim_fb/negf.jpg,stim_fb/posf.jpg,stim_02/c.jpg,stim_02/d.jpg,2,2,j,3,54,234,30,j,1,0.983048871445,02,01,60.0175371314,PLT_learning_02,N,2014_Feb_10_1850,P07,
stim_fb/ques.jpg,stim_fb/posf.jpg,stim_fb/negf.jpg,stim_02/e.jpg,stim_02/f.jpg,2,3,j,3,55,235,58,j,1,1.21632337559,02,01,60.0175371314,PLT_learning_02,N,2014_Feb_10_1850,P07,
stim_fb/ques.jpg,stim_fb/negf.jpg,stim_fb/posf.jpg,stim_02/e.jpg,stim_02/f.jpg,2,3,j,3,56,236,53,f,0,0.716526292838,02,01,60.0175371314,PLT_learning_02,N,2014_Feb_10_1850,P07,
stim_fb/ques.jpg,stim_fb/negf.jpg,stim_fb/posf.jpg,stim_02/d.jpg,stim_02/c.jpg,1,2,f,3,57,237,20,j,0,1.16631391107,02,01,60.0175371314,PLT_learning_02,N,2014_Feb_10_1850,P07,
stim_fb/ques.jpg,stim_fb/negf.jpg,stim_fb/posf.jpg,stim_02/b.jpg,stim_02/a.jpg,1,1,f,3,58,238,7,f,1,0.86642135607,02,01,60.0175371314,PLT_learning_02,N,2014_Feb_10_1850,P07,
stim_fb/ques.jpg,stim_fb/posf.jpg,stim_fb/negf.jpg,stim_02/c.jpg,stim_02/d.jpg,2,2,j,3,59,239,38,j,1,0.883092524924,02,01,60.0175371314,PLT_learning_02,N,2014_Feb_10_1850,P07,
stim_fb/ques.jpg,stim_fb/negf.jpg,stim_fb/posf.jpg,stim_02/d.jpg,stim_02/c.jpg,1,2,f,4,0,240,21,f,1,1.44955783221,02,01,60.0175371314,PLT_learning_02,N,2014_Feb_10_1850,P07,
stim_fb/ques.jpg,stim_fb/negf.jpg,stim_fb/posf.jpg,stim_02/a.jpg,stim_02/b.jpg,2,1,j,4,1,241,17,j,1,0.766474871054,02,01,60.0175371314,PLT_learning_02,N,2014_Feb_10_1850,P07,
stim_fb/ques.jpg,stim_fb/posf.jpg,stim_fb/negf.jpg,stim_02/c.jpg,stim_02/d.jpg,2,2,j,4,2,242,38,j,1,0.583191961023,02,01,60.0175371314,PLT_learning_02,N,2014_Feb_10_1850,P07,
stim_fb/ques.jpg,stim_fb/negf.jpg,stim_fb/posf.jpg,stim_02/a.jpg,stim_02/b.jpg,2,1,j,4,3,243,13,j,1,0.933067120795,02,01,60.0175371314,PLT_learning_02,N,2014_Feb_10_1850,P07,
stim_fb/ques.jpg,stim_fb/negf.jpg,stim_fb/posf.jpg,stim_02/e.jpg,stim_02/f.jpg,2,3,j,4,4,244,52,f,0,1.18299358807,02,01,60.0175371314,PLT_learning_02,N,2014_Feb_10_1850,P07,
stim_fb/ques.jpg,stim_fb/negf.jpg,stim_fb/posf.jpg,stim_02/b.jpg,stim_02/a.jpg,1,1,f,4,5,245,2,f,1,1.04969049789,02,01,60.0175371314,PLT_learning_02,N,2014_Feb_10_1850,P07,
stim_fb/ques.jpg,stim_fb/negf.jpg,stim_fb/posf.jpg,stim_02/f.jpg,stim_02/e.jpg,1,3,f,4,6,246,44,j,0,1.13298040029,02,01,60.0175371314,PLT_learning_02,N,2014_Feb_10_1850,P07,
stim_fb/ques.jpg,stim_fb/negf.jpg,stim_fb/posf.jpg,stim_02/c.jpg,stim_02/d.jpg,2,2,j,4,7,247,34,j,1,1.06634828048,02,01,60.0175371314,PLT_learning_02,N,2014_Feb_10_1850,P07,
stim_fb/ques.jpg,stim_fb/negf.jpg,stim_fb/posf.jpg,stim_02/e.jpg,stim_02/f.jpg,2,3,j,4,8,248,53,j,1,0.916384183697,02,01,60.0175371314,PLT_learning_02,N,2014_Feb_10_1850,P07,
stim_fb/ques.jpg,stim_fb/negf.jpg,stim_fb/posf.jpg,stim_02/c.jpg,stim_02/d.jpg,2,2,j,4,9,249,31,j,1,0.999716145622,02,01,60.0175371314,PLT_learning_02,N,2014_Feb_10_1850,P07,
stim_fb/ques.jpg,stim_fb/negf.jpg,stim_fb/posf.jpg,stim_02/d.jpg,stim_02/c.jpg,1,2,f,4,10,250,22,f,1,0.799824017684,02,01,60.0175371314,PLT_learning_02,N,2014_Feb_10_1850,P07,
stim_fb/ques.jpg,stim_fb/negf.jpg,stim_fb/posf.jpg,stim_02/b.jpg,stim_02/a.jpg,1,1,f,4,11,251,5,f,1,1.09982399964,02,01,60.0175371314,PLT_learning_02,N,2014_Feb_10_1850,P07,
stim_fb/ques.jpg,stim_fb/negf.jpg,stim_fb/posf.jpg,stim_02/b.jpg,stim_02/a.jpg,1,1,f,4,12,252,6,j,0,0.949733047623,02,01,60.0175371314,PLT_learning_02,N,2014_Feb_10_1850,P07,
stim_fb/ques.jpg,stim_fb/posf.jpg,stim_fb/negf.jpg,stim_02/d.jpg,stim_02/c.jpg,1,2,f,4,13,253,28,f,1,1.1996479271,02,01,60.0175371314,PLT_learning_02,N,2014_Feb_10_1850,P07,
stim_fb/ques.jpg,stim_fb/posf.jpg,stim_fb/negf.jpg,stim_02/d.jpg,stim_02/c.jpg,1,2,f,4,14,254,29,f,1,0.966394706847,02,01,60.0175371314,PLT_learning_02,N,2014_Feb_10_1850,P07,
stim_fb/ques.jpg,stim_fb/negf.jpg,stim_fb/posf.jpg,stim_02/b.jpg,stim_02/a.jpg,1,1,f,4,15,255,3,f,1,0.799781888994,02,01,60.0175371314,PLT_learning_02,N,2014_Feb_10_1850,P07,
stim_fb/ques.jpg,stim_fb/negf.jpg,stim_fb/posf.jpg,stim_02/f.jpg,stim_02/e.jpg,1,3,f,4,16,256,45,f,1,0.866456290883,02,01,60.0175371314,PLT_learning_02,N,2014_Feb_10_1850,P07,
stim_fb/ques.jpg,stim_fb/negf.jpg,stim_fb/posf.jpg,stim_02/a.jpg,stim_02/b.jpg,2,1,j,4,17,257,16,j,1,0.76646195997,02,01,60.0175371314,PLT_learning_02,N,2014_Feb_10_1850,P07,
stim_fb/ques.jpg,stim_fb/negf.jpg,stim_fb/posf.jpg,stim_02/f.jpg,stim_02/e.jpg,1,3,f,4,18,258,43,j,0,0.949714293018,02,01,60.0175371314,PLT_learning_02,N,2014_Feb_10_1850,P07,
stim_fb/ques.jpg,stim_fb/negf.jpg,stim_fb/posf.jpg,stim_02/c.jpg,stim_02/d.jpg,2,2,j,4,19,259,30,j,1,0.866443731673,02,01,60.0175371314,PLT_learning_02,N,2014_Feb_10_1850,P07,
stim_fb/ques.jpg,stim_fb/posf.jpg,stim_fb/negf.jpg,stim_02/b.jpg,stim_02/a.jpg,1,1,f,4,20,260,8,f,1,1.08302508834,02,01,60.0175371314,PLT_learning_02,N,2014_Feb_10_1850,P07,
stim_fb/ques.jpg,stim_fb/negf.jpg,stim_fb/posf.jpg,stim_02/f.jpg,stim_02/e.jpg,1,3,f,4,21,261,41,f,1,1.54953037097,02,01,60.0175371314,PLT_learning_02,N,2014_Feb_10_1850,P07,
stim_fb/ques.jpg,stim_fb/negf.jpg,stim_fb/posf.jpg,stim_02/a.jpg,stim_02/b.jpg,2,1,j,4,22,262,12,None,0,,02,01,60.0175371314,PLT_learning_02,N,2014_Feb_10_1850,P07,
stim_fb/ques.jpg,stim_fb/negf.jpg,stim_fb/posf.jpg,stim_02/a.jpg,stim_02/b.jpg,2,1,j,4,23,263,14,j,1,0.716441954256,02,01,60.0175371314,PLT_learning_02,N,2014_Feb_10_1850,P07,
stim_fb/ques.jpg,stim_fb/negf.jpg,stim_fb/posf.jpg,stim_02/d.jpg,stim_02/c.jpg,1,2,f,4,24,264,20,f,1,1.11629325875,02,01,60.0175371314,PLT_learning_02,N,2014_Feb_10_1850,P07,
stim_fb/ques.jpg,stim_fb/negf.jpg,stim_fb/posf.jpg,stim_02/c.jpg,stim_02/d.jpg,2,2,j,4,25,265,33,j,1,0.949752830784,02,01,60.0175371314,PLT_learning_02,N,2014_Feb_10_1850,P07,
stim_fb/ques.jpg,stim_fb/negf.jpg,stim_fb/posf.jpg,stim_02/d.jpg,stim_02/c.jpg,1,2,f,4,26,266,23,f,1,0.949726623659,02,01,60.0175371314,PLT_learning_02,N,2014_Feb_10_1850,P07,
stim_fb/ques.jpg,stim_fb/posf.jpg,stim_fb/negf.jpg,stim_02/e.jpg,stim_02/f.jpg,2,3,j,4,27,267,57,f,0,1.16638330251,02,01,60.0175371314,PLT_learning_02,N,2014_Feb_10_1850,P07,
stim_fb/ques.jpg,stim_fb/posf.jpg,stim_fb/negf.jpg,stim_02/e.jpg,stim_02/f.jpg,2,3,j,4,28,268,59,f,0,1.21631807041,02,01,60.0175371314,PLT_learning_02,N,2014_Feb_10_1850,P07,
stim_fb/ques.jpg,stim_fb/posf.jpg,stim_fb/negf.jpg,stim_02/c.jpg,stim_02/d.jpg,2,2,j,4,29,269,37,j,1,1.26630118344,02,01,60.0175371314,PLT_learning_02,N,2014_Feb_10_1850,P07,
stim_fb/ques.jpg,stim_fb/negf.jpg,stim_fb/posf.jpg,stim_02/d.jpg,stim_02/c.jpg,1,2,f,4,30,270,24,f,1,1.49954856017,02,01,60.0175371314,PLT_learning_02,N,2014_Feb_10_1850,P07,
stim_fb/ques.jpg,stim_fb/negf.jpg,stim_fb/posf.jpg,stim_02/b.jpg,stim_02/a.jpg,1,1,f,4,31,271,1,f,1,1.56620589766,02,01,60.0175371314,PLT_learning_02,N,2014_Feb_10_1850,P07,
stim_fb/ques.jpg,stim_fb/posf.jpg,stim_fb/negf.jpg,stim_02/c.jpg,stim_02/d.jpg,2,2,j,4,32,272,39,j,1,0.933094988045,02,01,60.0175371314,PLT_learning_02,N,2014_Feb_10_1850,P07,
stim_fb/ques.jpg,stim_fb/negf.jpg,stim_fb/posf.jpg,stim_02/d.jpg,stim_02/c.jpg,1,2,f,4,33,273,25,f,1,0.666482967174,02,01,60.0175371314,PLT_learning_02,N,2014_Feb_10_1850,P07,
stim_fb/ques.jpg,stim_fb/posf.jpg,stim_fb/negf.jpg,stim_02/f.jpg,stim_02/e.jpg,1,3,f,4,34,274,46,j,0,0.849770484654,02,01,60.0175371314,PLT_learning_02,N,2014_Feb_10_1850,P07,
stim_fb/ques.jpg,stim_fb/negf.jpg,stim_fb/posf.jpg,stim_02/e.jpg,stim_02/f.jpg,2,3,j,4,35,275,55,f,0,1.21630798935,02,01,60.0175371314,PLT_learning_02,N,2014_Feb_10_1850,P07,
stim_fb/ques.jpg,stim_fb/negf.jpg,stim_fb/posf.jpg,stim_02/b.jpg,stim_02/a.jpg,1,1,f,4,36,276,7,f,1,0.883085180674,02,01,60.0175371314,PLT_learning_02,N,2014_Feb_10_1850,P07,
stim_fb/ques.jpg,stim_fb/negf.jpg,stim_fb/posf.jpg,stim_02/a.jpg,stim_02/b.jpg,2,1,j,4,37,277,15,j,1,0.733203996932,02,01,60.0175371314,PLT_learning_02,N,2014_Feb_10_1850,P07,
stim_fb/ques.jpg,stim_fb/posf.jpg,stim_fb/negf.jpg,stim_02/b.jpg,stim_02/a.jpg,1,1,f,4,38,278,9,f,1,0.833152271395,02,01,60.0175371314,PLT_learning_02,N,2014_Feb_10_1850,P07,
stim_fb/ques.jpg,stim_fb/negf.jpg,stim_fb/posf.jpg,stim_02/f.jpg,stim_02/e.jpg,1,3,f,4,39,279,42,f,1,1.06636020812,02,01,60.0175371314,PLT_learning_02,N,2014_Feb_10_1850,P07,
stim_fb/ques.jpg,stim_fb/posf.jpg,stim_fb/negf.jpg,stim_02/f.jpg,stim_02/e.jpg,1,3,f,4,40,280,48,j,0,0.549867099743,02,01,60.0175371314,PLT_learning_02,N,2014_Feb_10_1850,P07,
stim_fb/ques.jpg,stim_fb/negf.jpg,stim_fb/posf.jpg,stim_02/e.jpg,stim_02/f.jpg,2,3,j,4,41,281,51,f,0,0.249954277379,02,01,60.0175371314,PLT_learning_02,N,2014_Feb_10_1850,P07,
stim_fb/ques.jpg,stim_fb/negf.jpg,stim_fb/posf.jpg,stim_02/c.jpg,stim_02/d.jpg,2,2,j,4,42,282,36,j,1,0.499908873551,02,01,60.0175371314,PLT_learning_02,N,2014_Feb_10_1850,P07,
stim_fb/ques.jpg,stim_fb/negf.jpg,stim_fb/posf.jpg,stim_02/e.jpg,stim_02/f.jpg,2,3,j,4,43,283,50,j,1,1.29955214207,02,01,60.0175371314,PLT_learning_02,N,2014_Feb_10_1850,P07,
stim_fb/ques.jpg,stim_fb/posf.jpg,stim_fb/negf.jpg,stim_02/e.jpg,stim_02/f.jpg,2,3,j,4,44,284,58,f,0,0.916414038887,02,01,60.0175371314,PLT_learning_02,N,2014_Feb_10_1850,P07,
stim_fb/ques.jpg,stim_fb/negf.jpg,stim_fb/posf.jpg,stim_02/f.jpg,stim_02/e.jpg,1,3,f,4,45,285,40,f,1,0.916427533421,02,01,60.0175371314,PLT_learning_02,N,2014_Feb_10_1850,P07,
stim_fb/ques.jpg,stim_fb/negf.jpg,stim_fb/posf.jpg,stim_02/c.jpg,stim_02/d.jpg,2,2,j,4,46,286,32,j,1,0.699664675719,02,01,60.0175371314,PLT_learning_02,N,2014_Feb_10_1850,P07,
stim_fb/ques.jpg,stim_fb/negf.jpg,stim_fb/posf.jpg,stim_02/a.jpg,stim_02/b.jpg,2,1,j,4,47,287,11,j,1,1.09969309634,02,01,60.0175371314,PLT_learning_02,N,2014_Feb_10_1850,P07,
stim_fb/ques.jpg,stim_fb/negf.jpg,stim_fb/posf.jpg,stim_02/b.jpg,stim_02/a.jpg,1,1,f,4,48,288,0,f,1,0.949742695599,02,01,60.0175371314,PLT_learning_02,N,2014_Feb_10_1850,P07,
stim_fb/ques.jpg,stim_fb/posf.jpg,stim_fb/negf.jpg,stim_02/e.jpg,stim_02/f.jpg,2,3,j,4,49,289,56,j,1,1.0496962963,02,01,60.0175371314,PLT_learning_02,N,2014_Feb_10_1850,P07,
stim_fb/ques.jpg,stim_fb/negf.jpg,stim_fb/posf.jpg,stim_02/a.jpg,stim_02/b.jpg,2,1,j,4,50,290,10,j,1,1.06646374942,02,01,60.0175371314,PLT_learning_02,N,2014_Feb_10_1850,P07,
stim_fb/ques.jpg,stim_fb/posf.jpg,stim_fb/negf.jpg,stim_02/f.jpg,stim_02/e.jpg,1,3,f,4,51,291,49,j,0,0.899736867115,02,01,60.0175371314,PLT_learning_02,N,2014_Feb_10_1850,P07,
stim_fb/ques.jpg,stim_fb/posf.jpg,stim_fb/negf.jpg,stim_02/d.jpg,stim_02/c.jpg,1,2,f,4,52,292,27,f,1,0.833096109833,02,01,60.0175371314,PLT_learning_02,N,2014_Feb_10_1850,P07,
stim_fb/ques.jpg,stim_fb/posf.jpg,stim_fb/negf.jpg,stim_02/a.jpg,stim_02/b.jpg,2,1,j,4,53,293,19,j,1,1.14962530789,02,01,60.0175371314,PLT_learning_02,N,2014_Feb_10_1850,P07,
stim_fb/ques.jpg,stim_fb/negf.jpg,stim_fb/posf.jpg,stim_02/d.jpg,stim_02/c.jpg,1,2,f,4,54,294,26,j,0,0.916398592502,02,01,60.0175371314,PLT_learning_02,N,2014_Feb_10_1850,P07,
stim_fb/ques.jpg,stim_fb/posf.jpg,stim_fb/negf.jpg,stim_02/a.jpg,stim_02/b.jpg,2,1,j,4,55,295,18,f,0,1.53284065202,02,01,60.0175371314,PLT_learning_02,N,2014_Feb_10_1850,P07,
stim_fb/ques.jpg,stim_fb/negf.jpg,stim_fb/posf.jpg,stim_02/e.jpg,stim_02/f.jpg,2,3,j,4,56,296,54,j,1,0.933078931144,02,01,60.0175371314,PLT_learning_02,N,2014_Feb_10_1850,P07,
stim_fb/ques.jpg,stim_fb/negf.jpg,stim_fb/posf.jpg,stim_02/c.jpg,stim_02/d.jpg,2,2,j,4,57,297,35,j,1,0.966334734816,02,01,60.0175371314,PLT_learning_02,N,2014_Feb_10_1850,P07,
stim_fb/ques.jpg,stim_fb/negf.jpg,stim_fb/posf.jpg,stim_02/b.jpg,stim_02/a.jpg,1,1,f,4,58,298,4,f,1,0.933082783718,02,01,60.0175371314,PLT_learning_02,N,2014_Feb_10_1850,P07,
stim_fb/ques.jpg,stim_fb/posf.jpg,stim_fb/negf.jpg,stim_02/f.jpg,stim_02/e.jpg,1,3,f,4,59,299,47,f,1,1.21631455166,02,01,60.0175371314,PLT_learning_02,N,2014_Feb_10_1850,P07,
stim_fb/ques.jpg,stim_fb/negf.jpg,stim_fb/posf.jpg,stim_02/a.jpg,stim_02/b.jpg,2,1,j,5,0,300,10,j,1,1.066369817,02,01,60.0175371314,PLT_learning_02,N,2014_Feb_10_1850,P07,
stim_fb/ques.jpg,stim_fb/negf.jpg,stim_fb/posf.jpg,stim_02/a.jpg,stim_02/b.jpg,2,1,j,5,1,301,13,j,1,0.816452173652,02,01,60.0175371314,PLT_learning_02,N,2014_Feb_10_1850,P07,
stim_fb/ques.jpg,stim_fb/negf.jpg,stim_fb/posf.jpg,stim_02/d.jpg,stim_02/c.jpg,1,2,f,5,2,302,21,f,1,0.966395915851,02,01,60.0175371314,PLT_learning_02,N,2014_Feb_10_1850,P07,
stim_fb/ques.jpg,stim_fb/posf.jpg,stim_fb/negf.jpg,stim_02/f.jpg,stim_02/e.jpg,1,3,f,5,3,303,48,f,1,1.39957335679,02,01,60.0175371314,PLT_learning_02,N,2014_Feb_10_1850,P07,
stim_fb/ques.jpg,stim_fb/negf.jpg,stim_fb/posf.jpg,stim_02/b.jpg,stim_02/a.jpg,1,1,f,5,4,304,3,f,1,1.34960944347,02,01,60.0175371314,PLT_learning_02,N,2014_Feb_10_1850,P07,
stim_fb/ques.jpg,stim_fb/negf.jpg,stim_fb/posf.jpg,stim_02/c.jpg,stim_02/d.jpg,2,2,j,5,5,305,33,j,1,0.782987597179,02,01,60.0175371314,PLT_learning_02,N,2014_Feb_10_1850,P07,
stim_fb/ques.jpg,stim_fb/negf.jpg,stim_fb/posf.jpg,stim_02/f.jpg,stim_02/e.jpg,1,3,f,5,6,306,45,f,1,1.34966346371,02,01,60.0175371314,PLT_learning_02,N,2014_Feb_10_1850,P07,
stim_fb/ques.jpg,stim_fb/negf.jpg,stim_fb/posf.jpg,stim_02/a.jpg,stim_02/b.jpg,2,1,j,5,7,307,11,j,1,1.11633832574,02,01,60.0175371314,PLT_learning_02,N,2014_Feb_10_1850,P07,
stim_fb/ques.jpg,stim_fb/posf.jpg,stim_fb/negf.jpg,stim_02/b.jpg,stim_02/a.jpg,1,1,f,5,8,308,9,f,1,0.799771134269,02,01,60.0175371314,PLT_learning_02,N,2014_Feb_10_1850,P07,
stim_fb/ques.jpg,stim_fb/negf.jpg,stim_fb/posf.jpg,stim_02/e.jpg,stim_02/f.jpg,2,3,j,5,9,309,55,j,1,1.58287405603,02,01,60.0175371314,PLT_learning_02,N,2014_Feb_10_1850,P07,
stim_fb/ques.jpg,stim_fb/posf.jpg,stim_fb/negf.jpg,stim_02/d.jpg,stim_02/c.jpg,1,2,f,5,10,310,28,None,0,,02,01,60.0175371314,PLT_learning_02,N,2014_Feb_10_1850,P07,
stim_fb/ques.jpg,stim_fb/negf.jpg,stim_fb/posf.jpg,stim_02/f.jpg,stim_02/e.jpg,1,3,f,5,11,311,42,f,1,1.53286959595,02,01,60.0175371314,PLT_learning_02,N,2014_Feb_10_1850,P07,
stim_fb/ques.jpg,stim_fb/negf.jpg,stim_fb/posf.jpg,stim_02/d.jpg,stim_02/c.jpg,1,2,f,5,12,312,22,f,1,1.01636944407,02,01,60.0175371314,PLT_learning_02,N,2014_Feb_10_1850,P07,
stim_fb/ques.jpg,stim_fb/negf.jpg,stim_fb/posf.jpg,stim_02/b.jpg,stim_02/a.jpg,1,1,f,5,13,313,0,f,1,1.19966671779,02,01,60.0175371314,PLT_learning_02,N,2014_Feb_10_1850,P07,
stim_fb/ques.jpg,stim_fb/negf.jpg,stim_fb/posf.jpg,stim_02/c.jpg,stim_02/d.jpg,2,2,j,5,14,314,36,f,0,1.21632884618,02,01,60.0175371314,PLT_learning_02,N,2014_Feb_10_1850,P07,
stim_fb/ques.jpg,stim_fb/negf.jpg,stim_fb/posf.jpg,stim_02/d.jpg,stim_02/c.jpg,1,2,f,5,15,315,24,f,1,0.833068765884,02,01,60.0175371314,PLT_learning_02,N,2014_Feb_10_1850,P07,
stim_fb/ques.jpg,stim_fb/negf.jpg,stim_fb/posf.jpg,stim_02/a.jpg,stim_02/b.jpg,2,1,j,5,16,316,15,f,0,0.91643333183,02,01,60.0175371314,PLT_learning_02,N,2014_Feb_10_1850,P07,
stim_fb/ques.jpg,stim_fb/negf.jpg,stim_fb/posf.jpg,stim_02/b.jpg,stim_02/a.jpg,1,1,f,5,17,317,2,j,0,1.06632354701,02,01,60.0175371314,PLT_learning_02,N,2014_Feb_10_1850,P07,
stim_fb/ques.jpg,stim_fb/negf.jpg,stim_fb/posf.jpg,stim_02/d.jpg,stim_02/c.jpg,1,2,f,5,18,318,23,j,0,1.21632975745,02,01,60.0175371314,PLT_learning_02,N,2014_Feb_10_1850,P07,
stim_fb/ques.jpg,stim_fb/negf.jpg,stim_fb/posf.jpg,stim_02/d.jpg,stim_02/c.jpg,1,2,f,5,19,319,20,f,1,0.61650180298,02,01,60.0175371314,PLT_learning_02,N,2014_Feb_10_1850,P07,
stim_fb/ques.jpg,stim_fb/negf.jpg,stim_fb/posf.jpg,stim_02/f.jpg,stim_02/e.jpg,1,3,f,5,20,320,40,f,1,1.36625427287,02,01,60.0175371314,PLT_learning_02,N,2014_Feb_10_1850,P07,
stim_fb/ques.jpg,stim_fb/posf.jpg,stim_fb/negf.jpg,stim_02/e.jpg,stim_02/f.jpg,2,3,j,5,21,321,58,j,1,1.09967995669,02,01,60.0175371314,PLT_learning_02,N,2014_Feb_10_1850,P07,
stim_fb/ques.jpg,stim_fb/negf.jpg,stim_fb/posf.jpg,stim_02/a.jpg,stim_02/b.jpg,2,1,j,5,22,322,17,j,1,1.33292935445,02,01,60.0175371314,PLT_learning_02,N,2014_Feb_10_1850,P07,
stim_fb/ques.jpg,stim_fb/negf.jpg,stim_fb/posf.jpg,stim_02/b.jpg,stim_02/a.jpg,1,1,f,5,23,323,5,f,1,1.3162799988,02,01,60.0175371314,PLT_learning_02,N,2014_Feb_10_1850,P07,
stim_fb/ques.jpg,stim_fb/negf.jpg,stim_fb/posf.jpg,stim_02/e.jpg,stim_02/f.jpg,2,3,j,5,24,324,51,j,1,1.21637395829,02,01,60.0175371314,PLT_learning_02,N,2014_Feb_10_1850,P07,
stim_fb/ques.jpg,stim_fb/posf.jpg,stim_fb/negf.jpg,stim_02/f.jpg,stim_02/e.jpg,1,3,f,5,25,325,49,j,0,0.783119098961,02,01,60.0175371314,PLT_learning_02,N,2014_Feb_10_1850,P07,
stim_fb/ques.jpg,stim_fb/posf.jpg,stim_fb/negf.jpg,stim_02/e.jpg,stim_02/f.jpg,2,3,j,5,26,326,59,j,1,1.01640912167,02,01,60.0175371314,PLT_learning_02,N,2014_Feb_10_1850,P07,
stim_fb/ques.jpg,stim_fb/posf.jpg,stim_fb/negf.jpg,stim_02/b.jpg,stim_02/a.jpg,1,1,f,5,27,327,8,f,1,1.1663014481,02,01,60.0175371314,PLT_learning_02,N,2014_Feb_10_1850,P07,
stim_fb/ques.jpg,stim_fb/posf.jpg,stim_fb/negf.jpg,stim_02/c.jpg,stim_02/d.jpg,2,2,j,5,28,328,38,j,1,1.1996577465,02,01,60.0175371314,PLT_learning_02,N,2014_Feb_10_1850,P07,
stim_fb/ques.jpg,stim_fb/negf.jpg,stim_fb/posf.jpg,stim_02/e.jpg,stim_02/f.jpg,2,3,j,5,29,329,53,j,1,1.24962603871,02,01,60.0175371314,PLT_learning_02,N,2014_Feb_10_1850,P07,
stim_fb/ques.jpg,stim_fb/posf.jpg,stim_fb/negf.jpg,stim_02/e.jpg,stim_02/f.jpg,2,3,j,5,30,330,56,f,0,0.949742048992,02,01,60.0175371314,PLT_learning_02,N,2014_Feb_10_1850,P07,
stim_fb/ques.jpg,stim_fb/posf.jpg,stim_fb/negf.jpg,stim_02/a.jpg,stim_02/b.jpg,2,1,j,5,31,331,19,j,1,0.766469144825,02,01,60.0175371314,PLT_learning_02,N,2014_Feb_10_1850,P07,
stim_fb/ques.jpg,stim_fb/posf.jpg,stim_fb/negf.jpg,stim_02/f.jpg,stim_02/e.jpg,1,3,f,5,32,332,47,f,1,0.36662810484,02,01,60.0175371314,PLT_learning_02,N,2014_Feb_10_1850,P07,
stim_fb/ques.jpg,stim_fb/posf.jpg,stim_fb/negf.jpg,stim_02/c.jpg,stim_02/d.jpg,2,2,j,5,33,333,37,j,1,0.716428327394,02,01,60.0175371314,PLT_learning_02,N,2014_Feb_10_1850,P07,
stim_fb/ques.jpg,stim_fb/negf.jpg,stim_fb/posf.jpg,stim_02/f.jpg,stim_02/e.jpg,1,3,f,5,34,334,41,f,1,1.23302270643,02,01,60.0175371314,PLT_learning_02,N,2014_Feb_10_1850,P07,
stim_fb/ques.jpg,stim_fb/negf.jpg,stim_fb/posf.jpg,stim_02/b.jpg,stim_02/a.jpg,1,1,f,5,35,335,4,f,1,0.999712750184,02,01,60.0175371314,PLT_learning_02,N,2014_Feb_10_1850,P07,
stim_fb/ques.jpg,stim_fb/negf.jpg,stim_fb/posf.jpg,stim_02/e.jpg,stim_02/f.jpg,2,3,j,5,36,336,50,j,1,1.08301639975,02,01,60.0175371314,PLT_learning_02,N,2014_Feb_10_1850,P07,
stim_fb/ques.jpg,stim_fb/posf.jpg,stim_fb/negf.jpg,stim_02/e.jpg,stim_02/f.jpg,2,3,j,5,37,337,57,j,1,1.16636059007,02,01,60.0175371314,PLT_learning_02,N,2014_Feb_10_1850,P07,
stim_fb/ques.jpg,stim_fb/negf.jpg,stim_fb/posf.jpg,stim_02/d.jpg,stim_02/c.jpg,1,2,f,5,38,338,25,f,1,1.49953216042,02,01,60.0175371314,PLT_learning_02,N,2014_Feb_10_1850,P07,
stim_fb/ques.jpg,stim_fb/negf.jpg,stim_fb/posf.jpg,stim_02/f.jpg,stim_02/e.jpg,1,3,f,5,39,339,43,f,1,1.43287716876,02,01,60.0175371314,PLT_learning_02,N,2014_Feb_10_1850,P07,
stim_fb/ques.jpg,stim_fb/negf.jpg,stim_fb/posf.jpg,stim_02/c.jpg,stim_02/d.jpg,2,2,j,5,40,340,31,f,0,1.58287812514,02,01,60.0175371314,PLT_learning_02,N,2014_Feb_10_1850,P07,
stim_fb/ques.jpg,stim_fb/negf.jpg,stim_fb/posf.jpg,stim_02/e.jpg,stim_02/f.jpg,2,3,j,5,41,341,54,j,1,1.24962489887,02,01,60.0175371314,PLT_learning_02,N,2014_Feb_10_1850,P07,
stim_fb/ques.jpg,stim_fb/negf.jpg,stim_fb/posf.jpg,stim_02/d.jpg,stim_02/c.jpg,1,2,f,5,42,342,26,None,0,,02,01,60.0175371314,PLT_learning_02,N,2014_Feb_10_1850,P07,
stim_fb/ques.jpg,stim_fb/posf.jpg,stim_fb/negf.jpg,stim_02/a.jpg,stim_02/b.jpg,2,1,j,5,43,343,18,j,1,0.833192144479,02,01,60.0175371314,PLT_learning_02,N,2014_Feb_10_1850,P07,
stim_fb/ques.jpg,stim_fb/negf.jpg,stim_fb/posf.jpg,stim_02/e.jpg,stim_02/f.jpg,2,3,j,5,44,344,52,f,0,0.383228775507,02,01,60.0175371314,PLT_learning_02,N,2014_Feb_10_1850,P07,
stim_fb/ques.jpg,stim_fb/negf.jpg,stim_fb/posf.jpg,stim_02/a.jpg,stim_02/b.jpg,2,1,j,5,45,345,12,j,1,0.799773308672,02,01,60.0175371314,PLT_learning_02,N,2014_Feb_10_1850,P07,
stim_fb/ques.jpg,stim_fb/posf.jpg,stim_fb/negf.jpg,stim_02/c.jpg,stim_02/d.jpg,2,2,j,5,46,346,39,j,1,0.983051385693,02,01,60.0175371314,PLT_learning_02,N,2014_Feb_10_1850,P07,
stim_fb/ques.jpg,stim_fb/negf.jpg,stim_fb/posf.jpg,stim_02/a.jpg,stim_02/b.jpg,2,1,j,5,47,347,14,j,1,0.866439412941,02,01,60.0175371314,PLT_learning_02,N,2014_Feb_10_1850,P07,
stim_fb/ques.jpg,stim_fb/negf.jpg,stim_fb/posf.jpg,stim_02/b.jpg,stim_02/a.jpg,1,1,f,5,48,348,7,f,1,0.716465608036,02,01,60.0175371314,PLT_learning_02,N,2014_Feb_10_1850,P07,
stim_fb/ques.jpg,stim_fb/posf.jpg,stim_fb/negf.jpg,stim_02/d.jpg,stim_02/c.jpg,1,2,f,5,49,349,27,j,0,1.0330231786,02,01,60.0175371314,PLT_learning_02,N,2014_Feb_10_1850,P07,
stim_fb/ques.jpg,stim_fb/posf.jpg,stim_fb/negf.jpg,stim_02/f.jpg,stim_02/e.jpg,1,3,f,5,50,350,46,f,1,1.11637800935,02,01,60.0175371314,PLT_learning_02,N,2014_Feb_10_1850,P07,
stim_fb/ques.jpg,stim_fb/negf.jpg,stim_fb/posf.jpg,stim_02/a.jpg,stim_02/b.jpg,2,1,j,5,51,351,16,j,1,1.29961302236,02,01,60.0175371314,PLT_learning_02,N,2014_Feb_10_1850,P07,
stim_fb/ques.jpg,stim_fb/negf.jpg,stim_fb/posf.jpg,stim_02/c.jpg,stim_02/d.jpg,2,2,j,5,52,352,35,None,0,,02,01,60.0175371314,PLT_learning_02,N,2014_Feb_10_1850,P07,
stim_fb/ques.jpg,stim_fb/negf.jpg,stim_fb/posf.jpg,stim_02/c.jpg,stim_02/d.jpg,2,2,j,5,53,353,34,f,0,0.583254573616,02,01,60.0175371314,PLT_learning_02,N,2014_Feb_10_1850,P07,
stim_fb/ques.jpg,stim_fb/negf.jpg,stim_fb/posf.jpg,stim_02/c.jpg,stim_02/d.jpg,2,2,j,5,54,354,32,j,1,0.733190788109,02,01,60.0175371314,PLT_learning_02,N,2014_Feb_10_1850,P07,
stim_fb/ques.jpg,stim_fb/negf.jpg,stim_fb/posf.jpg,stim_02/b.jpg,stim_02/a.jpg,1,1,f,5,55,355,6,f,1,0.883088395663,02,01,60.0175371314,PLT_learning_02,N,2014_Feb_10_1850,P07,
stim_fb/ques.jpg,stim_fb/negf.jpg,stim_fb/posf.jpg,stim_02/b.jpg,stim_02/a.jpg,1,1,f,5,56,356,1,f,1,0.74983309424,02,01,60.0175371314,PLT_learning_02,N,2014_Feb_10_1850,P07,
stim_fb/ques.jpg,stim_fb/negf.jpg,stim_fb/posf.jpg,stim_02/c.jpg,stim_02/d.jpg,2,2,j,5,57,357,30,f,0,0.43324956918,02,01,60.0175371314,PLT_learning_02,N,2014_Feb_10_1850,P07,
stim_fb/ques.jpg,stim_fb/posf.jpg,stim_fb/negf.jpg,stim_02/d.jpg,stim_02/c.jpg,1,2,f,5,58,358,29,j,0,0.299950349618,02,01,60.0175371314,PLT_learning_02,N,2014_Feb_10_1850,P07,
stim_fb/ques.jpg,stim_fb/negf.jpg,stim_fb/posf.jpg,stim_02/f.jpg,stim_02/e.jpg,1,3,f,5,59,359,44,j,0,0.33326426971,02,01,60.0175371314,PLT_learning_02,N,2014_Feb_10_1850,P07,
