Fb3,Fb2,Fb1,Symbol2,Symbol1,PosCond,Pair,Correct,trials.thisRepN,trials.thisTrialN,trials.thisN,trials.thisIndex,Response.keys,Response.corr,Response.rt,Version,Session Number,frameRate,expName,StimCondition,date,Participant,
stim_fb/ques.jpg,stim_fb/negf.jpg,stim_fb/posf.jpg,stim_02/e.jpg,stim_02/f.jpg,2,3,j,0,0,0,54,f,0,1.16634469837,02,01,60.0549023854,PLT_learning_02,N,2014_Feb_13_1309,P08,
stim_fb/ques.jpg,stim_fb/negf.jpg,stim_fb/posf.jpg,stim_02/c.jpg,stim_02/d.jpg,2,2,j,0,1,1,34,j,1,1.51618591971,02,01,60.0549023854,PLT_learning_02,N,2014_Feb_13_1309,P08,
stim_fb/ques.jpg,stim_fb/negf.jpg,stim_fb/posf.jpg,stim_02/a.jpg,stim_02/b.jpg,2,1,j,0,2,2,10,j,1,1.39957198377,02,01,60.0549023854,PLT_learning_02,N,2014_Feb_13_1309,P08,
stim_fb/ques.jpg,stim_fb/posf.jpg,stim_fb/negf.jpg,stim_02/a.jpg,stim_02/b.jpg,2,1,j,0,3,3,18,j,1,1.68281949903,02,01,60.0549023854,PLT_learning_02,N,2014_Feb_13_1309,P08,
stim_fb/ques.jpg,stim_fb/posf.jpg,stim_fb/negf.jpg,stim_02/d.jpg,stim_02/c.jpg,1,2,f,0,4,4,29,f,1,1.14971872347,02,01,60.0549023854,PLT_learning_02,N,2014_Feb_13_1309,P08,
stim_fb/ques.jpg,stim_fb/posf.jpg,stim_fb/negf.jpg,stim_02/f.jpg,stim_02/e.jpg,1,3,f,0,5,5,46,None,0,,02,01,60.0549023854,PLT_learning_02,N,2014_Feb_13_1309,P08,
stim_fb/ques.jpg,stim_fb/negf.jpg,stim_fb/posf.jpg,stim_02/a.jpg,stim_02/b.jpg,2,1,j,0,6,6,17,j,1,0.599851117469,02,01,60.0549023854,PLT_learning_02,N,2014_Feb_13_1309,P08,
stim_fb/ques.jpg,stim_fb/negf.jpg,stim_fb/posf.jpg,stim_02/f.jpg,stim_02/e.jpg,1,3,f,0,7,7,41,j,0,1.16633477367,02,01,60.0549023854,PLT_learning_02,N,2014_Feb_13_1309,P08,
stim_fb/ques.jpg,stim_fb/negf.jpg,stim_fb/posf.jpg,stim_02/d.jpg,stim_02/c.jpg,1,2,f,0,8,8,22,f,1,1.4329063597,02,01,60.0549023854,PLT_learning_02,N,2014_Feb_13_1309,P08,
stim_fb/ques.jpg,stim_fb/negf.jpg,stim_fb/posf.jpg,stim_02/a.jpg,stim_02/b.jpg,2,1,j,0,9,9,15,j,1,1.23295930046,02,01,60.0549023854,PLT_learning_02,N,2014_Feb_13_1309,P08,
stim_fb/ques.jpg,stim_fb/posf.jpg,stim_fb/negf.jpg,stim_02/e.jpg,stim_02/f.jpg,2,3,j,0,10,10,58,f,0,1.11634106382,02,01,60.0549023854,PLT_learning_02,N,2014_Feb_13_1309,P08,
stim_fb/ques.jpg,stim_fb/posf.jpg,stim_fb/negf.jpg,stim_02/f.jpg,stim_02/e.jpg,1,3,f,0,11,11,47,j,0,0.73313653455,02,01,60.0549023854,PLT_learning_02,N,2014_Feb_13_1309,P08,
stim_fb/ques.jpg,stim_fb/negf.jpg,stim_fb/posf.jpg,stim_02/c.jpg,stim_02/d.jpg,2,2,j,0,12,12,36,f,0,1.06639209332,02,01,60.0549023854,PLT_learning_02,N,2014_Feb_13_1309,P08,
stim_fb/ques.jpg,stim_fb/posf.jpg,stim_fb/negf.jpg,stim_02/c.jpg,stim_02/d.jpg,2,2,j,0,13,13,38,f,0,1.13300265035,02,01,60.0549023854,PLT_learning_02,N,2014_Feb_13_1309,P08,
stim_fb/ques.jpg,stim_fb/negf.jpg,stim_fb/posf.jpg,stim_02/e.jpg,stim_02/f.jpg,2,3,j,0,14,14,55,f,0,1.21630527175,02,01,60.0549023854,PLT_learning_02,N,2014_Feb_13_1309,P08,
stim_fb/ques.jpg,stim_fb/posf.jpg,stim_fb/negf.jpg,stim_02/e.jpg,stim_02/f.jpg,2,3,j,0,15,15,59,f,0,1.14966374364,02,01,60.0549023854,PLT_learning_02,N,2014_Feb_13_1309,P08,
stim_fb/ques.jpg,stim_fb/negf.jpg,stim_fb/posf.jpg,stim_02/a.jpg,stim_02/b.jpg,2,1,j,0,16,16,11,j,1,1.41623981684,02,01,60.0549023854,PLT_learning_02,N,2014_Feb_13_1309,P08,
stim_fb/ques.jpg,stim_fb/negf.jpg,stim_fb/posf.jpg,stim_02/d.jpg,stim_02/c.jpg,1,2,f,0,17,17,26,j,0,1.14971330699,02,01,60.0549023854,PLT_learning_02,N,2014_Feb_13_1309,P08,
stim_fb/ques.jpg,stim_fb/negf.jpg,stim_fb/posf.jpg,stim_02/e.jpg,stim_02/f.jpg,2,3,j,0,18,18,50,f,0,1.21624369349,02,01,60.0549023854,PLT_learning_02,N,2014_Feb_13_1309,P08,
stim_fb/ques.jpg,stim_fb/negf.jpg,stim_fb/posf.jpg,stim_02/b.jpg,stim_02/a.jpg,1,1,f,0,19,19,4,f,1,0.916406371357,02,01,60.0549023854,PLT_learning_02,N,2014_Feb_13_1309,P08,
stim_fb/ques.jpg,stim_fb/negf.jpg,stim_fb/posf.jpg,stim_02/b.jpg,stim_02/a.jpg,1,1,f,0,20,20,6,j,0,1.04971502727,02,01,60.0549023854,PLT_learning_02,N,2014_Feb_13_1309,P08,
stim_fb/ques.jpg,stim_fb/negf.jpg,stim_fb/posf.jpg,stim_02/a.jpg,stim_02/b.jpg,2,1,j,0,21,21,12,j,1,0.949710248381,02,01,60.0549023854,PLT_learning_02,N,2014_Feb_13_1309,P08,
stim_fb/ques.jpg,stim_fb/negf.jpg,stim_fb/posf.jpg,stim_02/d.jpg,stim_02/c.jpg,1,2,f,0,22,22,21,j,0,1.46626546919,02,01,60.0549023854,PLT_learning_02,N,2014_Feb_13_1309,P08,
stim_fb/ques.jpg,stim_fb/posf.jpg,stim_fb/negf.jpg,stim_02/c.jpg,stim_02/d.jpg,2,2,j,0,23,23,37,f,0,1.49956382748,02,01,60.0549023854,PLT_learning_02,N,2014_Feb_13_1309,P08,
stim_fb/ques.jpg,stim_fb/negf.jpg,stim_fb/posf.jpg,stim_02/f.jpg,stim_02/e.jpg,1,3,f,0,24,24,40,j,0,1.23297022665,02,01,60.0549023854,PLT_learning_02,N,2014_Feb_13_1309,P08,
stim_fb/ques.jpg,stim_fb/negf.jpg,stim_fb/posf.jpg,stim_02/a.jpg,stim_02/b.jpg,2,1,j,0,25,25,14,j,1,0.916536688684,02,01,60.0549023854,PLT_learning_02,N,2014_Feb_13_1309,P08,
stim_fb/ques.jpg,stim_fb/negf.jpg,stim_fb/posf.jpg,stim_02/a.jpg,stim_02/b.jpg,2,1,j,0,26,26,16,j,1,0.799822519295,02,01,60.0549023854,PLT_learning_02,N,2014_Feb_13_1309,P08,
stim_fb/ques.jpg,stim_fb/negf.jpg,stim_fb/posf.jpg,stim_02/c.jpg,stim_02/d.jpg,2,2,j,0,27,27,32,f,0,1.21631171679,02,01,60.0549023854,PLT_learning_02,N,2014_Feb_13_1309,P08,
stim_fb/ques.jpg,stim_fb/negf.jpg,stim_fb/posf.jpg,stim_02/c.jpg,stim_02/d.jpg,2,2,j,0,28,28,33,f,0,1.41626934433,02,01,60.0549023854,PLT_learning_02,N,2014_Feb_13_1309,P08,
stim_fb/ques.jpg,stim_fb/negf.jpg,stim_fb/posf.jpg,stim_02/e.jpg,stim_02/f.jpg,2,3,j,0,29,29,51,f,0,1.41625070394,02,01,60.0549023854,PLT_learning_02,N,2014_Feb_13_1309,P08,
stim_fb/ques.jpg,stim_fb/posf.jpg,stim_fb/negf.jpg,stim_02/b.jpg,stim_02/a.jpg,1,1,f,0,30,30,9,f,1,1.0830122367,02,01,60.0549023854,PLT_learning_02,N,2014_Feb_13_1309,P08,
stim_fb/ques.jpg,stim_fb/negf.jpg,stim_fb/posf.jpg,stim_02/b.jpg,stim_02/a.jpg,1,1,f,0,31,31,5,f,1,1.58286213614,02,01,60.0549023854,PLT_learning_02,N,2014_Feb_13_1309,P08,
stim_fb/ques.jpg,stim_fb/negf.jpg,stim_fb/posf.jpg,stim_02/f.jpg,stim_02/e.jpg,1,3,f,0,32,32,42,None,0,,02,01,60.0549023854,PLT_learning_02,N,2014_Feb_13_1309,P08,
stim_fb/ques.jpg,stim_fb/negf.jpg,stim_fb/posf.jpg,stim_02/d.jpg,stim_02/c.jpg,1,2,f,0,33,33,24,j,0,0.866402015015,02,01,60.0549023854,PLT_learning_02,N,2014_Feb_13_1309,P08,
stim_fb/ques.jpg,stim_fb/negf.jpg,stim_fb/posf.jpg,stim_02/d.jpg,stim_02/c.jpg,1,2,f,0,34,34,25,j,0,1.03304050255,02,01,60.0549023854,PLT_learning_02,N,2014_Feb_13_1309,P08,
stim_fb/ques.jpg,stim_fb/posf.jpg,stim_fb/negf.jpg,stim_02/d.jpg,stim_02/c.jpg,1,2,f,0,35,35,27,f,1,0.649835107123,02,01,60.0549023854,PLT_learning_02,N,2014_Feb_13_1309,P08,
stim_fb/ques.jpg,stim_fb/negf.jpg,stim_fb/posf.jpg,stim_02/e.jpg,stim_02/f.jpg,2,3,j,0,36,36,53,f,0,0.933072622489,02,01,60.0549023854,PLT_learning_02,N,2014_Feb_13_1309,P08,
stim_fb/ques.jpg,stim_fb/posf.jpg,stim_fb/negf.jpg,stim_02/e.jpg,stim_02/f.jpg,2,3,j,0,37,37,56,f,0,1.44958508588,02,01,60.0549023854,PLT_learning_02,N,2014_Feb_13_1309,P08,
stim_fb/ques.jpg,stim_fb/posf.jpg,stim_fb/negf.jpg,stim_02/d.jpg,stim_02/c.jpg,1,2,f,0,38,38,28,f,1,1.19968363364,02,01,60.0549023854,PLT_learning_02,N,2014_Feb_13_1309,P08,
stim_fb/ques.jpg,stim_fb/negf.jpg,stim_fb/posf.jpg,stim_02/b.jpg,stim_02/a.jpg,1,1,f,0,39,39,7,f,1,1.14967153303,02,01,60.0549023854,PLT_learning_02,N,2014_Feb_13_1309,P08,
stim_fb/ques.jpg,stim_fb/negf.jpg,stim_fb/posf.jpg,stim_02/b.jpg,stim_02/a.jpg,1,1,f,0,40,40,3,j,0,1.1663204821,02,01,60.0549023854,PLT_learning_02,N,2014_Feb_13_1309,P08,
stim_fb/ques.jpg,stim_fb/negf.jpg,stim_fb/posf.jpg,stim_02/f.jpg,stim_02/e.jpg,1,3,f,0,41,41,43,None,0,,02,01,60.0549023854,PLT_learning_02,N,2014_Feb_13_1309,P08,
stim_fb/ques.jpg,stim_fb/negf.jpg,stim_fb/posf.jpg,stim_02/b.jpg,stim_02/a.jpg,1,1,f,0,42,42,1,f,1,0.766476221697,02,01,60.0549023854,PLT_learning_02,N,2014_Feb_13_1309,P08,
stim_fb/ques.jpg,stim_fb/posf.jpg,stim_fb/negf.jpg,stim_02/e.jpg,stim_02/f.jpg,2,3,j,0,43,43,57,j,1,0.949720506912,02,01,60.0549023854,PLT_learning_02,N,2014_Feb_13_1309,P08,
stim_fb/ques.jpg,stim_fb/negf.jpg,stim_fb/posf.jpg,stim_02/f.jpg,stim_02/e.jpg,1,3,f,0,44,44,44,j,0,1.44960766307,02,01,60.0549023854,PLT_learning_02,N,2014_Feb_13_1309,P08,
stim_fb/ques.jpg,stim_fb/negf.jpg,stim_fb/posf.jpg,stim_02/d.jpg,stim_02/c.jpg,1,2,f,0,45,45,23,j,0,1.24961374421,02,01,60.0549023854,PLT_learning_02,N,2014_Feb_13_1309,P08,
stim_fb/ques.jpg,stim_fb/negf.jpg,stim_fb/posf.jpg,stim_02/b.jpg,stim_02/a.jpg,1,1,f,0,46,46,0,f,1,1.08302033285,02,01,60.0549023854,PLT_learning_02,N,2014_Feb_13_1309,P08,
stim_fb/ques.jpg,stim_fb/negf.jpg,stim_fb/posf.jpg,stim_02/a.jpg,stim_02/b.jpg,2,1,j,0,47,47,13,j,1,1.11635590275,02,01,60.0549023854,PLT_learning_02,N,2014_Feb_13_1309,P08,
stim_fb/ques.jpg,stim_fb/negf.jpg,stim_fb/posf.jpg,stim_02/e.jpg,stim_02/f.jpg,2,3,j,0,48,48,52,f,0,0.899743260038,02,01,60.0549023854,PLT_learning_02,N,2014_Feb_13_1309,P08,
stim_fb/ques.jpg,stim_fb/negf.jpg,stim_fb/posf.jpg,stim_02/c.jpg,stim_02/d.jpg,2,2,j,0,49,49,30,j,1,1.48289951918,02,01,60.0549023854,PLT_learning_02,N,2014_Feb_13_1309,P08,
stim_fb/ques.jpg,stim_fb/negf.jpg,stim_fb/posf.jpg,stim_02/d.jpg,stim_02/c.jpg,1,2,f,0,50,50,20,f,1,0.799787446006,02,01,60.0549023854,PLT_learning_02,N,2014_Feb_13_1309,P08,
stim_fb/ques.jpg,stim_fb/posf.jpg,stim_fb/negf.jpg,stim_02/b.jpg,stim_02/a.jpg,1,1,f,0,51,51,8,f,1,0.983052654293,02,01,60.0549023854,PLT_learning_02,N,2014_Feb_13_1309,P08,
stim_fb/ques.jpg,stim_fb/negf.jpg,stim_fb/posf.jpg,stim_02/c.jpg,stim_02/d.jpg,2,2,j,0,52,52,35,j,1,0.966387287361,02,01,60.0549023854,PLT_learning_02,N,2014_Feb_13_1309,P08,
stim_fb/ques.jpg,stim_fb/negf.jpg,stim_fb/posf.jpg,stim_02/c.jpg,stim_02/d.jpg,2,2,j,0,53,53,31,j,1,1.53286337673,02,01,60.0549023854,PLT_learning_02,N,2014_Feb_13_1309,P08,
stim_fb/ques.jpg,stim_fb/posf.jpg,stim_fb/negf.jpg,stim_02/c.jpg,stim_02/d.jpg,2,2,j,0,54,54,39,j,1,1.09969172077,02,01,60.0549023854,PLT_learning_02,N,2014_Feb_13_1309,P08,
stim_fb/ques.jpg,stim_fb/posf.jpg,stim_fb/negf.jpg,stim_02/a.jpg,stim_02/b.jpg,2,1,j,0,55,55,19,j,1,1.31628477874,02,01,60.0549023854,PLT_learning_02,N,2014_Feb_13_1309,P08,
stim_fb/ques.jpg,stim_fb/negf.jpg,stim_fb/posf.jpg,stim_02/f.jpg,stim_02/e.jpg,1,3,f,0,56,56,45,None,0,,02,01,60.0549023854,PLT_learning_02,N,2014_Feb_13_1309,P08,
stim_fb/ques.jpg,stim_fb/posf.jpg,stim_fb/negf.jpg,stim_02/f.jpg,stim_02/e.jpg,1,3,f,0,57,57,48,j,0,0.766461894039,02,01,60.0549023854,PLT_learning_02,N,2014_Feb_13_1309,P08,
stim_fb/ques.jpg,stim_fb/posf.jpg,stim_fb/negf.jpg,stim_02/f.jpg,stim_02/e.jpg,1,3,f,0,58,58,49,j,0,1.04971832047,02,01,60.0549023854,PLT_learning_02,N,2014_Feb_13_1309,P08,
stim_fb/ques.jpg,stim_fb/negf.jpg,stim_fb/posf.jpg,stim_02/b.jpg,stim_02/a.jpg,1,1,f,0,59,59,2,f,1,1.21635618546,02,01,60.0549023854,PLT_learning_02,N,2014_Feb_13_1309,P08,
stim_fb/ques.jpg,stim_fb/negf.jpg,stim_fb/posf.jpg,stim_02/e.jpg,stim_02/f.jpg,2,3,j,1,0,60,55,j,1,1.51616430491,02,01,60.0549023854,PLT_learning_02,N,2014_Feb_13_1309,P08,
stim_fb/ques.jpg,stim_fb/negf.jpg,stim_fb/posf.jpg,stim_02/f.jpg,stim_02/e.jpg,1,3,f,1,1,61,41,f,1,1.26632581136,02,01,60.0549023854,PLT_learning_02,N,2014_Feb_13_1309,P08,
stim_fb/ques.jpg,stim_fb/negf.jpg,stim_fb/posf.jpg,stim_02/b.jpg,stim_02/a.jpg,1,1,f,1,2,62,5,f,1,1.38291717011,02,01,60.0549023854,PLT_learning_02,N,2014_Feb_13_1309,P08,
stim_fb/ques.jpg,stim_fb/negf.jpg,stim_fb/posf.jpg,stim_02/e.jpg,stim_02/f.jpg,2,3,j,1,3,63,51,j,1,1.11635332534,02,01,60.0549023854,PLT_learning_02,N,2014_Feb_13_1309,P08,
stim_fb/ques.jpg,stim_fb/negf.jpg,stim_fb/posf.jpg,stim_02/f.jpg,stim_02/e.jpg,1,3,f,1,4,64,40,f,1,1.33294426604,02,01,60.0549023854,PLT_learning_02,N,2014_Feb_13_1309,P08,
stim_fb/ques.jpg,stim_fb/negf.jpg,stim_fb/posf.jpg,stim_02/a.jpg,stim_02/b.jpg,2,1,j,1,5,65,16,j,1,1.1829943963,02,01,60.0549023854,PLT_learning_02,N,2014_Feb_13_1309,P08,
stim_fb/ques.jpg,stim_fb/negf.jpg,stim_fb/posf.jpg,stim_02/c.jpg,stim_02/d.jpg,2,2,j,1,6,66,32,j,1,1.23298288215,02,01,60.0549023854,PLT_learning_02,N,2014_Feb_13_1309,P08,
stim_fb/ques.jpg,stim_fb/negf.jpg,stim_fb/posf.jpg,stim_02/a.jpg,stim_02/b.jpg,2,1,j,1,7,67,11,j,1,1.31627704951,02,01,60.0549023854,PLT_learning_02,N,2014_Feb_13_1309,P08,
stim_fb/ques.jpg,stim_fb/negf.jpg,stim_fb/posf.jpg,stim_02/b.jpg,stim_02/a.jpg,1,1,f,1,8,68,4,f,1,1.13303089063,02,01,60.0549023854,PLT_learning_02,N,2014_Feb_13_1309,P08,
stim_fb/ques.jpg,stim_fb/negf.jpg,stim_fb/posf.jpg,stim_02/b.jpg,stim_02/a.jpg,1,1,f,1,9,69,3,f,1,0.983047168641,02,01,60.0549023854,PLT_learning_02,N,2014_Feb_13_1309,P08,
stim_fb/ques.jpg,stim_fb/negf.jpg,stim_fb/posf.jpg,stim_02/c.jpg,stim_02/d.jpg,2,2,j,1,10,70,36,j,1,1.01637559576,02,01,60.0549023854,PLT_learning_02,N,2014_Feb_13_1309,P08,
stim_fb/ques.jpg,stim_fb/posf.jpg,stim_fb/negf.jpg,stim_02/a.jpg,stim_02/b.jpg,2,1,j,1,11,71,18,None,0,,02,01,60.0549023854,PLT_learning_02,N,2014_Feb_13_1309,P08,
stim_fb/ques.jpg,stim_fb/posf.jpg,stim_fb/negf.jpg,stim_02/f.jpg,stim_02/e.jpg,1,3,f,1,12,72,49,f,1,1.19963609132,02,01,60.0549023854,PLT_learning_02,N,2014_Feb_13_1309,P08,
stim_fb/ques.jpg,stim_fb/negf.jpg,stim_fb/posf.jpg,stim_02/e.jpg,stim_02/f.jpg,2,3,j,1,13,73,52,j,1,1.14967362624,02,01,60.0549023854,PLT_learning_02,N,2014_Feb_13_1309,P08,
stim_fb/ques.jpg,stim_fb/negf.jpg,stim_fb/posf.jpg,stim_02/b.jpg,stim_02/a.jpg,1,1,f,1,14,74,1,f,1,0.899748995312,02,01,60.0549023854,PLT_learning_02,N,2014_Feb_13_1309,P08,
stim_fb/ques.jpg,stim_fb/negf.jpg,stim_fb/posf.jpg,stim_02/a.jpg,stim_02/b.jpg,2,1,j,1,15,75,12,j,1,1.13300282177,02,01,60.0549023854,PLT_learning_02,N,2014_Feb_13_1309,P08,
stim_fb/ques.jpg,stim_fb/posf.jpg,stim_fb/negf.jpg,stim_02/d.jpg,stim_02/c.jpg,1,2,f,1,16,76,27,f,1,1.06633182032,02,01,60.0549023854,PLT_learning_02,N,2014_Feb_13_1309,P08,
stim_fb/ques.jpg,stim_fb/posf.jpg,stim_fb/negf.jpg,stim_02/d.jpg,stim_02/c.jpg,1,2,f,1,17,77,28,j,0,1.01637942128,02,01,60.0549023854,PLT_learning_02,N,2014_Feb_13_1309,P08,
stim_fb/ques.jpg,stim_fb/negf.jpg,stim_fb/posf.jpg,stim_02/f.jpg,stim_02/e.jpg,1,3,f,1,18,78,42,f,1,1.29961428706,02,01,60.0549023854,PLT_learning_02,N,2014_Feb_13_1309,P08,
stim_fb/ques.jpg,stim_fb/negf.jpg,stim_fb/posf.jpg,stim_02/f.jpg,stim_02/e.jpg,1,3,f,1,19,79,44,f,1,1.03298668662,02,01,60.0549023854,PLT_learning_02,N,2014_Feb_13_1309,P08,
stim_fb/ques.jpg,stim_fb/negf.jpg,stim_fb/posf.jpg,stim_02/d.jpg,stim_02/c.jpg,1,2,f,1,20,80,24,j,0,1.6828191682,02,01,60.0549023854,PLT_learning_02,N,2014_Feb_13_1309,P08,
stim_fb/ques.jpg,stim_fb/negf.jpg,stim_fb/posf.jpg,stim_02/a.jpg,stim_02/b.jpg,2,1,j,1,21,81,17,f,0,1.28294448108,02,01,60.0549023854,PLT_learning_02,N,2014_Feb_13_1309,P08,
stim_fb/ques.jpg,stim_fb/negf.jpg,stim_fb/posf.jpg,stim_02/b.jpg,stim_02/a.jpg,1,1,f,1,22,82,0,f,1,1.19963349586,02,01,60.0549023854,PLT_learning_02,N,2014_Feb_13_1309,P08,
stim_fb/ques.jpg,stim_fb/negf.jpg,stim_fb/posf.jpg,stim_02/c.jpg,stim_02/d.jpg,2,2,j,1,23,83,30,j,1,1.23296700564,02,01,60.0549023854,PLT_learning_02,N,2014_Feb_13_1309,P08,
stim_fb/ques.jpg,stim_fb/negf.jpg,stim_fb/posf.jpg,stim_02/c.jpg,stim_02/d.jpg,2,2,j,1,24,84,31,j,1,0.766480753976,02,01,60.0549023854,PLT_learning_02,N,2014_Feb_13_1309,P08,
stim_fb/ques.jpg,stim_fb/posf.jpg,stim_fb/negf.jpg,stim_02/a.jpg,stim_02/b.jpg,2,1,j,1,25,85,19,j,1,0.983038395808,02,01,60.0549023854,PLT_learning_02,N,2014_Feb_13_1309,P08,
stim_fb/ques.jpg,stim_fb/negf.jpg,stim_fb/posf.jpg,stim_02/f.jpg,stim_02/e.jpg,1,3,f,1,26,86,43,f,1,1.16629837408,02,01,60.0549023854,PLT_learning_02,N,2014_Feb_13_1309,P08,
stim_fb/ques.jpg,stim_fb/posf.jpg,stim_fb/negf.jpg,stim_02/c.jpg,stim_02/d.jpg,2,2,j,1,27,87,38,j,1,0.833092005729,02,01,60.0549023854,PLT_learning_02,N,2014_Feb_13_1309,P08,
stim_fb/ques.jpg,stim_fb/negf.jpg,stim_fb/posf.jpg,stim_02/b.jpg,stim_02/a.jpg,1,1,f,1,28,88,2,f,1,0.649806379627,02,01,60.0549023854,PLT_learning_02,N,2014_Feb_13_1309,P08,
stim_fb/ques.jpg,stim_fb/negf.jpg,stim_fb/posf.jpg,stim_02/d.jpg,stim_02/c.jpg,1,2,f,1,29,89,23,f,1,0.833149199069,02,01,60.0549023854,PLT_learning_02,N,2014_Feb_13_1309,P08,
stim_fb/ques.jpg,stim_fb/posf.jpg,stim_fb/negf.jpg,stim_02/f.jpg,stim_02/e.jpg,1,3,f,1,30,90,46,f,1,1.03303358834,02,01,60.0549023854,PLT_learning_02,N,2014_Feb_13_1309,P08,
stim_fb/ques.jpg,stim_fb/negf.jpg,stim_fb/posf.jpg,stim_02/c.jpg,stim_02/d.jpg,2,2,j,1,31,91,33,j,1,0.933081503592,02,01,60.0549023854,PLT_learning_02,N,2014_Feb_13_1309,P08,
stim_fb/ques.jpg,stim_fb/posf.jpg,stim_fb/negf.jpg,stim_02/e.jpg,stim_02/f.jpg,2,3,j,1,32,92,58,j,1,0.99973141957,02,01,60.0549023854,PLT_learning_02,N,2014_Feb_13_1309,P08,
stim_fb/ques.jpg,stim_fb/negf.jpg,stim_fb/posf.jpg,stim_02/a.jpg,stim_02/b.jpg,2,1,j,1,33,93,15,j,1,0.999719885866,02,01,60.0549023854,PLT_learning_02,N,2014_Feb_13_1309,P08,
stim_fb/ques.jpg,stim_fb/posf.jpg,stim_fb/negf.jpg,stim_02/e.jpg,stim_02/f.jpg,2,3,j,1,34,94,59,j,1,1.13306421055,02,01,60.0549023854,PLT_learning_02,N,2014_Feb_13_1309,P08,
stim_fb/ques.jpg,stim_fb/posf.jpg,stim_fb/negf.jpg,stim_02/f.jpg,stim_02/e.jpg,1,3,f,1,35,95,48,j,0,1.0996949478,02,01,60.0549023854,PLT_learning_02,N,2014_Feb_13_1309,P08,
stim_fb/ques.jpg,stim_fb/posf.jpg,stim_fb/negf.jpg,stim_02/d.jpg,stim_02/c.jpg,1,2,f,1,36,96,29,f,1,0.966406339778,02,01,60.0549023854,PLT_learning_02,N,2014_Feb_13_1309,P08,
stim_fb/ques.jpg,stim_fb/negf.jpg,stim_fb/posf.jpg,stim_02/d.jpg,stim_02/c.jpg,1,2,f,1,37,97,25,j,0,0.966417780251,02,01,60.0549023854,PLT_learning_02,N,2014_Feb_13_1309,P08,
stim_fb/ques.jpg,stim_fb/negf.jpg,stim_fb/posf.jpg,stim_02/a.jpg,stim_02/b.jpg,2,1,j,1,38,98,14,j,1,0.916404043563,02,01,60.0549023854,PLT_learning_02,N,2014_Feb_13_1309,P08,
stim_fb/ques.jpg,stim_fb/negf.jpg,stim_fb/posf.jpg,stim_02/b.jpg,stim_02/a.jpg,1,1,f,1,39,99,6,f,1,1.24963864618,02,01,60.0549023854,PLT_learning_02,N,2014_Feb_13_1309,P08,
stim_fb/ques.jpg,stim_fb/negf.jpg,stim_fb/posf.jpg,stim_02/a.jpg,stim_02/b.jpg,2,1,j,1,40,100,13,j,1,0.916426774134,02,01,60.0549023854,PLT_learning_02,N,2014_Feb_13_1309,P08,
stim_fb/ques.jpg,stim_fb/posf.jpg,stim_fb/negf.jpg,stim_02/c.jpg,stim_02/d.jpg,2,2,j,1,41,101,39,j,1,0.849775002538,02,01,60.0549023854,PLT_learning_02,N,2014_Feb_13_1309,P08,
stim_fb/ques.jpg,stim_fb/negf.jpg,stim_fb/posf.jpg,stim_02/c.jpg,stim_02/d.jpg,2,2,j,1,42,102,35,j,1,1.14967116611,02,01,60.0549023854,PLT_learning_02,N,2014_Feb_13_1309,P08,
stim_fb/ques.jpg,stim_fb/negf.jpg,stim_fb/posf.jpg,stim_02/d.jpg,stim_02/c.jpg,1,2,f,1,43,103,21,j,0,1.09967408187,02,01,60.0549023854,PLT_learning_02,N,2014_Feb_13_1309,P08,
stim_fb/ques.jpg,stim_fb/negf.jpg,stim_fb/posf.jpg,stim_02/d.jpg,stim_02/c.jpg,1,2,f,1,44,104,20,j,0,1.34961176528,02,01,60.0549023854,PLT_learning_02,N,2014_Feb_13_1309,P08,
stim_fb/ques.jpg,stim_fb/negf.jpg,stim_fb/posf.jpg,stim_02/b.jpg,stim_02/a.jpg,1,1,f,1,45,105,7,f,1,0.733146678797,02,01,60.0549023854,PLT_learning_02,N,2014_Feb_13_1309,P08,
stim_fb/ques.jpg,stim_fb/negf.jpg,stim_fb/posf.jpg,stim_02/e.jpg,stim_02/f.jpg,2,3,j,1,46,106,53,f,0,0.999717302436,02,01,60.0549023854,PLT_learning_02,N,2014_Feb_13_1309,P08,
stim_fb/ques.jpg,stim_fb/posf.jpg,stim_fb/negf.jpg,stim_02/b.jpg,stim_02/a.jpg,1,1,f,1,47,107,8,f,1,1.21626427371,02,01,60.0549023854,PLT_learning_02,N,2014_Feb_13_1309,P08,
stim_fb/ques.jpg,stim_fb/posf.jpg,stim_fb/negf.jpg,stim_02/e.jpg,stim_02/f.jpg,2,3,j,1,48,108,57,j,1,1.04969546659,02,01,60.0549023854,PLT_learning_02,N,2014_Feb_13_1309,P08,
stim_fb/ques.jpg,stim_fb/negf.jpg,stim_fb/posf.jpg,stim_02/d.jpg,stim_02/c.jpg,1,2,f,1,49,109,22,j,0,1.03300438867,02,01,60.0549023854,PLT_learning_02,N,2014_Feb_13_1309,P08,
stim_fb/ques.jpg,stim_fb/negf.jpg,stim_fb/posf.jpg,stim_02/e.jpg,stim_02/f.jpg,2,3,j,1,50,110,50,f,0,0.933110011541,02,01,60.0549023854,PLT_learning_02,N,2014_Feb_13_1309,P08,
stim_fb/ques.jpg,stim_fb/negf.jpg,stim_fb/posf.jpg,stim_02/c.jpg,stim_02/d.jpg,2,2,j,1,51,111,34,j,1,0.916404554836,02,01,60.0549023854,PLT_learning_02,N,2014_Feb_13_1309,P08,
stim_fb/ques.jpg,stim_fb/negf.jpg,stim_fb/posf.jpg,stim_02/e.jpg,stim_02/f.jpg,2,3,j,1,52,112,54,j,1,1.54952335726,02,01,60.0549023854,PLT_learning_02,N,2014_Feb_13_1309,P08,
stim_fb/ques.jpg,stim_fb/posf.jpg,stim_fb/negf.jpg,stim_02/b.jpg,stim_02/a.jpg,1,1,f,1,53,113,9,f,1,1.06623723191,02,01,60.0549023854,PLT_learning_02,N,2014_Feb_13_1309,P08,
stim_fb/ques.jpg,stim_fb/negf.jpg,stim_fb/posf.jpg,stim_02/d.jpg,stim_02/c.jpg,1,2,f,1,54,114,26,j,0,1.49954503972,02,01,60.0549023854,PLT_learning_02,N,2014_Feb_13_1309,P08,
stim_fb/ques.jpg,stim_fb/posf.jpg,stim_fb/negf.jpg,stim_02/c.jpg,stim_02/d.jpg,2,2,j,1,55,115,37,j,1,1.11635488322,02,01,60.0549023854,PLT_learning_02,N,2014_Feb_13_1309,P08,
stim_fb/ques.jpg,stim_fb/negf.jpg,stim_fb/posf.jpg,stim_02/f.jpg,stim_02/e.jpg,1,3,f,1,56,116,45,j,0,0.849794503069,02,01,60.0549023854,PLT_learning_02,N,2014_Feb_13_1309,P08,
stim_fb/ques.jpg,stim_fb/posf.jpg,stim_fb/negf.jpg,stim_02/e.jpg,stim_02/f.jpg,2,3,j,1,57,117,56,j,1,0.833119067078,02,01,60.0549023854,PLT_learning_02,N,2014_Feb_13_1309,P08,
stim_fb/ques.jpg,stim_fb/negf.jpg,stim_fb/posf.jpg,stim_02/a.jpg,stim_02/b.jpg,2,1,j,1,58,118,10,j,1,0.966444056646,02,01,60.0549023854,PLT_learning_02,N,2014_Feb_13_1309,P08,
stim_fb/ques.jpg,stim_fb/posf.jpg,stim_fb/negf.jpg,stim_02/f.jpg,stim_02/e.jpg,1,3,f,1,59,119,47,f,1,1.19965951361,02,01,60.0549023854,PLT_learning_02,N,2014_Feb_13_1309,P08,
stim_fb/ques.jpg,stim_fb/negf.jpg,stim_fb/posf.jpg,stim_02/b.jpg,stim_02/a.jpg,1,1,f,2,0,120,4,f,1,0.883070669128,02,01,60.0549023854,PLT_learning_02,N,2014_Feb_13_1309,P08,
stim_fb/ques.jpg,stim_fb/negf.jpg,stim_fb/posf.jpg,stim_02/f.jpg,stim_02/e.jpg,1,3,f,2,1,121,40,f,1,1.03305142273,02,01,60.0549023854,PLT_learning_02,N,2014_Feb_13_1309,P08,
stim_fb/ques.jpg,stim_fb/posf.jpg,stim_fb/negf.jpg,stim_02/a.jpg,stim_02/b.jpg,2,1,j,2,2,122,18,j,1,0.833105112348,02,01,60.0549023854,PLT_learning_02,N,2014_Feb_13_1309,P08,
stim_fb/ques.jpg,stim_fb/negf.jpg,stim_fb/posf.jpg,stim_02/c.jpg,stim_02/d.jpg,2,2,j,2,3,123,34,j,1,0.999724129427,02,01,60.0549023854,PLT_learning_02,N,2014_Feb_13_1309,P08,
stim_fb/ques.jpg,stim_fb/posf.jpg,stim_fb/negf.jpg,stim_02/a.jpg,stim_02/b.jpg,2,1,j,2,4,124,19,j,1,1.2829586343,02,01,60.0549023854,PLT_learning_02,N,2014_Feb_13_1309,P08,
stim_fb/ques.jpg,stim_fb/posf.jpg,stim_fb/negf.jpg,stim_02/d.jpg,stim_02/c.jpg,1,2,f,2,5,125,28,None,0,,02,01,60.0549023854,PLT_learning_02,N,2014_Feb_13_1309,P08,
stim_fb/ques.jpg,stim_fb/posf.jpg,stim_fb/negf.jpg,stim_02/f.jpg,stim_02/e.jpg,1,3,f,2,6,126,49,f,1,0.883086241884,02,01,60.0549023854,PLT_learning_02,N,2014_Feb_13_1309,P08,
stim_fb/ques.jpg,stim_fb/posf.jpg,stim_fb/negf.jpg,stim_02/c.jpg,stim_02/d.jpg,2,2,j,2,7,127,37,j,1,1.11636354477,02,01,60.0549023854,PLT_learning_02,N,2014_Feb_13_1309,P08,
stim_fb/ques.jpg,stim_fb/negf.jpg,stim_fb/posf.jpg,stim_02/d.jpg,stim_02/c.jpg,1,2,f,2,8,128,21,j,0,1.21631440548,02,01,60.0549023854,PLT_learning_02,N,2014_Feb_13_1309,P08,
stim_fb/ques.jpg,stim_fb/negf.jpg,stim_fb/posf.jpg,stim_02/b.jpg,stim_02/a.jpg,1,1,f,2,9,129,3,f,1,0.883100894351,02,01,60.0549023854,PLT_learning_02,N,2014_Feb_13_1309,P08,
stim_fb/ques.jpg,stim_fb/posf.jpg,stim_fb/negf.jpg,stim_02/c.jpg,stim_02/d.jpg,2,2,j,2,10,130,38,j,1,0.966380761119,02,01,60.0549023854,PLT_learning_02,N,2014_Feb_13_1309,P08,
stim_fb/ques.jpg,stim_fb/negf.jpg,stim_fb/posf.jpg,stim_02/f.jpg,stim_02/e.jpg,1,3,f,2,11,131,44,f,1,1.29965535126,02,01,60.0549023854,PLT_learning_02,N,2014_Feb_13_1309,P08,
stim_fb/ques.jpg,stim_fb/negf.jpg,stim_fb/posf.jpg,stim_02/b.jpg,stim_02/a.jpg,1,1,f,2,12,132,0,f,1,0.816280126164,02,01,60.0549023854,PLT_learning_02,N,2014_Feb_13_1309,P08,
stim_fb/ques.jpg,stim_fb/posf.jpg,stim_fb/negf.jpg,stim_02/b.jpg,stim_02/a.jpg,1,1,f,2,13,133,8,f,1,0.766463175227,02,01,60.0549023854,PLT_learning_02,N,2014_Feb_13_1309,P08,
stim_fb/ques.jpg,stim_fb/negf.jpg,stim_fb/posf.jpg,stim_02/c.jpg,stim_02/d.jpg,2,2,j,2,14,134,30,j,1,1.24961451412,02,01,60.0549023854,PLT_learning_02,N,2014_Feb_13_1309,P08,
stim_fb/ques.jpg,stim_fb/posf.jpg,stim_fb/negf.jpg,stim_02/e.jpg,stim_02/f.jpg,2,3,j,2,15,135,58,j,1,0.883057168528,02,01,60.0549023854,PLT_learning_02,N,2014_Feb_13_1309,P08,
stim_fb/ques.jpg,stim_fb/negf.jpg,stim_fb/posf.jpg,stim_02/f.jpg,stim_02/e.jpg,1,3,f,2,16,136,45,f,1,0.633185093401,02,01,60.0549023854,PLT_learning_02,N,2014_Feb_13_1309,P08,
stim_fb/ques.jpg,stim_fb/negf.jpg,stim_fb/posf.jpg,stim_02/b.jpg,stim_02/a.jpg,1,1,f,2,17,137,1,f,1,0.666503652966,02,01,60.0549023854,PLT_learning_02,N,2014_Feb_13_1309,P08,
stim_fb/ques.jpg,stim_fb/negf.jpg,stim_fb/posf.jpg,stim_02/a.jpg,stim_02/b.jpg,2,1,j,2,18,138,10,j,1,0.833078393853,02,01,60.0549023854,PLT_learning_02,N,2014_Feb_13_1309,P08,
stim_fb/ques.jpg,stim_fb/negf.jpg,stim_fb/posf.jpg,stim_02/a.jpg,stim_02/b.jpg,2,1,j,2,19,139,12,j,1,0.833090541084,02,01,60.0549023854,PLT_learning_02,N,2014_Feb_13_1309,P08,
stim_fb/ques.jpg,stim_fb/negf.jpg,stim_fb/posf.jpg,stim_02/b.jpg,stim_02/a.jpg,1,1,f,2,20,140,7,f,1,0.616552541137,02,01,60.0549023854,PLT_learning_02,N,2014_Feb_13_1309,P08,
stim_fb/ques.jpg,stim_fb/negf.jpg,stim_fb/posf.jpg,stim_02/d.jpg,stim_02/c.jpg,1,2,f,2,21,141,20,j,0,1.01639297301,02,01,60.0549023854,PLT_learning_02,N,2014_Feb_13_1309,P08,
stim_fb/ques.jpg,stim_fb/negf.jpg,stim_fb/posf.jpg,stim_02/d.jpg,stim_02/c.jpg,1,2,f,2,22,142,24,f,1,1.08307640139,02,01,60.0549023854,PLT_learning_02,N,2014_Feb_13_1309,P08,
stim_fb/ques.jpg,stim_fb/negf.jpg,stim_fb/posf.jpg,stim_02/e.jpg,stim_02/f.jpg,2,3,j,2,23,143,55,j,1,1.39957320782,02,01,60.0549023854,PLT_learning_02,N,2014_Feb_13_1309,P08,
stim_fb/ques.jpg,stim_fb/negf.jpg,stim_fb/posf.jpg,stim_02/a.jpg,stim_02/b.jpg,2,1,j,2,24,144,11,j,1,1.14966453461,02,01,60.0549023854,PLT_learning_02,N,2014_Feb_13_1309,P08,
stim_fb/ques.jpg,stim_fb/negf.jpg,stim_fb/posf.jpg,stim_02/e.jpg,stim_02/f.jpg,2,3,j,2,25,145,53,j,1,0.84976453649,02,01,60.0549023854,PLT_learning_02,N,2014_Feb_13_1309,P08,
stim_fb/ques.jpg,stim_fb/negf.jpg,stim_fb/posf.jpg,stim_02/b.jpg,stim_02/a.jpg,1,1,f,2,26,146,5,f,1,0.733181018259,02,01,60.0549023854,PLT_learning_02,N,2014_Feb_13_1309,P08,
stim_fb/ques.jpg,stim_fb/negf.jpg,stim_fb/posf.jpg,stim_02/c.jpg,stim_02/d.jpg,2,2,j,2,27,147,31,j,1,0.866421629831,02,01,60.0549023854,PLT_learning_02,N,2014_Feb_13_1309,P08,
stim_fb/ques.jpg,stim_fb/posf.jpg,stim_fb/negf.jpg,stim_02/c.jpg,stim_02/d.jpg,2,2,j,2,28,148,39,j,1,0.499868401484,02,01,60.0549023854,PLT_learning_02,N,2014_Feb_13_1309,P08,
stim_fb/ques.jpg,stim_fb/negf.jpg,stim_fb/posf.jpg,stim_02/a.jpg,stim_02/b.jpg,2,1,j,2,29,149,13,j,1,0.949724834682,02,01,60.0549023854,PLT_learning_02,N,2014_Feb_13_1309,P08,
stim_fb/ques.jpg,stim_fb/negf.jpg,stim_fb/posf.jpg,stim_02/f.jpg,stim_02/e.jpg,1,3,f,2,30,150,41,f,1,1.09969112529,02,01,60.0549023854,PLT_learning_02,N,2014_Feb_13_1309,P08,
stim_fb/ques.jpg,stim_fb/posf.jpg,stim_fb/negf.jpg,stim_02/d.jpg,stim_02/c.jpg,1,2,f,2,31,151,27,f,1,0.866419804288,02,01,60.0549023854,PLT_learning_02,N,2014_Feb_13_1309,P08,
stim_fb/ques.jpg,stim_fb/negf.jpg,stim_fb/posf.jpg,stim_02/b.jpg,stim_02/a.jpg,1,1,f,2,32,152,6,f,1,0.649825026034,02,01,60.0549023854,PLT_learning_02,N,2014_Feb_13_1309,P08,
stim_fb/ques.jpg,stim_fb/posf.jpg,stim_fb/negf.jpg,stim_02/e.jpg,stim_02/f.jpg,2,3,j,2,33,153,56,j,1,0.599858702346,02,01,60.0549023854,PLT_learning_02,N,2014_Feb_13_1309,P08,
stim_fb/ques.jpg,stim_fb/posf.jpg,stim_fb/negf.jpg,stim_02/e.jpg,stim_02/f.jpg,2,3,j,2,34,154,59,j,1,0.699866037601,02,01,60.0549023854,PLT_learning_02,N,2014_Feb_13_1309,P08,
stim_fb/ques.jpg,stim_fb/negf.jpg,stim_fb/posf.jpg,stim_02/f.jpg,stim_02/e.jpg,1,3,f,2,35,155,42,f,1,0.983069090198,02,01,60.0549023854,PLT_learning_02,N,2014_Feb_13_1309,P08,
stim_fb/ques.jpg,stim_fb/negf.jpg,stim_fb/posf.jpg,stim_02/d.jpg,stim_02/c.jpg,1,2,f,2,36,156,23,f,1,1.13300979613,02,01,60.0549023854,PLT_learning_02,N,2014_Feb_13_1309,P08,
stim_fb/ques.jpg,stim_fb/negf.jpg,stim_fb/posf.jpg,stim_02/e.jpg,stim_02/f.jpg,2,3,j,2,37,157,50,j,1,0.766500537212,02,01,60.0549023854,PLT_learning_02,N,2014_Feb_13_1309,P08,
stim_fb/ques.jpg,stim_fb/negf.jpg,stim_fb/posf.jpg,stim_02/f.jpg,stim_02/e.jpg,1,3,f,2,38,158,43,f,1,0.849744681075,02,01,60.0549023854,PLT_learning_02,N,2014_Feb_13_1309,P08,
stim_fb/ques.jpg,stim_fb/posf.jpg,stim_fb/negf.jpg,stim_02/f.jpg,stim_02/e.jpg,1,3,f,2,39,159,47,f,1,0.733131298519,02,01,60.0549023854,PLT_learning_02,N,2014_Feb_13_1309,P08,
stim_fb/ques.jpg,stim_fb/negf.jpg,stim_fb/posf.jpg,stim_02/e.jpg,stim_02/f.jpg,2,3,j,2,40,160,52,j,1,0.916398879712,02,01,60.0549023854,PLT_learning_02,N,2014_Feb_13_1309,P08,
stim_fb/ques.jpg,stim_fb/posf.jpg,stim_fb/negf.jpg,stim_02/e.jpg,stim_02/f.jpg,2,3,j,2,41,161,57,f,0,0.766652231742,02,01,60.0549023854,PLT_learning_02,N,2014_Feb_13_1309,P08,
stim_fb/ques.jpg,stim_fb/negf.jpg,stim_fb/posf.jpg,stim_02/e.jpg,stim_02/f.jpg,2,3,j,2,42,162,51,j,1,0.866404911223,02,01,60.0549023854,PLT_learning_02,N,2014_Feb_13_1309,P08,
stim_fb/ques.jpg,stim_fb/posf.jpg,stim_fb/negf.jpg,stim_02/b.jpg,stim_02/a.jpg,1,1,f,2,43,163,9,f,1,0.966397362436,02,01,60.0549023854,PLT_learning_02,N,2014_Feb_13_1309,P08,
stim_fb/ques.jpg,stim_fb/negf.jpg,stim_fb/posf.jpg,stim_02/a.jpg,stim_02/b.jpg,2,1,j,2,44,164,17,j,1,1.04968952681,02,01,60.0549023854,PLT_learning_02,N,2014_Feb_13_1309,P08,
stim_fb/ques.jpg,stim_fb/negf.jpg,stim_fb/posf.jpg,stim_02/c.jpg,stim_02/d.jpg,2,2,j,2,45,165,32,f,0,1.5328832141,02,01,60.0549023854,PLT_learning_02,N,2014_Feb_13_1309,P08,
stim_fb/ques.jpg,stim_fb/negf.jpg,stim_fb/posf.jpg,stim_02/a.jpg,stim_02/b.jpg,2,1,j,2,46,166,14,j,1,1.16631499344,02,01,60.0549023854,PLT_learning_02,N,2014_Feb_13_1309,P08,
stim_fb/ques.jpg,stim_fb/negf.jpg,stim_fb/posf.jpg,stim_02/e.jpg,stim_02/f.jpg,2,3,j,2,47,167,54,j,1,1.03305182272,02,01,60.0549023854,PLT_learning_02,N,2014_Feb_13_1309,P08,
stim_fb/ques.jpg,stim_fb/negf.jpg,stim_fb/posf.jpg,stim_02/a.jpg,stim_02/b.jpg,2,1,j,2,48,168,16,j,1,1.016342342,02,01,60.0549023854,PLT_learning_02,N,2014_Feb_13_1309,P08,
stim_fb/ques.jpg,stim_fb/negf.jpg,stim_fb/posf.jpg,stim_02/a.jpg,stim_02/b.jpg,2,1,j,2,49,169,15,j,1,0.649847807731,02,01,60.0549023854,PLT_learning_02,N,2014_Feb_13_1309,P08,
stim_fb/ques.jpg,stim_fb/negf.jpg,stim_fb/posf.jpg,stim_02/d.jpg,stim_02/c.jpg,1,2,f,2,50,170,26,f,1,0.966428664338,02,01,60.0549023854,PLT_learning_02,N,2014_Feb_13_1309,P08,
stim_fb/ques.jpg,stim_fb/posf.jpg,stim_fb/negf.jpg,stim_02/f.jpg,stim_02/e.jpg,1,3,f,2,51,171,48,j,0,0.866430640256,02,01,60.0549023854,PLT_learning_02,N,2014_Feb_13_1309,P08,
stim_fb/ques.jpg,stim_fb/posf.jpg,stim_fb/negf.jpg,stim_02/f.jpg,stim_02/e.jpg,1,3,f,2,52,172,46,f,1,1.06637002741,02,01,60.0549023854,PLT_learning_02,N,2014_Feb_13_1309,P08,
stim_fb/ques.jpg,stim_fb/negf.jpg,stim_fb/posf.jpg,stim_02/c.jpg,stim_02/d.jpg,2,2,j,2,53,173,35,None,0,,02,01,60.0549023854,PLT_learning_02,N,2014_Feb_13_1309,P08,
stim_fb/ques.jpg,stim_fb/posf.jpg,stim_fb/negf.jpg,stim_02/d.jpg,stim_02/c.jpg,1,2,f,2,54,174,29,f,1,0.71652602715,02,01,60.0549023854,PLT_learning_02,N,2014_Feb_13_1309,P08,
stim_fb/ques.jpg,stim_fb/negf.jpg,stim_fb/posf.jpg,stim_02/d.jpg,stim_02/c.jpg,1,2,f,2,55,175,25,f,1,1.16630122818,02,01,60.0549023854,PLT_learning_02,N,2014_Feb_13_1309,P08,
stim_fb/ques.jpg,stim_fb/negf.jpg,stim_fb/posf.jpg,stim_02/d.jpg,stim_02/c.jpg,1,2,f,2,56,176,22,f,1,0.833117307699,02,01,60.0549023854,PLT_learning_02,N,2014_Feb_13_1309,P08,
stim_fb/ques.jpg,stim_fb/negf.jpg,stim_fb/posf.jpg,stim_02/c.jpg,stim_02/d.jpg,2,2,j,2,57,177,36,j,1,0.716342988613,02,01,60.0549023854,PLT_learning_02,N,2014_Feb_13_1309,P08,
stim_fb/ques.jpg,stim_fb/negf.jpg,stim_fb/posf.jpg,stim_02/c.jpg,stim_02/d.jpg,2,2,j,2,58,178,33,f,0,0.783119104672,02,01,60.0549023854,PLT_learning_02,N,2014_Feb_13_1309,P08,
stim_fb/ques.jpg,stim_fb/negf.jpg,stim_fb/posf.jpg,stim_02/b.jpg,stim_02/a.jpg,1,1,f,2,59,179,2,f,1,0.683169997331,02,01,60.0549023854,PLT_learning_02,N,2014_Feb_13_1309,P08,
stim_fb/ques.jpg,stim_fb/negf.jpg,stim_fb/posf.jpg,stim_02/a.jpg,stim_02/b.jpg,2,1,j,3,0,180,15,j,1,0.999720054285,02,01,60.0549023854,PLT_learning_02,N,2014_Feb_13_1309,P08,
stim_fb/ques.jpg,stim_fb/negf.jpg,stim_fb/posf.jpg,stim_02/b.jpg,stim_02/a.jpg,1,1,f,3,1,181,7,f,1,0.766470486423,02,01,60.0549023854,PLT_learning_02,N,2014_Feb_13_1309,P08,
stim_fb/ques.jpg,stim_fb/negf.jpg,stim_fb/posf.jpg,stim_02/f.jpg,stim_02/e.jpg,1,3,f,3,2,182,42,f,1,0.816420187742,02,01,60.0549023854,PLT_learning_02,N,2014_Feb_13_1309,P08,
stim_fb/ques.jpg,stim_fb/negf.jpg,stim_fb/posf.jpg,stim_02/e.jpg,stim_02/f.jpg,2,3,j,3,3,183,52,j,1,0.783116334778,02,01,60.0549023854,PLT_learning_02,N,2014_Feb_13_1309,P08,
stim_fb/ques.jpg,stim_fb/negf.jpg,stim_fb/posf.jpg,stim_02/a.jpg,stim_02/b.jpg,2,1,j,3,4,184,11,j,1,0.849772422116,02,01,60.0549023854,PLT_learning_02,N,2014_Feb_13_1309,P08,
stim_fb/ques.jpg,stim_fb/posf.jpg,stim_fb/negf.jpg,stim_02/e.jpg,stim_02/f.jpg,2,3,j,3,5,185,58,j,1,1.16630625068,02,01,60.0549023854,PLT_learning_02,N,2014_Feb_13_1309,P08,
stim_fb/ques.jpg,stim_fb/negf.jpg,stim_fb/posf.jpg,stim_02/c.jpg,stim_02/d.jpg,2,2,j,3,6,186,36,j,1,0.799773352932,02,01,60.0549023854,PLT_learning_02,N,2014_Feb_13_1309,P08,
stim_fb/ques.jpg,stim_fb/negf.jpg,stim_fb/posf.jpg,stim_02/b.jpg,stim_02/a.jpg,1,1,f,3,7,187,6,f,1,0.81643948978,02,01,60.0549023854,PLT_learning_02,N,2014_Feb_13_1309,P08,
stim_fb/ques.jpg,stim_fb/negf.jpg,stim_fb/posf.jpg,stim_02/a.jpg,stim_02/b.jpg,2,1,j,3,8,188,16,j,1,0.616479317902,02,01,60.0549023854,PLT_learning_02,N,2014_Feb_13_1309,P08,
stim_fb/ques.jpg,stim_fb/posf.jpg,stim_fb/negf.jpg,stim_02/e.jpg,stim_02/f.jpg,2,3,j,3,9,189,59,j,1,0.849787546757,02,01,60.0549023854,PLT_learning_02,N,2014_Feb_13_1309,P08,
stim_fb/ques.jpg,stim_fb/negf.jpg,stim_fb/posf.jpg,stim_02/d.jpg,stim_02/c.jpg,1,2,f,3,10,190,22,f,1,0.833101214648,02,01,60.0549023854,PLT_learning_02,N,2014_Feb_13_1309,P08,
stim_fb/ques.jpg,stim_fb/negf.jpg,stim_fb/posf.jpg,stim_02/e.jpg,stim_02/f.jpg,2,3,j,3,11,191,53,j,1,1.18308555618,02,01,60.0549023854,PLT_learning_02,N,2014_Feb_13_1309,P08,
stim_fb/ques.jpg,stim_fb/posf.jpg,stim_fb/negf.jpg,stim_02/f.jpg,stim_02/e.jpg,1,3,f,3,12,192,47,f,1,1.36626581204,02,01,60.0549023854,PLT_learning_02,N,2014_Feb_13_1309,P08,
stim_fb/ques.jpg,stim_fb/negf.jpg,stim_fb/posf.jpg,stim_02/d.jpg,stim_02/c.jpg,1,2,f,3,13,193,25,f,1,1.09967223528,02,01,60.0549023854,PLT_learning_02,N,2014_Feb_13_1309,P08,
stim_fb/ques.jpg,stim_fb/negf.jpg,stim_fb/posf.jpg,stim_02/c.jpg,stim_02/d.jpg,2,2,j,3,14,194,34,j,1,0.683150605068,02,01,60.0549023854,PLT_learning_02,N,2014_Feb_13_1309,P08,
stim_fb/ques.jpg,stim_fb/negf.jpg,stim_fb/posf.jpg,stim_02/a.jpg,stim_02/b.jpg,2,1,j,3,15,195,13,j,1,0.899746014895,02,01,60.0549023854,PLT_learning_02,N,2014_Feb_13_1309,P08,
stim_fb/ques.jpg,stim_fb/negf.jpg,stim_fb/posf.jpg,stim_02/f.jpg,stim_02/e.jpg,1,3,f,3,16,196,45,f,1,1.09969780792,02,01,60.0549023854,PLT_learning_02,N,2014_Feb_13_1309,P08,
stim_fb/ques.jpg,stim_fb/posf.jpg,stim_fb/negf.jpg,stim_02/c.jpg,stim_02/d.jpg,2,2,j,3,17,197,37,j,1,0.983073842024,02,01,60.0549023854,PLT_learning_02,N,2014_Feb_13_1309,P08,
stim_fb/ques.jpg,stim_fb/negf.jpg,stim_fb/posf.jpg,stim_02/d.jpg,stim_02/c.jpg,1,2,f,3,18,198,20,f,1,1.18303111469,02,01,60.0549023854,PLT_learning_02,N,2014_Feb_13_1309,P08,
stim_fb/ques.jpg,stim_fb/negf.jpg,stim_fb/posf.jpg,stim_02/b.jpg,stim_02/a.jpg,1,1,f,3,19,199,0,f,1,1.04969186964,02,01,60.0549023854,PLT_learning_02,N,2014_Feb_13_1309,P08,
stim_fb/ques.jpg,stim_fb/posf.jpg,stim_fb/negf.jpg,stim_02/e.jpg,stim_02/f.jpg,2,3,j,3,20,200,57,j,1,0.983060747435,02,01,60.0549023854,PLT_learning_02,N,2014_Feb_13_1309,P08,
stim_fb/ques.jpg,stim_fb/negf.jpg,stim_fb/posf.jpg,stim_02/c.jpg,stim_02/d.jpg,2,2,j,3,21,201,31,j,1,0.849774292771,02,01,60.0549023854,PLT_learning_02,N,2014_Feb_13_1309,P08,
stim_fb/ques.jpg,stim_fb/negf.jpg,stim_fb/posf.jpg,stim_02/a.jpg,stim_02/b.jpg,2,1,j,3,22,202,17,j,1,1.06634203374,02,01,60.0549023854,PLT_learning_02,N,2014_Feb_13_1309,P08,
stim_fb/ques.jpg,stim_fb/negf.jpg,stim_fb/posf.jpg,stim_02/d.jpg,stim_02/c.jpg,1,2,f,3,23,203,21,j,0,1.28299060086,02,01,60.0549023854,PLT_learning_02,N,2014_Feb_13_1309,P08,
stim_fb/ques.jpg,stim_fb/posf.jpg,stim_fb/negf.jpg,stim_02/f.jpg,stim_02/e.jpg,1,3,f,3,24,204,48,f,1,1.03302917636,02,01,60.0549023854,PLT_learning_02,N,2014_Feb_13_1309,P08,
stim_fb/ques.jpg,stim_fb/negf.jpg,stim_fb/posf.jpg,stim_02/e.jpg,stim_02/f.jpg,2,3,j,3,25,205,50,j,1,1.3662744766,02,01,60.0549023854,PLT_learning_02,N,2014_Feb_13_1309,P08,
stim_fb/ques.jpg,stim_fb/negf.jpg,stim_fb/posf.jpg,stim_02/b.jpg,stim_02/a.jpg,1,1,f,3,26,206,3,f,1,0.999715070883,02,01,60.0549023854,PLT_learning_02,N,2014_Feb_13_1309,P08,
stim_fb/ques.jpg,stim_fb/negf.jpg,stim_fb/posf.jpg,stim_02/f.jpg,stim_02/e.jpg,1,3,f,3,27,207,41,j,0,1.56619470607,02,01,60.0549023854,PLT_learning_02,N,2014_Feb_13_1309,P08,
stim_fb/ques.jpg,stim_fb/negf.jpg,stim_fb/posf.jpg,stim_02/e.jpg,stim_02/f.jpg,2,3,j,3,28,208,54,j,1,0.966395918843,02,01,60.0549023854,PLT_learning_02,N,2014_Feb_13_1309,P08,
stim_fb/ques.jpg,stim_fb/negf.jpg,stim_fb/posf.jpg,stim_02/d.jpg,stim_02/c.jpg,1,2,f,3,29,209,26,j,0,1.56617794536,02,01,60.0549023854,PLT_learning_02,N,2014_Feb_13_1309,P08,
stim_fb/ques.jpg,stim_fb/negf.jpg,stim_fb/posf.jpg,stim_02/f.jpg,stim_02/e.jpg,1,3,f,3,30,210,44,j,0,1.51616725526,02,01,60.0549023854,PLT_learning_02,N,2014_Feb_13_1309,P08,
stim_fb/ques.jpg,stim_fb/posf.jpg,stim_fb/negf.jpg,stim_02/a.jpg,stim_02/b.jpg,2,1,j,3,31,211,19,j,1,0.916422277944,02,01,60.0549023854,PLT_learning_02,N,2014_Feb_13_1309,P08,
stim_fb/ques.jpg,stim_fb/negf.jpg,stim_fb/posf.jpg,stim_02/f.jpg,stim_02/e.jpg,1,3,f,3,32,212,40,f,1,1.21632315124,02,01,60.0549023854,PLT_learning_02,N,2014_Feb_13_1309,P08,
stim_fb/ques.jpg,stim_fb/negf.jpg,stim_fb/posf.jpg,stim_02/d.jpg,stim_02/c.jpg,1,2,f,3,33,213,24,f,1,1.36625581516,02,01,60.0549023854,PLT_learning_02,N,2014_Feb_13_1309,P08,
stim_fb/ques.jpg,stim_fb/negf.jpg,stim_fb/posf.jpg,stim_02/e.jpg,stim_02/f.jpg,2,3,j,3,34,214,51,j,1,0.783136599211,02,01,60.0549023854,PLT_learning_02,N,2014_Feb_13_1309,P08,
stim_fb/ques.jpg,stim_fb/negf.jpg,stim_fb/posf.jpg,stim_02/a.jpg,stim_02/b.jpg,2,1,j,3,35,215,12,j,1,0.849779176926,02,01,60.0549023854,PLT_learning_02,N,2014_Feb_13_1309,P08,
stim_fb/ques.jpg,stim_fb/posf.jpg,stim_fb/negf.jpg,stim_02/d.jpg,stim_02/c.jpg,1,2,f,3,36,216,28,f,1,1.13306257749,02,01,60.0549023854,PLT_learning_02,N,2014_Feb_13_1309,P08,
stim_fb/ques.jpg,stim_fb/negf.jpg,stim_fb/posf.jpg,stim_02/a.jpg,stim_02/b.jpg,2,1,j,3,37,217,10,j,1,0.666475265317,02,01,60.0549023854,PLT_learning_02,N,2014_Feb_13_1309,P08,
stim_fb/ques.jpg,stim_fb/negf.jpg,stim_fb/posf.jpg,stim_02/c.jpg,stim_02/d.jpg,2,2,j,3,38,218,30,f,0,0.899761163596,02,01,60.0549023854,PLT_learning_02,N,2014_Feb_13_1309,P08,
stim_fb/ques.jpg,stim_fb/negf.jpg,stim_fb/posf.jpg,stim_02/b.jpg,stim_02/a.jpg,1,1,f,3,39,219,2,f,1,0.766439912332,02,01,60.0549023854,PLT_learning_02,N,2014_Feb_13_1309,P08,
stim_fb/ques.jpg,stim_fb/posf.jpg,stim_fb/negf.jpg,stim_02/b.jpg,stim_02/a.jpg,1,1,f,3,40,220,8,f,1,0.783139669853,02,01,60.0549023854,PLT_learning_02,N,2014_Feb_13_1309,P08,
stim_fb/ques.jpg,stim_fb/negf.jpg,stim_fb/posf.jpg,stim_02/c.jpg,stim_02/d.jpg,2,2,j,3,41,221,32,j,1,1.29962509596,02,01,60.0549023854,PLT_learning_02,N,2014_Feb_13_1309,P08,
stim_fb/ques.jpg,stim_fb/posf.jpg,stim_fb/negf.jpg,stim_02/c.jpg,stim_02/d.jpg,2,2,j,3,42,222,38,j,1,0.883094049315,02,01,60.0549023854,PLT_learning_02,N,2014_Feb_13_1309,P08,
stim_fb/ques.jpg,stim_fb/negf.jpg,stim_fb/posf.jpg,stim_02/f.jpg,stim_02/e.jpg,1,3,f,3,43,223,43,f,1,1.11641704191,02,01,60.0549023854,PLT_learning_02,N,2014_Feb_13_1309,P08,
stim_fb/ques.jpg,stim_fb/negf.jpg,stim_fb/posf.jpg,stim_02/b.jpg,stim_02/a.jpg,1,1,f,3,44,224,5,j,0,0.666482275764,02,01,60.0549023854,PLT_learning_02,N,2014_Feb_13_1309,P08,
stim_fb/ques.jpg,stim_fb/posf.jpg,stim_fb/negf.jpg,stim_02/f.jpg,stim_02/e.jpg,1,3,f,3,45,225,49,f,1,0.983011114912,02,01,60.0549023854,PLT_learning_02,N,2014_Feb_13_1309,P08,
stim_fb/ques.jpg,stim_fb/negf.jpg,stim_fb/posf.jpg,stim_02/b.jpg,stim_02/a.jpg,1,1,f,3,46,226,1,f,1,0.966400078195,02,01,60.0549023854,PLT_learning_02,N,2014_Feb_13_1309,P08,
stim_fb/ques.jpg,stim_fb/negf.jpg,stim_fb/posf.jpg,stim_02/a.jpg,stim_02/b.jpg,2,1,j,3,47,227,14,j,1,0.933108134871,02,01,60.0549023854,PLT_learning_02,N,2014_Feb_13_1309,P08,
stim_fb/ques.jpg,stim_fb/posf.jpg,stim_fb/negf.jpg,stim_02/b.jpg,stim_02/a.jpg,1,1,f,3,48,228,9,f,1,0.799823737326,02,01,60.0549023854,PLT_learning_02,N,2014_Feb_13_1309,P08,
stim_fb/ques.jpg,stim_fb/posf.jpg,stim_fb/negf.jpg,stim_02/a.jpg,stim_02/b.jpg,2,1,j,3,49,229,18,j,1,0.949730663188,02,01,60.0549023854,PLT_learning_02,N,2014_Feb_13_1309,P08,
stim_fb/ques.jpg,stim_fb/posf.jpg,stim_fb/negf.jpg,stim_02/f.jpg,stim_02/e.jpg,1,3,f,3,50,230,46,f,1,1.06640676985,02,01,60.0549023854,PLT_learning_02,N,2014_Feb_13_1309,P08,
stim_fb/ques.jpg,stim_fb/negf.jpg,stim_fb/posf.jpg,stim_02/d.jpg,stim_02/c.jpg,1,2,f,3,51,231,23,f,1,0.966393365488,02,01,60.0549023854,PLT_learning_02,N,2014_Feb_13_1309,P08,
stim_fb/ques.jpg,stim_fb/posf.jpg,stim_fb/negf.jpg,stim_02/c.jpg,stim_02/d.jpg,2,2,j,3,52,232,39,j,1,1.06636680338,02,01,60.0549023854,PLT_learning_02,N,2014_Feb_13_1309,P08,
stim_fb/ques.jpg,stim_fb/negf.jpg,stim_fb/posf.jpg,stim_02/c.jpg,stim_02/d.jpg,2,2,j,3,53,233,35,j,1,1.0830381131,02,01,60.0549023854,PLT_learning_02,N,2014_Feb_13_1309,P08,
stim_fb/ques.jpg,stim_fb/negf.jpg,stim_fb/posf.jpg,stim_02/e.jpg,stim_02/f.jpg,2,3,j,3,54,234,55,j,1,1.18298802344,02,01,60.0549023854,PLT_learning_02,N,2014_Feb_13_1309,P08,
stim_fb/ques.jpg,stim_fb/posf.jpg,stim_fb/negf.jpg,stim_02/e.jpg,stim_02/f.jpg,2,3,j,3,55,235,56,j,1,0.749810063796,02,01,60.0549023854,PLT_learning_02,N,2014_Feb_13_1309,P08,
stim_fb/ques.jpg,stim_fb/negf.jpg,stim_fb/posf.jpg,stim_02/c.jpg,stim_02/d.jpg,2,2,j,3,56,236,33,None,0,,02,01,60.0549023854,PLT_learning_02,N,2014_Feb_13_1309,P08,
stim_fb/ques.jpg,stim_fb/posf.jpg,stim_fb/negf.jpg,stim_02/d.jpg,stim_02/c.jpg,1,2,f,3,57,237,27,j,0,0.783117637019,02,01,60.0549023854,PLT_learning_02,N,2014_Feb_13_1309,P08,
stim_fb/ques.jpg,stim_fb/negf.jpg,stim_fb/posf.jpg,stim_02/b.jpg,stim_02/a.jpg,1,1,f,3,58,238,4,f,1,0.849778846103,02,01,60.0549023854,PLT_learning_02,N,2014_Feb_13_1309,P08,
stim_fb/ques.jpg,stim_fb/posf.jpg,stim_fb/negf.jpg,stim_02/d.jpg,stim_02/c.jpg,1,2,f,3,59,239,29,j,0,1.14967804724,02,01,60.0549023854,PLT_learning_02,N,2014_Feb_13_1309,P08,
stim_fb/ques.jpg,stim_fb/posf.jpg,stim_fb/negf.jpg,stim_02/c.jpg,stim_02/d.jpg,2,2,j,4,0,240,39,j,1,0.833097046274,02,01,60.0549023854,PLT_learning_02,N,2014_Feb_13_1309,P08,
stim_fb/ques.jpg,stim_fb/negf.jpg,stim_fb/posf.jpg,stim_02/b.jpg,stim_02/a.jpg,1,1,f,4,1,241,6,f,1,0.599857637696,02,01,60.0549023854,PLT_learning_02,N,2014_Feb_13_1309,P08,
stim_fb/ques.jpg,stim_fb/negf.jpg,stim_fb/posf.jpg,stim_02/a.jpg,stim_02/b.jpg,2,1,j,4,2,242,10,j,1,0.866264353409,02,01,60.0549023854,PLT_learning_02,N,2014_Feb_13_1309,P08,
stim_fb/ques.jpg,stim_fb/negf.jpg,stim_fb/posf.jpg,stim_02/d.jpg,stim_02/c.jpg,1,2,f,4,3,243,21,j,0,0.849782358845,02,01,60.0549023854,PLT_learning_02,N,2014_Feb_13_1309,P08,
stim_fb/ques.jpg,stim_fb/negf.jpg,stim_fb/posf.jpg,stim_02/c.jpg,stim_02/d.jpg,2,2,j,4,4,244,32,j,1,0.683120885103,02,01,60.0549023854,PLT_learning_02,N,2014_Feb_13_1309,P08,
stim_fb/ques.jpg,stim_fb/negf.jpg,stim_fb/posf.jpg,stim_02/b.jpg,stim_02/a.jpg,1,1,f,4,5,245,3,f,1,0.749762834254,02,01,60.0549023854,PLT_learning_02,N,2014_Feb_13_1309,P08,
stim_fb/ques.jpg,stim_fb/negf.jpg,stim_fb/posf.jpg,stim_02/c.jpg,stim_02/d.jpg,2,2,j,4,6,246,30,j,1,0.79977665515,02,01,60.0549023854,PLT_learning_02,N,2014_Feb_13_1309,P08,
stim_fb/ques.jpg,stim_fb/negf.jpg,stim_fb/posf.jpg,stim_02/f.jpg,stim_02/e.jpg,1,3,f,4,7,247,42,f,1,0.999724033188,02,01,60.0549023854,PLT_learning_02,N,2014_Feb_13_1309,P08,
stim_fb/ques.jpg,stim_fb/negf.jpg,stim_fb/posf.jpg,stim_02/d.jpg,stim_02/c.jpg,1,2,f,4,8,248,26,j,0,1.26630578753,02,01,60.0549023854,PLT_learning_02,N,2014_Feb_13_1309,P08,
stim_fb/ques.jpg,stim_fb/negf.jpg,stim_fb/posf.jpg,stim_02/a.jpg,stim_02/b.jpg,2,1,j,4,9,249,16,j,1,0.816444740849,02,01,60.0549023854,PLT_learning_02,N,2014_Feb_13_1309,P08,
stim_fb/ques.jpg,stim_fb/negf.jpg,stim_fb/posf.jpg,stim_02/d.jpg,stim_02/c.jpg,1,2,f,4,10,250,23,j,0,1.16633267745,02,01,60.0549023854,PLT_learning_02,N,2014_Feb_13_1309,P08,
stim_fb/ques.jpg,stim_fb/negf.jpg,stim_fb/posf.jpg,stim_02/c.jpg,stim_02/d.jpg,2,2,j,4,11,251,33,j,1,0.849752620835,02,01,60.0549023854,PLT_learning_02,N,2014_Feb_13_1309,P08,
stim_fb/ques.jpg,stim_fb/negf.jpg,stim_fb/posf.jpg,stim_02/b.jpg,stim_02/a.jpg,1,1,f,4,12,252,0,f,1,0.699812549482,02,01,60.0549023854,PLT_learning_02,N,2014_Feb_13_1309,P08,
stim_fb/ques.jpg,stim_fb/negf.jpg,stim_fb/posf.jpg,stim_02/a.jpg,stim_02/b.jpg,2,1,j,4,13,253,13,j,1,0.633188879825,02,01,60.0549023854,PLT_learning_02,N,2014_Feb_13_1309,P08,
stim_fb/ques.jpg,stim_fb/negf.jpg,stim_fb/posf.jpg,stim_02/d.jpg,stim_02/c.jpg,1,2,f,4,14,254,20,f,1,0.916418308064,02,01,60.0549023854,PLT_learning_02,N,2014_Feb_13_1309,P08,
stim_fb/ques.jpg,stim_fb/posf.jpg,stim_fb/negf.jpg,stim_02/b.jpg,stim_02/a.jpg,1,1,f,4,15,255,9,f,1,0.633183749055,02,01,60.0549023854,PLT_learning_02,N,2014_Feb_13_1309,P08,
stim_fb/ques.jpg,stim_fb/negf.jpg,stim_fb/posf.jpg,stim_02/e.jpg,stim_02/f.jpg,2,3,j,4,16,256,50,j,1,0.933065206032,02,01,60.0549023854,PLT_learning_02,N,2014_Feb_13_1309,P08,
stim_fb/ques.jpg,stim_fb/negf.jpg,stim_fb/posf.jpg,stim_02/b.jpg,stim_02/a.jpg,1,1,f,4,17,257,2,f,1,0.916410214922,02,01,60.0549023854,PLT_learning_02,N,2014_Feb_13_1309,P08,
stim_fb/ques.jpg,stim_fb/negf.jpg,stim_fb/posf.jpg,stim_02/b.jpg,stim_02/a.jpg,1,1,f,4,18,258,4,f,1,0.699828859073,02,01,60.0549023854,PLT_learning_02,N,2014_Feb_13_1309,P08,
stim_fb/ques.jpg,stim_fb/negf.jpg,stim_fb/posf.jpg,stim_02/f.jpg,stim_02/e.jpg,1,3,f,4,19,259,41,f,1,0.983076629963,02,01,60.0549023854,PLT_learning_02,N,2014_Feb_13_1309,P08,
stim_fb/ques.jpg,stim_fb/negf.jpg,stim_fb/posf.jpg,stim_02/f.jpg,stim_02/e.jpg,1,3,f,4,20,260,44,f,1,0.666502052984,02,01,60.0549023854,PLT_learning_02,N,2014_Feb_13_1309,P08,
stim_fb/ques.jpg,stim_fb/negf.jpg,stim_fb/posf.jpg,stim_02/e.jpg,stim_02/f.jpg,2,3,j,4,21,261,55,j,1,0.916406795412,02,01,60.0549023854,PLT_learning_02,N,2014_Feb_13_1309,P08,
stim_fb/ques.jpg,stim_fb/negf.jpg,stim_fb/posf.jpg,stim_02/a.jpg,stim_02/b.jpg,2,1,j,4,22,262,15,j,1,1.11634977049,02,01,60.0549023854,PLT_learning_02,N,2014_Feb_13_1309,P08,
stim_fb/ques.jpg,stim_fb/negf.jpg,stim_fb/posf.jpg,stim_02/a.jpg,stim_02/b.jpg,2,1,j,4,23,263,17,j,1,0.799806757067,02,01,60.0549023854,PLT_learning_02,N,2014_Feb_13_1309,P08,
stim_fb/ques.jpg,stim_fb/negf.jpg,stim_fb/posf.jpg,stim_02/f.jpg,stim_02/e.jpg,1,3,f,4,24,264,43,f,1,0.96643079063,02,01,60.0549023854,PLT_learning_02,N,2014_Feb_13_1309,P08,
stim_fb/ques.jpg,stim_fb/negf.jpg,stim_fb/posf.jpg,stim_02/d.jpg,stim_02/c.jpg,1,2,f,4,25,265,22,f,1,1.26628550806,02,01,60.0549023854,PLT_learning_02,N,2014_Feb_13_1309,P08,
stim_fb/ques.jpg,stim_fb/posf.jpg,stim_fb/negf.jpg,stim_02/f.jpg,stim_02/e.jpg,1,3,f,4,26,266,47,f,1,1.01637880776,02,01,60.0549023854,PLT_learning_02,N,2014_Feb_13_1309,P08,
stim_fb/ques.jpg,stim_fb/posf.jpg,stim_fb/negf.jpg,stim_02/a.jpg,stim_02/b.jpg,2,1,j,4,27,267,18,j,1,0.833093650823,02,01,60.0549023854,PLT_learning_02,N,2014_Feb_13_1309,P08,
stim_fb/ques.jpg,stim_fb/negf.jpg,stim_fb/posf.jpg,stim_02/f.jpg,stim_02/e.jpg,1,3,f,4,28,268,40,j,0,0.89974233674,02,01,60.0549023854,PLT_learning_02,N,2014_Feb_13_1309,P08,
stim_fb/ques.jpg,stim_fb/negf.jpg,stim_fb/posf.jpg,stim_02/b.jpg,stim_02/a.jpg,1,1,f,4,29,269,1,f,1,0.649832099638,02,01,60.0549023854,PLT_learning_02,N,2014_Feb_13_1309,P08,
stim_fb/ques.jpg,stim_fb/posf.jpg,stim_fb/negf.jpg,stim_02/b.jpg,stim_02/a.jpg,1,1,f,4,30,270,8,f,1,0.616512240839,02,01,60.0549023854,PLT_learning_02,N,2014_Feb_13_1309,P08,
stim_fb/ques.jpg,stim_fb/negf.jpg,stim_fb/posf.jpg,stim_02/c.jpg,stim_02/d.jpg,2,2,j,4,31,271,34,j,1,0.883093465863,02,01,60.0549023854,PLT_learning_02,N,2014_Feb_13_1309,P08,
stim_fb/ques.jpg,stim_fb/posf.jpg,stim_fb/negf.jpg,stim_02/f.jpg,stim_02/e.jpg,1,3,f,4,32,272,46,f,1,1.01636035383,02,01,60.0549023854,PLT_learning_02,N,2014_Feb_13_1309,P08,
stim_fb/ques.jpg,stim_fb/posf.jpg,stim_fb/negf.jpg,stim_02/e.jpg,stim_02/f.jpg,2,3,j,4,33,273,57,j,1,0.816438425131,02,01,60.0549023854,PLT_learning_02,N,2014_Feb_13_1309,P08,
stim_fb/ques.jpg,stim_fb/negf.jpg,stim_fb/posf.jpg,stim_02/e.jpg,stim_02/f.jpg,2,3,j,4,34,274,54,j,1,0.916370762736,02,01,60.0549023854,PLT_learning_02,N,2014_Feb_13_1309,P08,
stim_fb/ques.jpg,stim_fb/negf.jpg,stim_fb/posf.jpg,stim_02/d.jpg,stim_02/c.jpg,1,2,f,4,35,275,25,j,0,0.849754247884,02,01,60.0549023854,PLT_learning_02,N,2014_Feb_13_1309,P08,
stim_fb/ques.jpg,stim_fb/posf.jpg,stim_fb/negf.jpg,stim_02/d.jpg,stim_02/c.jpg,1,2,f,4,36,276,28,f,1,1.19953186693,02,01,60.0549023854,PLT_learning_02,N,2014_Feb_13_1309,P08,
stim_fb/ques.jpg,stim_fb/posf.jpg,stim_fb/negf.jpg,stim_02/a.jpg,stim_02/b.jpg,2,1,j,4,37,277,19,j,1,0.633158994448,02,01,60.0549023854,PLT_learning_02,N,2014_Feb_13_1309,P08,
stim_fb/ques.jpg,stim_fb/posf.jpg,stim_fb/negf.jpg,stim_02/f.jpg,stim_02/e.jpg,1,3,f,4,38,278,48,f,1,0.783120142254,02,01,60.0549023854,PLT_learning_02,N,2014_Feb_13_1309,P08,
stim_fb/ques.jpg,stim_fb/posf.jpg,stim_fb/negf.jpg,stim_02/d.jpg,stim_02/c.jpg,1,2,f,4,39,279,27,j,0,1.63283177107,02,01,60.0549023854,PLT_learning_02,N,2014_Feb_13_1309,P08,
stim_fb/ques.jpg,stim_fb/negf.jpg,stim_fb/posf.jpg,stim_02/c.jpg,stim_02/d.jpg,2,2,j,4,40,280,31,j,1,0.999699263542,02,01,60.0549023854,PLT_learning_02,N,2014_Feb_13_1309,P08,
stim_fb/ques.jpg,stim_fb/negf.jpg,stim_fb/posf.jpg,stim_02/a.jpg,stim_02/b.jpg,2,1,j,4,41,281,12,j,1,0.833093292933,02,01,60.0549023854,PLT_learning_02,N,2014_Feb_13_1309,P08,
stim_fb/ques.jpg,stim_fb/negf.jpg,stim_fb/posf.jpg,stim_02/b.jpg,stim_02/a.jpg,1,1,f,4,42,282,5,j,0,0.599845664899,02,01,60.0549023854,PLT_learning_02,N,2014_Feb_13_1309,P08,
stim_fb/ques.jpg,stim_fb/negf.jpg,stim_fb/posf.jpg,stim_02/c.jpg,stim_02/d.jpg,2,2,j,4,43,283,36,j,1,0.866438667233,02,01,60.0549023854,PLT_learning_02,N,2014_Feb_13_1309,P08,
stim_fb/ques.jpg,stim_fb/negf.jpg,stim_fb/posf.jpg,stim_02/e.jpg,stim_02/f.jpg,2,3,j,4,44,284,53,j,1,0.866422667413,02,01,60.0549023854,PLT_learning_02,N,2014_Feb_13_1309,P08,
stim_fb/ques.jpg,stim_fb/posf.jpg,stim_fb/negf.jpg,stim_02/c.jpg,stim_02/d.jpg,2,2,j,4,45,285,37,j,1,1.06640588866,02,01,60.0549023854,PLT_learning_02,N,2014_Feb_13_1309,P08,
stim_fb/ques.jpg,stim_fb/negf.jpg,stim_fb/posf.jpg,stim_02/a.jpg,stim_02/b.jpg,2,1,j,4,46,286,11,j,1,0.766476348011,02,01,60.0549023854,PLT_learning_02,N,2014_Feb_13_1309,P08,
stim_fb/ques.jpg,stim_fb/posf.jpg,stim_fb/negf.jpg,stim_02/c.jpg,stim_02/d.jpg,2,2,j,4,47,287,38,j,1,0.583179305497,02,01,60.0549023854,PLT_learning_02,N,2014_Feb_13_1309,P08,
stim_fb/ques.jpg,stim_fb/negf.jpg,stim_fb/posf.jpg,stim_02/b.jpg,stim_02/a.jpg,1,1,f,4,48,288,7,f,1,0.783175329602,02,01,60.0549023854,PLT_learning_02,N,2014_Feb_13_1309,P08,
stim_fb/ques.jpg,stim_fb/negf.jpg,stim_fb/posf.jpg,stim_02/e.jpg,stim_02/f.jpg,2,3,j,4,49,289,51,j,1,0.8664407033,02,01,60.0549023854,PLT_learning_02,N,2014_Feb_13_1309,P08,
stim_fb/ques.jpg,stim_fb/negf.jpg,stim_fb/posf.jpg,stim_02/d.jpg,stim_02/c.jpg,1,2,f,4,50,290,24,f,1,0.649837507096,02,01,60.0549023854,PLT_learning_02,N,2014_Feb_13_1309,P08,
stim_fb/ques.jpg,stim_fb/negf.jpg,stim_fb/posf.jpg,stim_02/e.jpg,stim_02/f.jpg,2,3,j,4,51,291,52,j,1,0.899829800416,02,01,60.0549023854,PLT_learning_02,N,2014_Feb_13_1309,P08,
stim_fb/ques.jpg,stim_fb/negf.jpg,stim_fb/posf.jpg,stim_02/a.jpg,stim_02/b.jpg,2,1,j,4,52,292,14,j,1,0.683120629466,02,01,60.0549023854,PLT_learning_02,N,2014_Feb_13_1309,P08,
stim_fb/ques.jpg,stim_fb/posf.jpg,stim_fb/negf.jpg,stim_02/f.jpg,stim_02/e.jpg,1,3,f,4,53,293,49,f,1,0.84975860573,02,01,60.0549023854,PLT_learning_02,N,2014_Feb_13_1309,P08,
stim_fb/ques.jpg,stim_fb/posf.jpg,stim_fb/negf.jpg,stim_02/e.jpg,stim_02/f.jpg,2,3,j,4,54,294,56,j,1,0.633176290493,02,01,60.0549023854,PLT_learning_02,N,2014_Feb_13_1309,P08,
stim_fb/ques.jpg,stim_fb/posf.jpg,stim_fb/negf.jpg,stim_02/d.jpg,stim_02/c.jpg,1,2,f,4,55,295,29,f,1,1.28295238776,02,01,60.0549023854,PLT_learning_02,N,2014_Feb_13_1309,P08,
stim_fb/ques.jpg,stim_fb/posf.jpg,stim_fb/negf.jpg,stim_02/e.jpg,stim_02/f.jpg,2,3,j,4,56,296,59,j,1,0.766455412909,02,01,60.0549023854,PLT_learning_02,N,2014_Feb_13_1309,P08,
stim_fb/ques.jpg,stim_fb/negf.jpg,stim_fb/posf.jpg,stim_02/c.jpg,stim_02/d.jpg,2,2,j,4,57,297,35,j,1,0.816451297166,02,01,60.0549023854,PLT_learning_02,N,2014_Feb_13_1309,P08,
stim_fb/ques.jpg,stim_fb/posf.jpg,stim_fb/negf.jpg,stim_02/e.jpg,stim_02/f.jpg,2,3,j,4,58,298,58,j,1,0.849753965181,02,01,60.0549023854,PLT_learning_02,N,2014_Feb_13_1309,P08,
stim_fb/ques.jpg,stim_fb/negf.jpg,stim_fb/posf.jpg,stim_02/f.jpg,stim_02/e.jpg,1,3,f,4,59,299,45,f,1,1.06635496893,02,01,60.0549023854,PLT_learning_02,N,2014_Feb_13_1309,P08,
stim_fb/ques.jpg,stim_fb/negf.jpg,stim_fb/posf.jpg,stim_02/d.jpg,stim_02/c.jpg,1,2,f,5,0,300,23,f,1,1.18298112427,02,01,60.0549023854,PLT_learning_02,N,2014_Feb_13_1309,P08,
stim_fb/ques.jpg,stim_fb/negf.jpg,stim_fb/posf.jpg,stim_02/a.jpg,stim_02/b.jpg,2,1,j,5,1,301,14,j,1,0.849768464265,02,01,60.0549023854,PLT_learning_02,N,2014_Feb_13_1309,P08,
stim_fb/ques.jpg,stim_fb/posf.jpg,stim_fb/negf.jpg,stim_02/f.jpg,stim_02/e.jpg,1,3,f,5,2,302,48,None,0,,02,01,60.0549023854,PLT_learning_02,N,2014_Feb_13_1309,P08,
stim_fb/ques.jpg,stim_fb/negf.jpg,stim_fb/posf.jpg,stim_02/c.jpg,stim_02/d.jpg,2,2,j,5,3,303,30,j,1,0.716478295358,02,01,60.0549023854,PLT_learning_02,N,2014_Feb_13_1309,P08,
stim_fb/ques.jpg,stim_fb/negf.jpg,stim_fb/posf.jpg,stim_02/f.jpg,stim_02/e.jpg,1,3,f,5,4,304,43,f,1,0.750051847536,02,01,60.0549023854,PLT_learning_02,N,2014_Feb_13_1309,P08,
stim_fb/ques.jpg,stim_fb/negf.jpg,stim_fb/posf.jpg,stim_02/b.jpg,stim_02/a.jpg,1,1,f,5,5,305,2,f,1,0.649829907181,02,01,60.0549023854,PLT_learning_02,N,2014_Feb_13_1309,P08,
stim_fb/ques.jpg,stim_fb/posf.jpg,stim_fb/negf.jpg,stim_02/f.jpg,stim_02/e.jpg,1,3,f,5,6,306,46,f,1,0.549835831927,02,01,60.0549023854,PLT_learning_02,N,2014_Feb_13_1309,P08,
stim_fb/ques.jpg,stim_fb/posf.jpg,stim_fb/negf.jpg,stim_02/c.jpg,stim_02/d.jpg,2,2,j,5,7,307,39,j,1,0.766402189449,02,01,60.0549023854,PLT_learning_02,N,2014_Feb_13_1309,P08,
stim_fb/ques.jpg,stim_fb/negf.jpg,stim_fb/posf.jpg,stim_02/c.jpg,stim_02/d.jpg,2,2,j,5,8,308,35,j,1,1.09968861705,02,01,60.0549023854,PLT_learning_02,N,2014_Feb_13_1309,P08,
stim_fb/ques.jpg,stim_fb/negf.jpg,stim_fb/posf.jpg,stim_02/a.jpg,stim_02/b.jpg,2,1,j,5,9,309,13,j,1,0.58318311598,02,01,60.0549023854,PLT_learning_02,N,2014_Feb_13_1309,P08,
stim_fb/ques.jpg,stim_fb/negf.jpg,stim_fb/posf.jpg,stim_02/e.jpg,stim_02/f.jpg,2,3,j,5,10,310,51,j,1,0.833131391751,02,01,60.0549023854,PLT_learning_02,N,2014_Feb_13_1309,P08,
stim_fb/ques.jpg,stim_fb/posf.jpg,stim_fb/negf.jpg,stim_02/e.jpg,stim_02/f.jpg,2,3,j,5,11,311,56,j,1,0.666487361421,02,01,60.0549023854,PLT_learning_02,N,2014_Feb_13_1309,P08,
stim_fb/ques.jpg,stim_fb/negf.jpg,stim_fb/posf.jpg,stim_02/f.jpg,stim_02/e.jpg,1,3,f,5,12,312,41,f,1,0.666456504626,02,01,60.0549023854,PLT_learning_02,N,2014_Feb_13_1309,P08,
stim_fb/ques.jpg,stim_fb/negf.jpg,stim_fb/posf.jpg,stim_02/c.jpg,stim_02/d.jpg,2,2,j,5,13,313,31,j,1,0.783112509258,02,01,60.0549023854,PLT_learning_02,N,2014_Feb_13_1309,P08,
stim_fb/ques.jpg,stim_fb/posf.jpg,stim_fb/negf.jpg,stim_02/d.jpg,stim_02/c.jpg,1,2,f,5,14,314,28,f,1,0.733143370564,02,01,60.0549023854,PLT_learning_02,N,2014_Feb_13_1309,P08,
stim_fb/ques.jpg,stim_fb/posf.jpg,stim_fb/negf.jpg,stim_02/d.jpg,stim_02/c.jpg,1,2,f,5,15,315,27,f,1,1.09968085773,02,01,60.0549023854,PLT_learning_02,N,2014_Feb_13_1309,P08,
stim_fb/ques.jpg,stim_fb/negf.jpg,stim_fb/posf.jpg,stim_02/a.jpg,stim_02/b.jpg,2,1,j,5,16,316,17,j,1,0.816413631425,02,01,60.0549023854,PLT_learning_02,N,2014_Feb_13_1309,P08,
stim_fb/ques.jpg,stim_fb/posf.jpg,stim_fb/negf.jpg,stim_02/b.jpg,stim_02/a.jpg,1,1,f,5,17,317,8,f,1,0.699822850118,02,01,60.0549023854,PLT_learning_02,N,2014_Feb_13_1309,P08,
stim_fb/ques.jpg,stim_fb/negf.jpg,stim_fb/posf.jpg,stim_02/d.jpg,stim_02/c.jpg,1,2,f,5,18,318,21,f,1,1.09965041297,02,01,60.0549023854,PLT_learning_02,N,2014_Feb_13_1309,P08,
stim_fb/ques.jpg,stim_fb/negf.jpg,stim_fb/posf.jpg,stim_02/d.jpg,stim_02/c.jpg,1,2,f,5,19,319,26,j,0,0.733181219761,02,01,60.0549023854,PLT_learning_02,N,2014_Feb_13_1309,P08,
stim_fb/ques.jpg,stim_fb/posf.jpg,stim_fb/negf.jpg,stim_02/e.jpg,stim_02/f.jpg,2,3,j,5,20,320,59,j,1,0.783122972297,02,01,60.0549023854,PLT_learning_02,N,2014_Feb_13_1309,P08,
stim_fb/ques.jpg,stim_fb/negf.jpg,stim_fb/posf.jpg,stim_02/a.jpg,stim_02/b.jpg,2,1,j,5,21,321,12,f,0,0.833117268602,02,01,60.0549023854,PLT_learning_02,N,2014_Feb_13_1309,P08,
stim_fb/ques.jpg,stim_fb/negf.jpg,stim_fb/posf.jpg,stim_02/c.jpg,stim_02/d.jpg,2,2,j,5,22,322,33,j,1,0.833100832697,02,01,60.0549023854,PLT_learning_02,N,2014_Feb_13_1309,P08,
stim_fb/ques.jpg,stim_fb/negf.jpg,stim_fb/posf.jpg,stim_02/d.jpg,stim_02/c.jpg,1,2,f,5,23,323,22,f,1,1.41618454529,02,01,60.0549023854,PLT_learning_02,N,2014_Feb_13_1309,P08,
stim_fb/ques.jpg,stim_fb/negf.jpg,stim_fb/posf.jpg,stim_02/b.jpg,stim_02/a.jpg,1,1,f,5,24,324,5,f,1,0.633143274324,02,01,60.0549023854,PLT_learning_02,N,2014_Feb_13_1309,P08,
stim_fb/ques.jpg,stim_fb/posf.jpg,stim_fb/negf.jpg,stim_02/a.jpg,stim_02/b.jpg,2,1,j,5,25,325,18,j,1,0.549861176002,02,01,60.0549023854,PLT_learning_02,N,2014_Feb_13_1309,P08,
stim_fb/ques.jpg,stim_fb/posf.jpg,stim_fb/negf.jpg,stim_02/f.jpg,stim_02/e.jpg,1,3,f,5,26,326,49,f,1,0.849752647902,02,01,60.0549023854,PLT_learning_02,N,2014_Feb_13_1309,P08,
stim_fb/ques.jpg,stim_fb/negf.jpg,stim_fb/posf.jpg,stim_02/a.jpg,stim_02/b.jpg,2,1,j,5,27,327,10,j,1,0.63317680778,02,01,60.0549023854,PLT_learning_02,N,2014_Feb_13_1309,P08,
stim_fb/ques.jpg,stim_fb/negf.jpg,stim_fb/posf.jpg,stim_02/a.jpg,stim_02/b.jpg,2,1,j,5,28,328,15,j,1,0.633198813547,02,01,60.0549023854,PLT_learning_02,N,2014_Feb_13_1309,P08,
stim_fb/ques.jpg,stim_fb/negf.jpg,stim_fb/posf.jpg,stim_02/c.jpg,stim_02/d.jpg,2,2,j,5,29,329,32,j,1,1.04969659741,02,01,60.0549023854,PLT_learning_02,N,2014_Feb_13_1309,P08,
stim_fb/ques.jpg,stim_fb/negf.jpg,stim_fb/posf.jpg,stim_02/f.jpg,stim_02/e.jpg,1,3,f,5,30,330,44,f,1,0.683145835197,02,01,60.0549023854,PLT_learning_02,N,2014_Feb_13_1309,P08,
stim_fb/ques.jpg,stim_fb/negf.jpg,stim_fb/posf.jpg,stim_02/e.jpg,stim_02/f.jpg,2,3,j,5,31,331,55,j,1,0.699802681925,02,01,60.0549023854,PLT_learning_02,N,2014_Feb_13_1309,P08,
stim_fb/ques.jpg,stim_fb/negf.jpg,stim_fb/posf.jpg,stim_02/d.jpg,stim_02/c.jpg,1,2,f,5,32,332,25,f,1,1.46623438082,02,01,60.0549023854,PLT_learning_02,N,2014_Feb_13_1309,P08,
stim_fb/ques.jpg,stim_fb/negf.jpg,stim_fb/posf.jpg,stim_02/e.jpg,stim_02/f.jpg,2,3,j,5,33,333,52,j,1,0.899771127393,02,01,60.0549023854,PLT_learning_02,N,2014_Feb_13_1309,P08,
stim_fb/ques.jpg,stim_fb/negf.jpg,stim_fb/posf.jpg,stim_02/b.jpg,stim_02/a.jpg,1,1,f,5,34,334,3,f,1,1.09969620493,02,01,60.0549023854,PLT_learning_02,N,2014_Feb_13_1309,P08,
stim_fb/ques.jpg,stim_fb/negf.jpg,stim_fb/posf.jpg,stim_02/b.jpg,stim_02/a.jpg,1,1,f,5,35,335,1,f,1,0.816444509273,02,01,60.0549023854,PLT_learning_02,N,2014_Feb_13_1309,P08,
stim_fb/ques.jpg,stim_fb/posf.jpg,stim_fb/negf.jpg,stim_02/b.jpg,stim_02/a.jpg,1,1,f,5,36,336,9,f,1,0.583174153675,02,01,60.0549023854,PLT_learning_02,N,2014_Feb_13_1309,P08,
stim_fb/ques.jpg,stim_fb/negf.jpg,stim_fb/posf.jpg,stim_02/f.jpg,stim_02/e.jpg,1,3,f,5,37,337,40,f,1,0.883031872573,02,01,60.0549023854,PLT_learning_02,N,2014_Feb_13_1309,P08,
stim_fb/ques.jpg,stim_fb/negf.jpg,stim_fb/posf.jpg,stim_02/f.jpg,stim_02/e.jpg,1,3,f,5,38,338,42,f,1,0.733091653854,02,01,60.0549023854,PLT_learning_02,N,2014_Feb_13_1309,P08,
stim_fb/ques.jpg,stim_fb/negf.jpg,stim_fb/posf.jpg,stim_02/c.jpg,stim_02/d.jpg,2,2,j,5,39,339,34,j,1,0.849786358801,02,01,60.0549023854,PLT_learning_02,N,2014_Feb_13_1309,P08,
stim_fb/ques.jpg,stim_fb/negf.jpg,stim_fb/posf.jpg,stim_02/d.jpg,stim_02/c.jpg,1,2,f,5,40,340,24,f,1,0.966420342628,02,01,60.0549023854,PLT_learning_02,N,2014_Feb_13_1309,P08,
stim_fb/ques.jpg,stim_fb/negf.jpg,stim_fb/posf.jpg,stim_02/b.jpg,stim_02/a.jpg,1,1,f,5,41,341,7,f,1,0.649800996229,02,01,60.0549023854,PLT_learning_02,N,2014_Feb_13_1309,P08,
stim_fb/ques.jpg,stim_fb/posf.jpg,stim_fb/negf.jpg,stim_02/d.jpg,stim_02/c.jpg,1,2,f,5,42,342,29,f,1,0.583194884268,02,01,60.0549023854,PLT_learning_02,N,2014_Feb_13_1309,P08,
stim_fb/ques.jpg,stim_fb/negf.jpg,stim_fb/posf.jpg,stim_02/a.jpg,stim_02/b.jpg,2,1,j,5,43,343,11,j,1,0.849765928956,02,01,60.0549023854,PLT_learning_02,N,2014_Feb_13_1309,P08,
stim_fb/ques.jpg,stim_fb/posf.jpg,stim_fb/negf.jpg,stim_02/c.jpg,stim_02/d.jpg,2,2,j,5,44,344,37,j,1,0.866400505257,02,01,60.0549023854,PLT_learning_02,N,2014_Feb_13_1309,P08,
stim_fb/ques.jpg,stim_fb/posf.jpg,stim_fb/negf.jpg,stim_02/e.jpg,stim_02/f.jpg,2,3,j,5,45,345,57,j,1,0.866454600888,02,01,60.0549023854,PLT_learning_02,N,2014_Feb_13_1309,P08,
stim_fb/ques.jpg,stim_fb/negf.jpg,stim_fb/posf.jpg,stim_02/a.jpg,stim_02/b.jpg,2,1,j,5,46,346,16,j,1,0.783096401168,02,01,60.0549023854,PLT_learning_02,N,2014_Feb_13_1309,P08,
stim_fb/ques.jpg,stim_fb/posf.jpg,stim_fb/negf.jpg,stim_02/e.jpg,stim_02/f.jpg,2,3,j,5,47,347,58,j,1,0.799772577001,02,01,60.0549023854,PLT_learning_02,N,2014_Feb_13_1309,P08,
stim_fb/ques.jpg,stim_fb/negf.jpg,stim_fb/posf.jpg,stim_02/b.jpg,stim_02/a.jpg,1,1,f,5,48,348,4,f,1,0.866414799833,02,01,60.0549023854,PLT_learning_02,N,2014_Feb_13_1309,P08,
stim_fb/ques.jpg,stim_fb/negf.jpg,stim_fb/posf.jpg,stim_02/c.jpg,stim_02/d.jpg,2,2,j,5,49,349,36,j,1,0.966390141465,02,01,60.0549023854,PLT_learning_02,N,2014_Feb_13_1309,P08,
stim_fb/ques.jpg,stim_fb/posf.jpg,stim_fb/negf.jpg,stim_02/a.jpg,stim_02/b.jpg,2,1,j,5,50,350,19,j,1,0.699873757815,02,01,60.0549023854,PLT_learning_02,N,2014_Feb_13_1309,P08,
stim_fb/ques.jpg,stim_fb/posf.jpg,stim_fb/negf.jpg,stim_02/c.jpg,stim_02/d.jpg,2,2,j,5,51,351,38,j,1,0.833119488126,02,01,60.0549023854,PLT_learning_02,N,2014_Feb_13_1309,P08,
stim_fb/ques.jpg,stim_fb/negf.jpg,stim_fb/posf.jpg,stim_02/e.jpg,stim_02/f.jpg,2,3,j,5,52,352,53,j,1,0.833116294177,02,01,60.0549023854,PLT_learning_02,N,2014_Feb_13_1309,P08,
stim_fb/ques.jpg,stim_fb/negf.jpg,stim_fb/posf.jpg,stim_02/b.jpg,stim_02/a.jpg,1,1,f,5,53,353,6,f,1,0.949699656019,02,01,60.0549023854,PLT_learning_02,N,2014_Feb_13_1309,P08,
stim_fb/ques.jpg,stim_fb/negf.jpg,stim_fb/posf.jpg,stim_02/e.jpg,stim_02/f.jpg,2,3,j,5,54,354,50,j,1,1.14962596662,02,01,60.0549023854,PLT_learning_02,N,2014_Feb_13_1309,P08,
stim_fb/ques.jpg,stim_fb/negf.jpg,stim_fb/posf.jpg,stim_02/b.jpg,stim_02/a.jpg,1,1,f,5,55,355,0,f,1,0.699804480401,02,01,60.0549023854,PLT_learning_02,N,2014_Feb_13_1309,P08,
stim_fb/ques.jpg,stim_fb/negf.jpg,stim_fb/posf.jpg,stim_02/e.jpg,stim_02/f.jpg,2,3,j,5,56,356,54,j,1,0.949747336684,02,01,60.0549023854,PLT_learning_02,N,2014_Feb_13_1309,P08,
stim_fb/ques.jpg,stim_fb/posf.jpg,stim_fb/negf.jpg,stim_02/f.jpg,stim_02/e.jpg,1,3,f,5,57,357,47,f,1,0.733103178536,02,01,60.0549023854,PLT_learning_02,N,2014_Feb_13_1309,P08,
stim_fb/ques.jpg,stim_fb/negf.jpg,stim_fb/posf.jpg,stim_02/f.jpg,stim_02/e.jpg,1,3,f,5,58,358,45,f,1,1.36631841897,02,01,60.0549023854,PLT_learning_02,N,2014_Feb_13_1309,P08,
stim_fb/ques.jpg,stim_fb/negf.jpg,stim_fb/posf.jpg,stim_02/d.jpg,stim_02/c.jpg,1,2,f,5,59,359,20,j,0,1.01636590565,02,01,60.0549023854,PLT_learning_02,N,2014_Feb_13_1309,P08,
