Fb3,Fb2,Fb1,Symbol2,Symbol1,PosCond,Pair,Correct,trials.thisRepN,trials.thisTrialN,trials.thisN,trials.thisIndex,Response.keys,Response.corr,Response.rt,Version,Session Number,frameRate,expName,StimCondition,date,Participant,
stim_fb/ques.jpg,stim_fb/negf.jpg,stim_fb/posf.jpg,stim_03/c.jpg,stim_03/d.jpg,2,2,j,0,0,0,30,f,0,1.11632137202,03,01,60.0197195337,PLT_learning_3,N,2014_Feb_25_1542,P09,
stim_fb/ques.jpg,stim_fb/posf.jpg,stim_fb/negf.jpg,stim_03/c.jpg,stim_03/d.jpg,2,2,j,0,1,1,39,f,0,1.04991098413,03,01,60.0197195337,PLT_learning_3,N,2014_Feb_25_1542,P09,
stim_fb/ques.jpg,stim_fb/negf.jpg,stim_fb/posf.jpg,stim_03/b.jpg,stim_03/a.jpg,1,1,f,0,2,2,0,j,0,0.949737794453,03,01,60.0197195337,PLT_learning_3,N,2014_Feb_25_1542,P09,
stim_fb/ques.jpg,stim_fb/negf.jpg,stim_fb/posf.jpg,stim_03/a.jpg,stim_03/b.jpg,2,1,j,0,3,3,12,f,0,0.93311742017,03,01,60.0197195337,PLT_learning_3,N,2014_Feb_25_1542,P09,
stim_fb/ques.jpg,stim_fb/negf.jpg,stim_fb/posf.jpg,stim_03/c.jpg,stim_03/d.jpg,2,2,j,0,4,4,32,f,0,1.48267050323,03,01,60.0197195337,PLT_learning_3,N,2014_Feb_25_1542,P09,
stim_fb/ques.jpg,stim_fb/negf.jpg,stim_fb/posf.jpg,stim_03/f.jpg,stim_03/e.jpg,1,3,f,0,5,5,41,j,0,1.34964495305,03,01,60.0197195337,PLT_learning_3,N,2014_Feb_25_1542,P09,
stim_fb/ques.jpg,stim_fb/negf.jpg,stim_fb/posf.jpg,stim_03/c.jpg,stim_03/d.jpg,2,2,j,0,6,6,35,j,1,1.16621213374,03,01,60.0197195337,PLT_learning_3,N,2014_Feb_25_1542,P09,
stim_fb/ques.jpg,stim_fb/posf.jpg,stim_fb/negf.jpg,stim_03/d.jpg,stim_03/c.jpg,1,2,f,0,7,7,27,f,1,0.916400938339,03,01,60.0197195337,PLT_learning_3,N,2014_Feb_25_1542,P09,
stim_fb/ques.jpg,stim_fb/negf.jpg,stim_fb/posf.jpg,stim_03/b.jpg,stim_03/a.jpg,1,1,f,0,8,8,7,f,1,1.19964459215,03,01,60.0197195337,PLT_learning_3,N,2014_Feb_25_1542,P09,
stim_fb/ques.jpg,stim_fb/negf.jpg,stim_fb/posf.jpg,stim_03/b.jpg,stim_03/a.jpg,1,1,f,0,9,9,1,f,1,1.01639822558,03,01,60.0197195337,PLT_learning_3,N,2014_Feb_25_1542,P09,
stim_fb/ques.jpg,stim_fb/posf.jpg,stim_fb/negf.jpg,stim_03/f.jpg,stim_03/e.jpg,1,3,f,0,10,10,47,f,1,1.11634423501,03,01,60.0197195337,PLT_learning_3,N,2014_Feb_25_1542,P09,
stim_fb/ques.jpg,stim_fb/negf.jpg,stim_fb/posf.jpg,stim_03/b.jpg,stim_03/a.jpg,1,1,f,0,11,11,6,None,0,,03,01,60.0197195337,PLT_learning_3,N,2014_Feb_25_1542,P09,
stim_fb/ques.jpg,stim_fb/negf.jpg,stim_fb/posf.jpg,stim_03/e.jpg,stim_03/f.jpg,2,3,j,0,12,12,52,f,0,0.966387028669,03,01,60.0197195337,PLT_learning_3,N,2014_Feb_25_1542,P09,
stim_fb/ques.jpg,stim_fb/negf.jpg,stim_fb/posf.jpg,stim_03/b.jpg,stim_03/a.jpg,1,1,f,0,13,13,3,j,0,1.28298035052,03,01,60.0197195337,PLT_learning_3,N,2014_Feb_25_1542,P09,
stim_fb/ques.jpg,stim_fb/negf.jpg,stim_fb/posf.jpg,stim_03/e.jpg,stim_03/f.jpg,2,3,j,0,14,14,55,f,0,0.566520230675,03,01,60.0197195337,PLT_learning_3,N,2014_Feb_25_1542,P09,
stim_fb/ques.jpg,stim_fb/negf.jpg,stim_fb/posf.jpg,stim_03/c.jpg,stim_03/d.jpg,2,2,j,0,15,15,33,j,1,1.38272118555,03,01,60.0197195337,PLT_learning_3,N,2014_Feb_25_1542,P09,
stim_fb/ques.jpg,stim_fb/negf.jpg,stim_fb/posf.jpg,stim_03/a.jpg,stim_03/b.jpg,2,1,j,0,16,16,17,j,1,1.24962658025,03,01,60.0197195337,PLT_learning_3,N,2014_Feb_25_1542,P09,
stim_fb/ques.jpg,stim_fb/negf.jpg,stim_fb/posf.jpg,stim_03/d.jpg,stim_03/c.jpg,1,2,f,0,17,17,21,j,0,1.34960609319,03,01,60.0197195337,PLT_learning_3,N,2014_Feb_25_1542,P09,
stim_fb/ques.jpg,stim_fb/negf.jpg,stim_fb/posf.jpg,stim_03/c.jpg,stim_03/d.jpg,2,2,j,0,18,18,36,f,0,0.499863029601,03,01,60.0197195337,PLT_learning_3,N,2014_Feb_25_1542,P09,
stim_fb/ques.jpg,stim_fb/negf.jpg,stim_fb/posf.jpg,stim_03/a.jpg,stim_03/b.jpg,2,1,j,0,19,19,13,f,0,1.18293200201,03,01,60.0197195337,PLT_learning_3,N,2014_Feb_25_1542,P09,
stim_fb/ques.jpg,stim_fb/posf.jpg,stim_fb/negf.jpg,stim_03/c.jpg,stim_03/d.jpg,2,2,j,0,20,20,38,j,1,1.29961979534,03,01,60.0197195337,PLT_learning_3,N,2014_Feb_25_1542,P09,
stim_fb/ques.jpg,stim_fb/posf.jpg,stim_fb/negf.jpg,stim_03/a.jpg,stim_03/b.jpg,2,1,j,0,21,21,19,f,0,1.23297637161,03,01,60.0197195337,PLT_learning_3,N,2014_Feb_25_1542,P09,
stim_fb/ques.jpg,stim_fb/posf.jpg,stim_fb/negf.jpg,stim_03/b.jpg,stim_03/a.jpg,1,1,f,0,22,22,8,f,1,1.41629417222,03,01,60.0197195337,PLT_learning_3,N,2014_Feb_25_1542,P09,
stim_fb/ques.jpg,stim_fb/negf.jpg,stim_fb/posf.jpg,stim_03/f.jpg,stim_03/e.jpg,1,3,f,0,23,23,40,f,1,1.29961784047,03,01,60.0197195337,PLT_learning_3,N,2014_Feb_25_1542,P09,
stim_fb/ques.jpg,stim_fb/negf.jpg,stim_fb/posf.jpg,stim_03/c.jpg,stim_03/d.jpg,2,2,j,0,24,24,31,j,1,1.01636631304,03,01,60.0197195337,PLT_learning_3,N,2014_Feb_25_1542,P09,
stim_fb/ques.jpg,stim_fb/negf.jpg,stim_fb/posf.jpg,stim_03/d.jpg,stim_03/c.jpg,1,2,f,0,25,25,24,f,1,1.46624035609,03,01,60.0197195337,PLT_learning_3,N,2014_Feb_25_1542,P09,
stim_fb/ques.jpg,stim_fb/negf.jpg,stim_fb/posf.jpg,stim_03/b.jpg,stim_03/a.jpg,1,1,f,0,26,26,4,j,0,1.54954861994,03,01,60.0197195337,PLT_learning_3,N,2014_Feb_25_1542,P09,
stim_fb/ques.jpg,stim_fb/negf.jpg,stim_fb/posf.jpg,stim_03/f.jpg,stim_03/e.jpg,1,3,f,0,27,27,43,f,1,1.21628378433,03,01,60.0197195337,PLT_learning_3,N,2014_Feb_25_1542,P09,
stim_fb/ques.jpg,stim_fb/posf.jpg,stim_fb/negf.jpg,stim_03/c.jpg,stim_03/d.jpg,2,2,j,0,28,28,37,j,1,0.999737114759,03,01,60.0197195337,PLT_learning_3,N,2014_Feb_25_1542,P09,
stim_fb/ques.jpg,stim_fb/negf.jpg,stim_fb/posf.jpg,stim_03/f.jpg,stim_03/e.jpg,1,3,f,0,29,29,44,f,1,0.683169350606,03,01,60.0197195337,PLT_learning_3,N,2014_Feb_25_1542,P09,
stim_fb/ques.jpg,stim_fb/negf.jpg,stim_fb/posf.jpg,stim_03/e.jpg,stim_03/f.jpg,2,3,j,0,30,30,53,j,1,0.966414222449,03,01,60.0197195337,PLT_learning_3,N,2014_Feb_25_1542,P09,
stim_fb/ques.jpg,stim_fb/negf.jpg,stim_fb/posf.jpg,stim_03/d.jpg,stim_03/c.jpg,1,2,f,0,31,31,20,f,1,1.19973709371,03,01,60.0197195337,PLT_learning_3,N,2014_Feb_25_1542,P09,
stim_fb/ques.jpg,stim_fb/negf.jpg,stim_fb/posf.jpg,stim_03/c.jpg,stim_03/d.jpg,2,2,j,0,32,32,34,f,0,1.09967214382,03,01,60.0197195337,PLT_learning_3,N,2014_Feb_25_1542,P09,
stim_fb/ques.jpg,stim_fb/posf.jpg,stim_fb/negf.jpg,stim_03/e.jpg,stim_03/f.jpg,2,3,j,0,33,33,56,j,1,0.533156848445,03,01,60.0197195337,PLT_learning_3,N,2014_Feb_25_1542,P09,
stim_fb/ques.jpg,stim_fb/negf.jpg,stim_fb/posf.jpg,stim_03/e.jpg,stim_03/f.jpg,2,3,j,0,34,34,51,f,0,0.466577577612,03,01,60.0197195337,PLT_learning_3,N,2014_Feb_25_1542,P09,
stim_fb/ques.jpg,stim_fb/negf.jpg,stim_fb/posf.jpg,stim_03/f.jpg,stim_03/e.jpg,1,3,f,0,35,35,45,f,1,0.849779920452,03,01,60.0197195337,PLT_learning_3,N,2014_Feb_25_1542,P09,
stim_fb/ques.jpg,stim_fb/negf.jpg,stim_fb/posf.jpg,stim_03/b.jpg,stim_03/a.jpg,1,1,f,0,36,36,5,f,1,0.949743580875,03,01,60.0197195337,PLT_learning_3,N,2014_Feb_25_1542,P09,
stim_fb/ques.jpg,stim_fb/negf.jpg,stim_fb/posf.jpg,stim_03/a.jpg,stim_03/b.jpg,2,1,j,0,37,37,14,f,0,0.649764609289,03,01,60.0197195337,PLT_learning_3,N,2014_Feb_25_1542,P09,
stim_fb/ques.jpg,stim_fb/negf.jpg,stim_fb/posf.jpg,stim_03/e.jpg,stim_03/f.jpg,2,3,j,0,38,38,50,j,1,0.916420063007,03,01,60.0197195337,PLT_learning_3,N,2014_Feb_25_1542,P09,
stim_fb/ques.jpg,stim_fb/posf.jpg,stim_fb/negf.jpg,stim_03/f.jpg,stim_03/e.jpg,1,3,f,0,39,39,49,f,1,0.84978322569,03,01,60.0197195337,PLT_learning_3,N,2014_Feb_25_1542,P09,
stim_fb/ques.jpg,stim_fb/posf.jpg,stim_fb/negf.jpg,stim_03/a.jpg,stim_03/b.jpg,2,1,j,0,40,40,18,f,0,0.816445975594,03,01,60.0197195337,PLT_learning_3,N,2014_Feb_25_1542,P09,
stim_fb/ques.jpg,stim_fb/negf.jpg,stim_fb/posf.jpg,stim_03/a.jpg,stim_03/b.jpg,2,1,j,0,41,41,15,f,0,0.749804915753,03,01,60.0197195337,PLT_learning_3,N,2014_Feb_25_1542,P09,
stim_fb/ques.jpg,stim_fb/negf.jpg,stim_fb/posf.jpg,stim_03/a.jpg,stim_03/b.jpg,2,1,j,0,42,42,10,f,0,0.816496624837,03,01,60.0197195337,PLT_learning_3,N,2014_Feb_25_1542,P09,
stim_fb/ques.jpg,stim_fb/negf.jpg,stim_fb/posf.jpg,stim_03/a.jpg,stim_03/b.jpg,2,1,j,0,43,43,16,j,1,0.683204102225,03,01,60.0197195337,PLT_learning_3,N,2014_Feb_25_1542,P09,
stim_fb/ques.jpg,stim_fb/posf.jpg,stim_fb/negf.jpg,stim_03/b.jpg,stim_03/a.jpg,1,1,f,0,44,44,9,j,0,0.799797246637,03,01,60.0197195337,PLT_learning_3,N,2014_Feb_25_1542,P09,
stim_fb/ques.jpg,stim_fb/negf.jpg,stim_fb/posf.jpg,stim_03/e.jpg,stim_03/f.jpg,2,3,j,0,45,45,54,j,1,0.949849005647,03,01,60.0197195337,PLT_learning_3,N,2014_Feb_25_1542,P09,
stim_fb/ques.jpg,stim_fb/negf.jpg,stim_fb/posf.jpg,stim_03/d.jpg,stim_03/c.jpg,1,2,f,0,46,46,26,f,1,1.34961680589,03,01,60.0197195337,PLT_learning_3,N,2014_Feb_25_1542,P09,
stim_fb/ques.jpg,stim_fb/negf.jpg,stim_fb/posf.jpg,stim_03/a.jpg,stim_03/b.jpg,2,1,j,0,47,47,11,f,0,0.866379777596,03,01,60.0197195337,PLT_learning_3,N,2014_Feb_25_1542,P09,
stim_fb/ques.jpg,stim_fb/negf.jpg,stim_fb/posf.jpg,stim_03/d.jpg,stim_03/c.jpg,1,2,f,0,48,48,23,f,1,1.11644844776,03,01,60.0197195337,PLT_learning_3,N,2014_Feb_25_1542,P09,
stim_fb/ques.jpg,stim_fb/negf.jpg,stim_fb/posf.jpg,stim_03/b.jpg,stim_03/a.jpg,1,1,f,0,49,49,2,j,0,0.983055041691,03,01,60.0197195337,PLT_learning_3,N,2014_Feb_25_1542,P09,
stim_fb/ques.jpg,stim_fb/posf.jpg,stim_fb/negf.jpg,stim_03/e.jpg,stim_03/f.jpg,2,3,j,0,50,50,59,j,1,1.04967407764,03,01,60.0197195337,PLT_learning_3,N,2014_Feb_25_1542,P09,
stim_fb/ques.jpg,stim_fb/negf.jpg,stim_fb/posf.jpg,stim_03/d.jpg,stim_03/c.jpg,1,2,f,0,51,51,22,f,1,0.816477349794,03,01,60.0197195337,PLT_learning_3,N,2014_Feb_25_1542,P09,
stim_fb/ques.jpg,stim_fb/negf.jpg,stim_fb/posf.jpg,stim_03/d.jpg,stim_03/c.jpg,1,2,f,0,52,52,25,j,0,0.833041823746,03,01,60.0197195337,PLT_learning_3,N,2014_Feb_25_1542,P09,
stim_fb/ques.jpg,stim_fb/posf.jpg,stim_fb/negf.jpg,stim_03/f.jpg,stim_03/e.jpg,1,3,f,0,53,53,46,f,1,0.86644958459,03,01,60.0197195337,PLT_learning_3,N,2014_Feb_25_1542,P09,
stim_fb/ques.jpg,stim_fb/posf.jpg,stim_fb/negf.jpg,stim_03/f.jpg,stim_03/e.jpg,1,3,f,0,54,54,48,f,1,0.64984411245,03,01,60.0197195337,PLT_learning_3,N,2014_Feb_25_1542,P09,
stim_fb/ques.jpg,stim_fb/posf.jpg,stim_fb/negf.jpg,stim_03/e.jpg,stim_03/f.jpg,2,3,j,0,55,55,57,j,1,0.783140015489,03,01,60.0197195337,PLT_learning_3,N,2014_Feb_25_1542,P09,
stim_fb/ques.jpg,stim_fb/posf.jpg,stim_fb/negf.jpg,stim_03/e.jpg,stim_03/f.jpg,2,3,j,0,56,56,58,j,1,1.06643173209,03,01,60.0197195337,PLT_learning_3,N,2014_Feb_25_1542,P09,
stim_fb/ques.jpg,stim_fb/posf.jpg,stim_fb/negf.jpg,stim_03/d.jpg,stim_03/c.jpg,1,2,f,0,57,57,28,f,1,0.399919660754,03,01,60.0197195337,PLT_learning_3,N,2014_Feb_25_1542,P09,
stim_fb/ques.jpg,stim_fb/negf.jpg,stim_fb/posf.jpg,stim_03/f.jpg,stim_03/e.jpg,1,3,f,0,58,58,42,j,0,0.966401130819,03,01,60.0197195337,PLT_learning_3,N,2014_Feb_25_1542,P09,
stim_fb/ques.jpg,stim_fb/posf.jpg,stim_fb/negf.jpg,stim_03/d.jpg,stim_03/c.jpg,1,2,f,0,59,59,29,f,1,0.999636953106,03,01,60.0197195337,PLT_learning_3,N,2014_Feb_25_1542,P09,
stim_fb/ques.jpg,stim_fb/posf.jpg,stim_fb/negf.jpg,stim_03/b.jpg,stim_03/a.jpg,1,1,f,1,0,60,9,f,1,0.649871050594,03,01,60.0197195337,PLT_learning_3,N,2014_Feb_25_1542,P09,
stim_fb/ques.jpg,stim_fb/negf.jpg,stim_fb/posf.jpg,stim_03/a.jpg,stim_03/b.jpg,2,1,j,1,1,61,14,f,0,0.86642563289,03,01,60.0197195337,PLT_learning_3,N,2014_Feb_25_1542,P09,
stim_fb/ques.jpg,stim_fb/negf.jpg,stim_fb/posf.jpg,stim_03/b.jpg,stim_03/a.jpg,1,1,f,1,2,62,4,f,1,0.399946902655,03,01,60.0197195337,PLT_learning_3,N,2014_Feb_25_1542,P09,
stim_fb/ques.jpg,stim_fb/negf.jpg,stim_fb/posf.jpg,stim_03/e.jpg,stim_03/f.jpg,2,3,j,1,3,63,52,j,1,0.666529755415,03,01,60.0197195337,PLT_learning_3,N,2014_Feb_25_1542,P09,
stim_fb/ques.jpg,stim_fb/negf.jpg,stim_fb/posf.jpg,stim_03/a.jpg,stim_03/b.jpg,2,1,j,1,4,64,13,f,0,0.633187362501,03,01,60.0197195337,PLT_learning_3,N,2014_Feb_25_1542,P09,
stim_fb/ques.jpg,stim_fb/negf.jpg,stim_fb/posf.jpg,stim_03/a.jpg,stim_03/b.jpg,2,1,j,1,5,65,17,j,1,0.383187022654,03,01,60.0197195337,PLT_learning_3,N,2014_Feb_25_1542,P09,
stim_fb/ques.jpg,stim_fb/negf.jpg,stim_fb/posf.jpg,stim_03/a.jpg,stim_03/b.jpg,2,1,j,1,6,66,11,j,1,0.450005079661,03,01,60.0197195337,PLT_learning_3,N,2014_Feb_25_1542,P09,
stim_fb/ques.jpg,stim_fb/negf.jpg,stim_fb/posf.jpg,stim_03/b.jpg,stim_03/a.jpg,1,1,f,1,7,67,7,f,1,0.533287334682,03,01,60.0197195337,PLT_learning_3,N,2014_Feb_25_1542,P09,
stim_fb/ques.jpg,stim_fb/negf.jpg,stim_fb/posf.jpg,stim_03/a.jpg,stim_03/b.jpg,2,1,j,1,8,68,12,j,1,0.433250414658,03,01,60.0197195337,PLT_learning_3,N,2014_Feb_25_1542,P09,
stim_fb/ques.jpg,stim_fb/negf.jpg,stim_fb/posf.jpg,stim_03/d.jpg,stim_03/c.jpg,1,2,f,1,9,69,20,f,1,0.399753683055,03,01,60.0197195337,PLT_learning_3,N,2014_Feb_25_1542,P09,
stim_fb/ques.jpg,stim_fb/negf.jpg,stim_fb/posf.jpg,stim_03/c.jpg,stim_03/d.jpg,2,2,j,1,10,70,31,j,1,0.416588176029,03,01,60.0197195337,PLT_learning_3,N,2014_Feb_25_1542,P09,
stim_fb/ques.jpg,stim_fb/negf.jpg,stim_fb/posf.jpg,stim_03/b.jpg,stim_03/a.jpg,1,1,f,1,11,71,3,f,1,0.29985217254,03,01,60.0197195337,PLT_learning_3,N,2014_Feb_25_1542,P09,
stim_fb/ques.jpg,stim_fb/posf.jpg,stim_fb/negf.jpg,stim_03/f.jpg,stim_03/e.jpg,1,3,f,1,12,72,46,f,1,0.566468528808,03,01,60.0197195337,PLT_learning_3,N,2014_Feb_25_1542,P09,
stim_fb/ques.jpg,stim_fb/negf.jpg,stim_fb/posf.jpg,stim_03/d.jpg,stim_03/c.jpg,1,2,f,1,13,73,22,j,0,0.499887808362,03,01,60.0197195337,PLT_learning_3,N,2014_Feb_25_1542,P09,
stim_fb/ques.jpg,stim_fb/negf.jpg,stim_fb/posf.jpg,stim_03/f.jpg,stim_03/e.jpg,1,3,f,1,14,74,40,f,1,0.633265650634,03,01,60.0197195337,PLT_learning_3,N,2014_Feb_25_1542,P09,
stim_fb/ques.jpg,stim_fb/posf.jpg,stim_fb/negf.jpg,stim_03/c.jpg,stim_03/d.jpg,2,2,j,1,15,75,38,f,0,0.716407933775,03,01,60.0197195337,PLT_learning_3,N,2014_Feb_25_1542,P09,
stim_fb/ques.jpg,stim_fb/negf.jpg,stim_fb/posf.jpg,stim_03/e.jpg,stim_03/f.jpg,2,3,j,1,16,76,51,f,0,0.583048762039,03,01,60.0197195337,PLT_learning_3,N,2014_Feb_25_1542,P09,
stim_fb/ques.jpg,stim_fb/posf.jpg,stim_fb/negf.jpg,stim_03/d.jpg,stim_03/c.jpg,1,2,f,1,17,77,28,f,1,0.299869688198,03,01,60.0197195337,PLT_learning_3,N,2014_Feb_25_1542,P09,
stim_fb/ques.jpg,stim_fb/posf.jpg,stim_fb/negf.jpg,stim_03/e.jpg,stim_03/f.jpg,2,3,j,1,18,78,56,f,0,0.599915760032,03,01,60.0197195337,PLT_learning_3,N,2014_Feb_25_1542,P09,
stim_fb/ques.jpg,stim_fb/negf.jpg,stim_fb/posf.jpg,stim_03/c.jpg,stim_03/d.jpg,2,2,j,1,19,79,36,j,1,0.433356329652,03,01,60.0197195337,PLT_learning_3,N,2014_Feb_25_1542,P09,
stim_fb/ques.jpg,stim_fb/negf.jpg,stim_fb/posf.jpg,stim_03/b.jpg,stim_03/a.jpg,1,1,f,1,20,80,1,f,1,0.249957549191,03,01,60.0197195337,PLT_learning_3,N,2014_Feb_25_1542,P09,
stim_fb/ques.jpg,stim_fb/negf.jpg,stim_fb/posf.jpg,stim_03/f.jpg,stim_03/e.jpg,1,3,f,1,21,81,44,j,0,0.249983356516,03,01,60.0197195337,PLT_learning_3,N,2014_Feb_25_1542,P09,
stim_fb/ques.jpg,stim_fb/negf.jpg,stim_fb/posf.jpg,stim_03/c.jpg,stim_03/d.jpg,2,2,j,1,22,82,34,j,1,0.28339488876,03,01,60.0197195337,PLT_learning_3,N,2014_Feb_25_1542,P09,
stim_fb/ques.jpg,stim_fb/negf.jpg,stim_fb/posf.jpg,stim_03/a.jpg,stim_03/b.jpg,2,1,j,1,23,83,16,f,0,0.266641739536,03,01,60.0197195337,PLT_learning_3,N,2014_Feb_25_1542,P09,
stim_fb/ques.jpg,stim_fb/negf.jpg,stim_fb/posf.jpg,stim_03/e.jpg,stim_03/f.jpg,2,3,j,1,24,84,54,j,1,0.316530991496,03,01,60.0197195337,PLT_learning_3,N,2014_Feb_25_1542,P09,
stim_fb/ques.jpg,stim_fb/negf.jpg,stim_fb/posf.jpg,stim_03/d.jpg,stim_03/c.jpg,1,2,f,1,25,85,26,f,1,0.433247810167,03,01,60.0197195337,PLT_learning_3,N,2014_Feb_25_1542,P09,
stim_fb/ques.jpg,stim_fb/negf.jpg,stim_fb/posf.jpg,stim_03/e.jpg,stim_03/f.jpg,2,3,j,1,26,86,53,j,1,0.350040300449,03,01,60.0197195337,PLT_learning_3,N,2014_Feb_25_1542,P09,
stim_fb/ques.jpg,stim_fb/negf.jpg,stim_fb/posf.jpg,stim_03/a.jpg,stim_03/b.jpg,2,1,j,1,27,87,10,None,0,,03,01,60.0197195337,PLT_learning_3,N,2014_Feb_25_1542,P09,
stim_fb/ques.jpg,stim_fb/posf.jpg,stim_fb/negf.jpg,stim_03/b.jpg,stim_03/a.jpg,1,1,f,1,28,88,8,f,1,0.300043449297,03,01,60.0197195337,PLT_learning_3,N,2014_Feb_25_1542,P09,
stim_fb/ques.jpg,stim_fb/posf.jpg,stim_fb/negf.jpg,stim_03/e.jpg,stim_03/f.jpg,2,3,j,1,29,89,59,j,1,0.250056456718,03,01,60.0197195337,PLT_learning_3,N,2014_Feb_25_1542,P09,
stim_fb/ques.jpg,stim_fb/negf.jpg,stim_fb/posf.jpg,stim_03/b.jpg,stim_03/a.jpg,1,1,f,1,30,90,6,f,1,0.283367523552,03,01,60.0197195337,PLT_learning_3,N,2014_Feb_25_1542,P09,
stim_fb/ques.jpg,stim_fb/negf.jpg,stim_fb/posf.jpg,stim_03/c.jpg,stim_03/d.jpg,2,2,j,1,31,91,32,j,1,0.533217359268,03,01,60.0197195337,PLT_learning_3,N,2014_Feb_25_1542,P09,
stim_fb/ques.jpg,stim_fb/negf.jpg,stim_fb/posf.jpg,stim_03/f.jpg,stim_03/e.jpg,1,3,f,1,32,92,45,f,1,0.316643432756,03,01,60.0197195337,PLT_learning_3,N,2014_Feb_25_1542,P09,
stim_fb/ques.jpg,stim_fb/negf.jpg,stim_fb/posf.jpg,stim_03/e.jpg,stim_03/f.jpg,2,3,j,1,33,93,50,j,1,0.249891814347,03,01,60.0197195337,PLT_learning_3,N,2014_Feb_25_1542,P09,
stim_fb/ques.jpg,stim_fb/negf.jpg,stim_fb/posf.jpg,stim_03/b.jpg,stim_03/a.jpg,1,1,f,1,34,94,0,f,1,0.283274546808,03,01,60.0197195337,PLT_learning_3,N,2014_Feb_25_1542,P09,
stim_fb/ques.jpg,stim_fb/posf.jpg,stim_fb/negf.jpg,stim_03/d.jpg,stim_03/c.jpg,1,2,f,1,35,95,29,j,0,0.283395839129,03,01,60.0197195337,PLT_learning_3,N,2014_Feb_25_1542,P09,
stim_fb/ques.jpg,stim_fb/negf.jpg,stim_fb/posf.jpg,stim_03/a.jpg,stim_03/b.jpg,2,1,j,1,36,96,15,f,0,0.283299945113,03,01,60.0197195337,PLT_learning_3,N,2014_Feb_25_1542,P09,
stim_fb/ques.jpg,stim_fb/negf.jpg,stim_fb/posf.jpg,stim_03/b.jpg,stim_03/a.jpg,1,1,f,1,37,97,5,f,1,1.04974618537,03,01,60.0197195337,PLT_learning_3,N,2014_Feb_25_1542,P09,
stim_fb/ques.jpg,stim_fb/negf.jpg,stim_fb/posf.jpg,stim_03/f.jpg,stim_03/e.jpg,1,3,f,1,38,98,42,j,0,0.266643390651,03,01,60.0197195337,PLT_learning_3,N,2014_Feb_25_1542,P09,
stim_fb/ques.jpg,stim_fb/posf.jpg,stim_fb/negf.jpg,stim_03/a.jpg,stim_03/b.jpg,2,1,j,1,39,99,18,j,1,0.383273761851,03,01,60.0197195337,PLT_learning_3,N,2014_Feb_25_1542,P09,
stim_fb/ques.jpg,stim_fb/negf.jpg,stim_fb/posf.jpg,stim_03/c.jpg,stim_03/d.jpg,2,2,j,1,40,100,35,j,1,0.783242321486,03,01,60.0197195337,PLT_learning_3,N,2014_Feb_25_1542,P09,
stim_fb/ques.jpg,stim_fb/negf.jpg,stim_fb/posf.jpg,stim_03/f.jpg,stim_03/e.jpg,1,3,f,1,41,101,41,f,1,0.749890656461,03,01,60.0197195337,PLT_learning_3,N,2014_Feb_25_1542,P09,
stim_fb/ques.jpg,stim_fb/posf.jpg,stim_fb/negf.jpg,stim_03/e.jpg,stim_03/f.jpg,2,3,j,1,42,102,57,j,1,0.816464558913,03,01,60.0197195337,PLT_learning_3,N,2014_Feb_25_1542,P09,
stim_fb/ques.jpg,stim_fb/posf.jpg,stim_fb/negf.jpg,stim_03/f.jpg,stim_03/e.jpg,1,3,f,1,43,103,48,f,1,0.349944439516,03,01,60.0197195337,PLT_learning_3,N,2014_Feb_25_1542,P09,
stim_fb/ques.jpg,stim_fb/posf.jpg,stim_fb/negf.jpg,stim_03/c.jpg,stim_03/d.jpg,2,2,j,1,44,104,37,j,1,0.333353719145,03,01,60.0197195337,PLT_learning_3,N,2014_Feb_25_1542,P09,
stim_fb/ques.jpg,stim_fb/negf.jpg,stim_fb/posf.jpg,stim_03/d.jpg,stim_03/c.jpg,1,2,f,1,45,105,24,f,1,0.449838987677,03,01,60.0197195337,PLT_learning_3,N,2014_Feb_25_1542,P09,
stim_fb/ques.jpg,stim_fb/posf.jpg,stim_fb/negf.jpg,stim_03/f.jpg,stim_03/e.jpg,1,3,f,1,46,106,47,j,0,0.516548856024,03,01,60.0197195337,PLT_learning_3,N,2014_Feb_25_1542,P09,
stim_fb/ques.jpg,stim_fb/negf.jpg,stim_fb/posf.jpg,stim_03/d.jpg,stim_03/c.jpg,1,2,f,1,47,107,25,f,1,0.366587649717,03,01,60.0197195337,PLT_learning_3,N,2014_Feb_25_1542,P09,
stim_fb/ques.jpg,stim_fb/posf.jpg,stim_fb/negf.jpg,stim_03/c.jpg,stim_03/d.jpg,2,2,j,1,48,108,39,j,1,0.283299048879,03,01,60.0197195337,PLT_learning_3,N,2014_Feb_25_1542,P09,
stim_fb/ques.jpg,stim_fb/negf.jpg,stim_fb/posf.jpg,stim_03/b.jpg,stim_03/a.jpg,1,1,f,1,49,109,2,f,1,0.316639935038,03,01,60.0197195337,PLT_learning_3,N,2014_Feb_25_1542,P09,
stim_fb/ques.jpg,stim_fb/negf.jpg,stim_fb/posf.jpg,stim_03/c.jpg,stim_03/d.jpg,2,2,j,1,50,110,30,j,1,0.366585358005,03,01,60.0197195337,PLT_learning_3,N,2014_Feb_25_1542,P09,
stim_fb/ques.jpg,stim_fb/negf.jpg,stim_fb/posf.jpg,stim_03/e.jpg,stim_03/f.jpg,2,3,j,1,51,111,55,f,0,0.333268276178,03,01,60.0197195337,PLT_learning_3,N,2014_Feb_25_1542,P09,
stim_fb/ques.jpg,stim_fb/posf.jpg,stim_fb/negf.jpg,stim_03/d.jpg,stim_03/c.jpg,1,2,f,1,52,112,27,j,0,0.28329689852,03,01,60.0197195337,PLT_learning_3,N,2014_Feb_25_1542,P09,
stim_fb/ques.jpg,stim_fb/posf.jpg,stim_fb/negf.jpg,stim_03/a.jpg,stim_03/b.jpg,2,1,j,1,53,113,19,f,0,0.299951353749,03,01,60.0197195337,PLT_learning_3,N,2014_Feb_25_1542,P09,
stim_fb/ques.jpg,stim_fb/negf.jpg,stim_fb/posf.jpg,stim_03/d.jpg,stim_03/c.jpg,1,2,f,1,54,114,21,j,0,0.316600885708,03,01,60.0197195337,PLT_learning_3,N,2014_Feb_25_1542,P09,
stim_fb/ques.jpg,stim_fb/negf.jpg,stim_fb/posf.jpg,stim_03/c.jpg,stim_03/d.jpg,2,2,j,1,55,115,33,f,0,0.100070594958,03,01,60.0197195337,PLT_learning_3,N,2014_Feb_25_1542,P09,
stim_fb/ques.jpg,stim_fb/posf.jpg,stim_fb/negf.jpg,stim_03/f.jpg,stim_03/e.jpg,1,3,f,1,56,116,49,j,0,0.466554507109,03,01,60.0197195337,PLT_learning_3,N,2014_Feb_25_1542,P09,
stim_fb/ques.jpg,stim_fb/posf.jpg,stim_fb/negf.jpg,stim_03/e.jpg,stim_03/f.jpg,2,3,j,1,57,117,58,j,1,0.316607228517,03,01,60.0197195337,PLT_learning_3,N,2014_Feb_25_1542,P09,
stim_fb/ques.jpg,stim_fb/negf.jpg,stim_fb/posf.jpg,stim_03/f.jpg,stim_03/e.jpg,1,3,f,1,58,118,43,j,0,0.283253265765,03,01,60.0197195337,PLT_learning_3,N,2014_Feb_25_1542,P09,
stim_fb/ques.jpg,stim_fb/negf.jpg,stim_fb/posf.jpg,stim_03/d.jpg,stim_03/c.jpg,1,2,f,1,59,119,23,j,0,0.283285644469,03,01,60.0197195337,PLT_learning_3,N,2014_Feb_25_1542,P09,
stim_fb/ques.jpg,stim_fb/posf.jpg,stim_fb/negf.jpg,stim_03/f.jpg,stim_03/e.jpg,1,3,f,2,0,120,46,j,0,1.01633212683,03,01,60.0197195337,PLT_learning_3,N,2014_Feb_25_1542,P09,
stim_fb/ques.jpg,stim_fb/negf.jpg,stim_fb/posf.jpg,stim_03/e.jpg,stim_03/f.jpg,2,3,j,2,1,121,55,f,0,0.383159200307,03,01,60.0197195337,PLT_learning_3,N,2014_Feb_25_1542,P09,
stim_fb/ques.jpg,stim_fb/posf.jpg,stim_fb/negf.jpg,stim_03/e.jpg,stim_03/f.jpg,2,3,j,2,2,122,57,j,1,0.283288907602,03,01,60.0197195337,PLT_learning_3,N,2014_Feb_25_1542,P09,
stim_fb/ques.jpg,stim_fb/negf.jpg,stim_fb/posf.jpg,stim_03/c.jpg,stim_03/d.jpg,2,2,j,2,3,123,30,j,1,0.0833365343117,03,01,60.0197195337,PLT_learning_3,N,2014_Feb_25_1542,P09,
stim_fb/ques.jpg,stim_fb/negf.jpg,stim_fb/posf.jpg,stim_03/a.jpg,stim_03/b.jpg,2,1,j,2,4,124,16,j,1,0.266618723168,03,01,60.0197195337,PLT_learning_3,N,2014_Feb_25_1542,P09,
stim_fb/ques.jpg,stim_fb/negf.jpg,stim_fb/posf.jpg,stim_03/e.jpg,stim_03/f.jpg,2,3,j,2,5,125,54,f,0,0.150014724701,03,01,60.0197195337,PLT_learning_3,N,2014_Feb_25_1542,P09,
stim_fb/ques.jpg,stim_fb/posf.jpg,stim_fb/negf.jpg,stim_03/e.jpg,stim_03/f.jpg,2,3,j,2,6,126,58,j,1,0.250044150044,03,01,60.0197195337,PLT_learning_3,N,2014_Feb_25_1542,P09,
stim_fb/ques.jpg,stim_fb/negf.jpg,stim_fb/posf.jpg,stim_03/f.jpg,stim_03/e.jpg,1,3,f,2,7,127,42,j,0,0.683174890414,03,01,60.0197195337,PLT_learning_3,N,2014_Feb_25_1542,P09,
stim_fb/ques.jpg,stim_fb/negf.jpg,stim_fb/posf.jpg,stim_03/a.jpg,stim_03/b.jpg,2,1,j,2,8,128,10,f,0,0.333275476124,03,01,60.0197195337,PLT_learning_3,N,2014_Feb_25_1542,P09,
stim_fb/ques.jpg,stim_fb/negf.jpg,stim_fb/posf.jpg,stim_03/d.jpg,stim_03/c.jpg,1,2,f,2,9,129,21,j,0,0.299991037661,03,01,60.0197195337,PLT_learning_3,N,2014_Feb_25_1542,P09,
stim_fb/ques.jpg,stim_fb/negf.jpg,stim_fb/posf.jpg,stim_03/e.jpg,stim_03/f.jpg,2,3,j,2,10,130,51,j,1,0.84991528184,03,01,60.0197195337,PLT_learning_3,N,2014_Feb_25_1542,P09,
stim_fb/ques.jpg,stim_fb/negf.jpg,stim_fb/posf.jpg,stim_03/b.jpg,stim_03/a.jpg,1,1,f,2,11,131,2,f,1,0.716428150164,03,01,60.0197195337,PLT_learning_3,N,2014_Feb_25_1542,P09,
stim_fb/ques.jpg,stim_fb/posf.jpg,stim_fb/negf.jpg,stim_03/d.jpg,stim_03/c.jpg,1,2,f,2,12,132,29,f,1,0.933073820497,03,01,60.0197195337,PLT_learning_3,N,2014_Feb_25_1542,P09,
stim_fb/ques.jpg,stim_fb/posf.jpg,stim_fb/negf.jpg,stim_03/d.jpg,stim_03/c.jpg,1,2,f,2,13,133,28,f,1,0.583209482636,03,01,60.0197195337,PLT_learning_3,N,2014_Feb_25_1542,P09,
stim_fb/ques.jpg,stim_fb/negf.jpg,stim_fb/posf.jpg,stim_03/d.jpg,stim_03/c.jpg,1,2,f,2,14,134,25,j,0,0.666506260855,03,01,60.0197195337,PLT_learning_3,N,2014_Feb_25_1542,P09,
stim_fb/ques.jpg,stim_fb/negf.jpg,stim_fb/posf.jpg,stim_03/e.jpg,stim_03/f.jpg,2,3,j,2,15,135,52,f,0,0.399906030782,03,01,60.0197195337,PLT_learning_3,N,2014_Feb_25_1542,P09,
stim_fb/ques.jpg,stim_fb/negf.jpg,stim_fb/posf.jpg,stim_03/d.jpg,stim_03/c.jpg,1,2,f,2,16,136,23,j,0,0.399918553996,03,01,60.0197195337,PLT_learning_3,N,2014_Feb_25_1542,P09,
stim_fb/ques.jpg,stim_fb/negf.jpg,stim_fb/posf.jpg,stim_03/f.jpg,stim_03/e.jpg,1,3,f,2,17,137,45,f,1,0.0833436320029,03,01,60.0197195337,PLT_learning_3,N,2014_Feb_25_1542,P09,
stim_fb/ques.jpg,stim_fb/negf.jpg,stim_fb/posf.jpg,stim_03/a.jpg,stim_03/b.jpg,2,1,j,2,18,138,15,j,1,0.899754828911,03,01,60.0197195337,PLT_learning_3,N,2014_Feb_25_1542,P09,
stim_fb/ques.jpg,stim_fb/posf.jpg,stim_fb/negf.jpg,stim_03/c.jpg,stim_03/d.jpg,2,2,j,2,19,139,37,j,1,0.599837110999,03,01,60.0197195337,PLT_learning_3,N,2014_Feb_25_1542,P09,
stim_fb/ques.jpg,stim_fb/posf.jpg,stim_fb/negf.jpg,stim_03/c.jpg,stim_03/d.jpg,2,2,j,2,20,140,38,j,1,0.666386986564,03,01,60.0197195337,PLT_learning_3,N,2014_Feb_25_1542,P09,
stim_fb/ques.jpg,stim_fb/negf.jpg,stim_fb/posf.jpg,stim_03/d.jpg,stim_03/c.jpg,1,2,f,2,21,141,26,j,0,0.6998284855,03,01,60.0197195337,PLT_learning_3,N,2014_Feb_25_1542,P09,
stim_fb/ques.jpg,stim_fb/negf.jpg,stim_fb/posf.jpg,stim_03/a.jpg,stim_03/b.jpg,2,1,j,2,22,142,17,j,1,0.816448261291,03,01,60.0197195337,PLT_learning_3,N,2014_Feb_25_1542,P09,
stim_fb/ques.jpg,stim_fb/posf.jpg,stim_fb/negf.jpg,stim_03/b.jpg,stim_03/a.jpg,1,1,f,2,23,143,9,f,1,0.71647861595,03,01,60.0197195337,PLT_learning_3,N,2014_Feb_25_1542,P09,
stim_fb/ques.jpg,stim_fb/negf.jpg,stim_fb/posf.jpg,stim_03/b.jpg,stim_03/a.jpg,1,1,f,2,24,144,1,f,1,0.58317835505,03,01,60.0197195337,PLT_learning_3,N,2014_Feb_25_1542,P09,
stim_fb/ques.jpg,stim_fb/posf.jpg,stim_fb/negf.jpg,stim_03/f.jpg,stim_03/e.jpg,1,3,f,2,25,145,47,f,1,0.516506964609,03,01,60.0197195337,PLT_learning_3,N,2014_Feb_25_1542,P09,
stim_fb/ques.jpg,stim_fb/negf.jpg,stim_fb/posf.jpg,stim_03/a.jpg,stim_03/b.jpg,2,1,j,2,26,146,13,f,0,0.216647387613,03,01,60.0197195337,PLT_learning_3,N,2014_Feb_25_1542,P09,
stim_fb/ques.jpg,stim_fb/negf.jpg,stim_fb/posf.jpg,stim_03/b.jpg,stim_03/a.jpg,1,1,f,2,27,147,6,j,0,0.233307791671,03,01,60.0197195337,PLT_learning_3,N,2014_Feb_25_1542,P09,
stim_fb/ques.jpg,stim_fb/negf.jpg,stim_fb/posf.jpg,stim_03/a.jpg,stim_03/b.jpg,2,1,j,2,28,148,12,f,0,0.149985576048,03,01,60.0197195337,PLT_learning_3,N,2014_Feb_25_1542,P09,
stim_fb/ques.jpg,stim_fb/posf.jpg,stim_fb/negf.jpg,stim_03/f.jpg,stim_03/e.jpg,1,3,f,2,29,149,48,j,0,0.18326668822,03,01,60.0197195337,PLT_learning_3,N,2014_Feb_25_1542,P09,
stim_fb/ques.jpg,stim_fb/negf.jpg,stim_fb/posf.jpg,stim_03/a.jpg,stim_03/b.jpg,2,1,j,2,30,150,14,j,1,0.666499629326,03,01,60.0197195337,PLT_learning_3,N,2014_Feb_25_1542,P09,
stim_fb/ques.jpg,stim_fb/negf.jpg,stim_fb/posf.jpg,stim_03/b.jpg,stim_03/a.jpg,1,1,f,2,31,151,4,j,0,0.433108427756,03,01,60.0197195337,PLT_learning_3,N,2014_Feb_25_1542,P09,
stim_fb/ques.jpg,stim_fb/posf.jpg,stim_fb/negf.jpg,stim_03/d.jpg,stim_03/c.jpg,1,2,f,2,32,152,27,f,1,0.283297560169,03,01,60.0197195337,PLT_learning_3,N,2014_Feb_25_1542,P09,
stim_fb/ques.jpg,stim_fb/posf.jpg,stim_fb/negf.jpg,stim_03/c.jpg,stim_03/d.jpg,2,2,j,2,33,153,39,j,1,0.249961131119,03,01,60.0197195337,PLT_learning_3,N,2014_Feb_25_1542,P09,
stim_fb/ques.jpg,stim_fb/negf.jpg,stim_fb/posf.jpg,stim_03/b.jpg,stim_03/a.jpg,1,1,f,2,34,154,0,f,1,0.28326670025,03,01,60.0197195337,PLT_learning_3,N,2014_Feb_25_1542,P09,
stim_fb/ques.jpg,stim_fb/negf.jpg,stim_fb/posf.jpg,stim_03/b.jpg,stim_03/a.jpg,1,1,f,2,35,155,3,f,1,0.299954953722,03,01,60.0197195337,PLT_learning_3,N,2014_Feb_25_1542,P09,
stim_fb/ques.jpg,stim_fb/negf.jpg,stim_fb/posf.jpg,stim_03/c.jpg,stim_03/d.jpg,2,2,j,2,36,156,36,f,0,0.349894015834,03,01,60.0197195337,PLT_learning_3,N,2014_Feb_25_1542,P09,
stim_fb/ques.jpg,stim_fb/negf.jpg,stim_fb/posf.jpg,stim_03/d.jpg,stim_03/c.jpg,1,2,f,2,37,157,22,f,1,0.299965979203,03,01,60.0197195337,PLT_learning_3,N,2014_Feb_25_1542,P09,
stim_fb/ques.jpg,stim_fb/negf.jpg,stim_fb/posf.jpg,stim_03/f.jpg,stim_03/e.jpg,1,3,f,2,38,158,43,f,1,0.54987581146,03,01,60.0197195337,PLT_learning_3,N,2014_Feb_25_1542,P09,
stim_fb/ques.jpg,stim_fb/negf.jpg,stim_fb/posf.jpg,stim_03/a.jpg,stim_03/b.jpg,2,1,j,2,39,159,11,f,0,0.19998422869,03,01,60.0197195337,PLT_learning_3,N,2014_Feb_25_1542,P09,
stim_fb/ques.jpg,stim_fb/negf.jpg,stim_fb/posf.jpg,stim_03/f.jpg,stim_03/e.jpg,1,3,f,2,40,160,40,f,1,0.266672253592,03,01,60.0197195337,PLT_learning_3,N,2014_Feb_25_1542,P09,
stim_fb/ques.jpg,stim_fb/posf.jpg,stim_fb/negf.jpg,stim_03/e.jpg,stim_03/f.jpg,2,3,j,2,41,161,56,j,1,0.333264552898,03,01,60.0197195337,PLT_learning_3,N,2014_Feb_25_1542,P09,
stim_fb/ques.jpg,stim_fb/negf.jpg,stim_fb/posf.jpg,stim_03/b.jpg,stim_03/a.jpg,1,1,f,2,42,162,7,f,1,0.283287355734,03,01,60.0197195337,PLT_learning_3,N,2014_Feb_25_1542,P09,
stim_fb/ques.jpg,stim_fb/negf.jpg,stim_fb/posf.jpg,stim_03/e.jpg,stim_03/f.jpg,2,3,j,2,43,163,53,j,1,0.383234983196,03,01,60.0197195337,PLT_learning_3,N,2014_Feb_25_1542,P09,
stim_fb/ques.jpg,stim_fb/negf.jpg,stim_fb/posf.jpg,stim_03/d.jpg,stim_03/c.jpg,1,2,f,2,44,164,24,f,1,0.466543283133,03,01,60.0197195337,PLT_learning_3,N,2014_Feb_25_1542,P09,
stim_fb/ques.jpg,stim_fb/posf.jpg,stim_fb/negf.jpg,stim_03/f.jpg,stim_03/e.jpg,1,3,f,2,45,165,49,f,1,0.399903327043,03,01,60.0197195337,PLT_learning_3,N,2014_Feb_25_1542,P09,
stim_fb/ques.jpg,stim_fb/posf.jpg,stim_fb/negf.jpg,stim_03/b.jpg,stim_03/a.jpg,1,1,f,2,46,166,8,j,0,0.366540438042,03,01,60.0197195337,PLT_learning_3,N,2014_Feb_25_1542,P09,
stim_fb/ques.jpg,stim_fb/negf.jpg,stim_fb/posf.jpg,stim_03/b.jpg,stim_03/a.jpg,1,1,f,2,47,167,5,f,1,0.233342239532,03,01,60.0197195337,PLT_learning_3,N,2014_Feb_25_1542,P09,
stim_fb/ques.jpg,stim_fb/negf.jpg,stim_fb/posf.jpg,stim_03/e.jpg,stim_03/f.jpg,2,3,j,2,48,168,50,f,0,0.283248868805,03,01,60.0197195337,PLT_learning_3,N,2014_Feb_25_1542,P09,
stim_fb/ques.jpg,stim_fb/posf.jpg,stim_fb/negf.jpg,stim_03/a.jpg,stim_03/b.jpg,2,1,j,2,49,169,19,j,1,0.449886734686,03,01,60.0197195337,PLT_learning_3,N,2014_Feb_25_1542,P09,
stim_fb/ques.jpg,stim_fb/posf.jpg,stim_fb/negf.jpg,stim_03/e.jpg,stim_03/f.jpg,2,3,j,2,50,170,59,f,0,0.433280630973,03,01,60.0197195337,PLT_learning_3,N,2014_Feb_25_1542,P09,
stim_fb/ques.jpg,stim_fb/negf.jpg,stim_fb/posf.jpg,stim_03/c.jpg,stim_03/d.jpg,2,2,j,2,51,171,34,f,0,0.300000517289,03,01,60.0197195337,PLT_learning_3,N,2014_Feb_25_1542,P09,
stim_fb/ques.jpg,stim_fb/negf.jpg,stim_fb/posf.jpg,stim_03/f.jpg,stim_03/e.jpg,1,3,f,2,52,172,44,f,1,0.416563953655,03,01,60.0197195337,PLT_learning_3,N,2014_Feb_25_1542,P09,
stim_fb/ques.jpg,stim_fb/negf.jpg,stim_fb/posf.jpg,stim_03/c.jpg,stim_03/d.jpg,2,2,j,2,53,173,31,j,1,0.3333163089,03,01,60.0197195337,PLT_learning_3,N,2014_Feb_25_1542,P09,
stim_fb/ques.jpg,stim_fb/negf.jpg,stim_fb/posf.jpg,stim_03/f.jpg,stim_03/e.jpg,1,3,f,2,54,174,41,j,0,0.266614608913,03,01,60.0197195337,PLT_learning_3,N,2014_Feb_25_1542,P09,
stim_fb/ques.jpg,stim_fb/negf.jpg,stim_fb/posf.jpg,stim_03/c.jpg,stim_03/d.jpg,2,2,j,2,55,175,35,f,0,0.349932971933,03,01,60.0197195337,PLT_learning_3,N,2014_Feb_25_1542,P09,
stim_fb/ques.jpg,stim_fb/negf.jpg,stim_fb/posf.jpg,stim_03/c.jpg,stim_03/d.jpg,2,2,j,2,56,176,32,j,1,0.233299166172,03,01,60.0197195337,PLT_learning_3,N,2014_Feb_25_1542,P09,
stim_fb/ques.jpg,stim_fb/posf.jpg,stim_fb/negf.jpg,stim_03/a.jpg,stim_03/b.jpg,2,1,j,2,57,177,18,f,0,0.3166223472,03,01,60.0197195337,PLT_learning_3,N,2014_Feb_25_1542,P09,
stim_fb/ques.jpg,stim_fb/negf.jpg,stim_fb/posf.jpg,stim_03/d.jpg,stim_03/c.jpg,1,2,f,2,58,178,20,j,0,0.283303812753,03,01,60.0197195337,PLT_learning_3,N,2014_Feb_25_1542,P09,
stim_fb/ques.jpg,stim_fb/negf.jpg,stim_fb/posf.jpg,stim_03/c.jpg,stim_03/d.jpg,2,2,j,2,59,179,33,f,0,0.216647038744,03,01,60.0197195337,PLT_learning_3,N,2014_Feb_25_1542,P09,
stim_fb/ques.jpg,stim_fb/posf.jpg,stim_fb/negf.jpg,stim_03/d.jpg,stim_03/c.jpg,1,2,f,3,0,180,28,j,0,1.44957048443,03,01,60.0197195337,PLT_learning_3,N,2014_Feb_25_1542,P09,
stim_fb/ques.jpg,stim_fb/negf.jpg,stim_fb/posf.jpg,stim_03/e.jpg,stim_03/f.jpg,2,3,j,3,1,181,52,f,0,0.283288844445,03,01,60.0197195337,PLT_learning_3,N,2014_Feb_25_1542,P09,
stim_fb/ques.jpg,stim_fb/negf.jpg,stim_fb/posf.jpg,stim_03/d.jpg,stim_03/c.jpg,1,2,f,3,2,182,22,j,0,0.333257154457,03,01,60.0197195337,PLT_learning_3,N,2014_Feb_25_1542,P09,
stim_fb/ques.jpg,stim_fb/negf.jpg,stim_fb/posf.jpg,stim_03/c.jpg,stim_03/d.jpg,2,2,j,3,3,183,30,f,0,0.266632172691,03,01,60.0197195337,PLT_learning_3,N,2014_Feb_25_1542,P09,
stim_fb/ques.jpg,stim_fb/negf.jpg,stim_fb/posf.jpg,stim_03/a.jpg,stim_03/b.jpg,2,1,j,3,4,184,11,j,1,0.283237157615,03,01,60.0197195337,PLT_learning_3,N,2014_Feb_25_1542,P09,
stim_fb/ques.jpg,stim_fb/negf.jpg,stim_fb/posf.jpg,stim_03/a.jpg,stim_03/b.jpg,2,1,j,3,5,185,15,f,0,0.349914572071,03,01,60.0197195337,PLT_learning_3,N,2014_Feb_25_1542,P09,
stim_fb/ques.jpg,stim_fb/posf.jpg,stim_fb/negf.jpg,stim_03/d.jpg,stim_03/c.jpg,1,2,f,3,6,186,27,j,0,0.283291054955,03,01,60.0197195337,PLT_learning_3,N,2014_Feb_25_1542,P09,
stim_fb/ques.jpg,stim_fb/negf.jpg,stim_fb/posf.jpg,stim_03/d.jpg,stim_03/c.jpg,1,2,f,3,7,187,21,f,1,0.333279458049,03,01,60.0197195337,PLT_learning_3,N,2014_Feb_25_1542,P09,
stim_fb/ques.jpg,stim_fb/posf.jpg,stim_fb/negf.jpg,stim_03/e.jpg,stim_03/f.jpg,2,3,j,3,8,188,56,f,0,0.316618260013,03,01,60.0197195337,PLT_learning_3,N,2014_Feb_25_1542,P09,
stim_fb/ques.jpg,stim_fb/negf.jpg,stim_fb/posf.jpg,stim_03/d.jpg,stim_03/c.jpg,1,2,f,3,9,189,20,f,1,0.36659140608,03,01,60.0197195337,PLT_learning_3,N,2014_Feb_25_1542,P09,
stim_fb/ques.jpg,stim_fb/posf.jpg,stim_fb/negf.jpg,stim_03/f.jpg,stim_03/e.jpg,1,3,f,3,10,190,47,j,0,0.233303075917,03,01,60.0197195337,PLT_learning_3,N,2014_Feb_25_1542,P09,
stim_fb/ques.jpg,stim_fb/posf.jpg,stim_fb/negf.jpg,stim_03/a.jpg,stim_03/b.jpg,2,1,j,3,11,191,19,f,0,0.349963579221,03,01,60.0197195337,PLT_learning_3,N,2014_Feb_25_1542,P09,
stim_fb/ques.jpg,stim_fb/negf.jpg,stim_fb/posf.jpg,stim_03/f.jpg,stim_03/e.jpg,1,3,f,3,12,192,40,j,0,0.36658714145,03,01,60.0197195337,PLT_learning_3,N,2014_Feb_25_1542,P09,
stim_fb/ques.jpg,stim_fb/negf.jpg,stim_fb/posf.jpg,stim_03/e.jpg,stim_03/f.jpg,2,3,j,3,13,193,55,f,0,0.26664256359,03,01,60.0197195337,PLT_learning_3,N,2014_Feb_25_1542,P09,
stim_fb/ques.jpg,stim_fb/posf.jpg,stim_fb/negf.jpg,stim_03/f.jpg,stim_03/e.jpg,1,3,f,3,14,194,48,j,0,0.116670019022,03,01,60.0197195337,PLT_learning_3,N,2014_Feb_25_1542,P09,
stim_fb/ques.jpg,stim_fb/negf.jpg,stim_fb/posf.jpg,stim_03/f.jpg,stim_03/e.jpg,1,3,f,3,15,195,41,j,0,0.333261743897,03,01,60.0197195337,PLT_learning_3,N,2014_Feb_25_1542,P09,
stim_fb/ques.jpg,stim_fb/posf.jpg,stim_fb/negf.jpg,stim_03/e.jpg,stim_03/f.jpg,2,3,j,3,16,196,59,f,0,0.183346639499,03,01,60.0197195337,PLT_learning_3,N,2014_Feb_25_1542,P09,
stim_fb/ques.jpg,stim_fb/negf.jpg,stim_fb/posf.jpg,stim_03/d.jpg,stim_03/c.jpg,1,2,f,3,17,197,26,j,0,0.366604825528,03,01,60.0197195337,PLT_learning_3,N,2014_Feb_25_1542,P09,
stim_fb/ques.jpg,stim_fb/negf.jpg,stim_fb/posf.jpg,stim_03/c.jpg,stim_03/d.jpg,2,2,j,3,18,198,35,f,0,0.399878767829,03,01,60.0197195337,PLT_learning_3,N,2014_Feb_25_1542,P09,
stim_fb/ques.jpg,stim_fb/negf.jpg,stim_fb/posf.jpg,stim_03/a.jpg,stim_03/b.jpg,2,1,j,3,19,199,14,j,1,0.366583216668,03,01,60.0197195337,PLT_learning_3,N,2014_Feb_25_1542,P09,
stim_fb/ques.jpg,stim_fb/posf.jpg,stim_fb/negf.jpg,stim_03/c.jpg,stim_03/d.jpg,2,2,j,3,20,200,39,f,0,0.283292291035,03,01,60.0197195337,PLT_learning_3,N,2014_Feb_25_1542,P09,
stim_fb/ques.jpg,stim_fb/negf.jpg,stim_fb/posf.jpg,stim_03/c.jpg,stim_03/d.jpg,2,2,j,3,21,201,34,j,1,0.399903588695,03,01,60.0197195337,PLT_learning_3,N,2014_Feb_25_1542,P09,
stim_fb/ques.jpg,stim_fb/negf.jpg,stim_fb/posf.jpg,stim_03/c.jpg,stim_03/d.jpg,2,2,j,3,22,202,31,f,0,0.699801225555,03,01,60.0197195337,PLT_learning_3,N,2014_Feb_25_1542,P09,
stim_fb/ques.jpg,stim_fb/negf.jpg,stim_fb/posf.jpg,stim_03/b.jpg,stim_03/a.jpg,1,1,f,3,23,203,0,j,0,0.366570085939,03,01,60.0197195337,PLT_learning_3,N,2014_Feb_25_1542,P09,
stim_fb/ques.jpg,stim_fb/negf.jpg,stim_fb/posf.jpg,stim_03/d.jpg,stim_03/c.jpg,1,2,f,3,24,204,23,f,1,0.0333255689807,03,01,60.0197195337,PLT_learning_3,N,2014_Feb_25_1542,P09,
stim_fb/ques.jpg,stim_fb/posf.jpg,stim_fb/negf.jpg,stim_03/f.jpg,stim_03/e.jpg,1,3,f,3,25,205,49,j,0,0.266637026789,03,01,60.0197195337,PLT_learning_3,N,2014_Feb_25_1542,P09,
stim_fb/ques.jpg,stim_fb/posf.jpg,stim_fb/negf.jpg,stim_03/b.jpg,stim_03/a.jpg,1,1,f,3,26,206,9,j,0,0.416591270742,03,01,60.0197195337,PLT_learning_3,N,2014_Feb_25_1542,P09,
stim_fb/ques.jpg,stim_fb/posf.jpg,stim_fb/negf.jpg,stim_03/e.jpg,stim_03/f.jpg,2,3,j,3,27,207,57,f,0,0.466658340915,03,01,60.0197195337,PLT_learning_3,N,2014_Feb_25_1542,P09,
stim_fb/ques.jpg,stim_fb/negf.jpg,stim_fb/posf.jpg,stim_03/c.jpg,stim_03/d.jpg,2,2,j,3,28,208,32,j,1,0.266616106646,03,01,60.0197195337,PLT_learning_3,N,2014_Feb_25_1542,P09,
stim_fb/ques.jpg,stim_fb/negf.jpg,stim_fb/posf.jpg,stim_03/b.jpg,stim_03/a.jpg,1,1,f,3,29,209,5,f,1,0.316607445057,03,01,60.0197195337,PLT_learning_3,N,2014_Feb_25_1542,P09,
stim_fb/ques.jpg,stim_fb/negf.jpg,stim_fb/posf.jpg,stim_03/a.jpg,stim_03/b.jpg,2,1,j,3,30,210,17,j,1,0.433236841828,03,01,60.0197195337,PLT_learning_3,N,2014_Feb_25_1542,P09,
stim_fb/ques.jpg,stim_fb/posf.jpg,stim_fb/negf.jpg,stim_03/a.jpg,stim_03/b.jpg,2,1,j,3,31,211,18,f,0,0.199998757904,03,01,60.0197195337,PLT_learning_3,N,2014_Feb_25_1542,P09,
stim_fb/ques.jpg,stim_fb/negf.jpg,stim_fb/posf.jpg,stim_03/f.jpg,stim_03/e.jpg,1,3,f,3,32,212,43,j,0,0.249971434801,03,01,60.0197195337,PLT_learning_3,N,2014_Feb_25_1542,P09,
stim_fb/ques.jpg,stim_fb/negf.jpg,stim_fb/posf.jpg,stim_03/d.jpg,stim_03/c.jpg,1,2,f,3,33,213,25,f,1,0.183308778129,03,01,60.0197195337,PLT_learning_3,N,2014_Feb_25_1542,P09,
stim_fb/ques.jpg,stim_fb/negf.jpg,stim_fb/posf.jpg,stim_03/e.jpg,stim_03/f.jpg,2,3,j,3,34,214,50,f,0,0.183293854933,03,01,60.0197195337,PLT_learning_3,N,2014_Feb_25_1542,P09,
stim_fb/ques.jpg,stim_fb/negf.jpg,stim_fb/posf.jpg,stim_03/e.jpg,stim_03/f.jpg,2,3,j,3,35,215,54,f,0,0.100024628386,03,01,60.0197195337,PLT_learning_3,N,2014_Feb_25_1542,P09,
stim_fb/ques.jpg,stim_fb/negf.jpg,stim_fb/posf.jpg,stim_03/e.jpg,stim_03/f.jpg,2,3,j,3,36,216,51,j,1,0.299926259201,03,01,60.0197195337,PLT_learning_3,N,2014_Feb_25_1542,P09,
stim_fb/ques.jpg,stim_fb/negf.jpg,stim_fb/posf.jpg,stim_03/c.jpg,stim_03/d.jpg,2,2,j,3,37,217,36,f,0,0.333239223765,03,01,60.0197195337,PLT_learning_3,N,2014_Feb_25_1542,P09,
stim_fb/ques.jpg,stim_fb/posf.jpg,stim_fb/negf.jpg,stim_03/e.jpg,stim_03/f.jpg,2,3,j,3,38,218,58,j,1,0.366569752107,03,01,60.0197195337,PLT_learning_3,N,2014_Feb_25_1542,P09,
stim_fb/ques.jpg,stim_fb/negf.jpg,stim_fb/posf.jpg,stim_03/b.jpg,stim_03/a.jpg,1,1,f,3,39,219,1,f,1,0.266619802859,03,01,60.0197195337,PLT_learning_3,N,2014_Feb_25_1542,P09,
stim_fb/ques.jpg,stim_fb/posf.jpg,stim_fb/negf.jpg,stim_03/c.jpg,stim_03/d.jpg,2,2,j,3,40,220,37,j,1,0.333299271434,03,01,60.0197195337,PLT_learning_3,N,2014_Feb_25_1542,P09,
stim_fb/ques.jpg,stim_fb/negf.jpg,stim_fb/posf.jpg,stim_03/b.jpg,stim_03/a.jpg,1,1,f,3,41,221,4,f,1,0.566536215517,03,01,60.0197195337,PLT_learning_3,N,2014_Feb_25_1542,P09,
stim_fb/ques.jpg,stim_fb/posf.jpg,stim_fb/negf.jpg,stim_03/c.jpg,stim_03/d.jpg,2,2,j,3,42,222,38,j,1,0.31666594988,03,01,60.0197195337,PLT_learning_3,N,2014_Feb_25_1542,P09,
stim_fb/ques.jpg,stim_fb/negf.jpg,stim_fb/posf.jpg,stim_03/b.jpg,stim_03/a.jpg,1,1,f,3,43,223,7,f,1,0.266650783077,03,01,60.0197195337,PLT_learning_3,N,2014_Feb_25_1542,P09,
stim_fb/ques.jpg,stim_fb/negf.jpg,stim_fb/posf.jpg,stim_03/a.jpg,stim_03/b.jpg,2,1,j,3,44,224,10,f,0,0.233312913437,03,01,60.0197195337,PLT_learning_3,N,2014_Feb_25_1542,P09,
stim_fb/ques.jpg,stim_fb/negf.jpg,stim_fb/posf.jpg,stim_03/f.jpg,stim_03/e.jpg,1,3,f,3,45,225,44,j,0,0.549872325772,03,01,60.0197195337,PLT_learning_3,N,2014_Feb_25_1542,P09,
stim_fb/ques.jpg,stim_fb/negf.jpg,stim_fb/posf.jpg,stim_03/a.jpg,stim_03/b.jpg,2,1,j,3,46,226,12,f,0,0.316614654025,03,01,60.0197195337,PLT_learning_3,N,2014_Feb_25_1542,P09,
stim_fb/ques.jpg,stim_fb/negf.jpg,stim_fb/posf.jpg,stim_03/b.jpg,stim_03/a.jpg,1,1,f,3,47,227,6,j,0,0.316649008654,03,01,60.0197195337,PLT_learning_3,N,2014_Feb_25_1542,P09,
stim_fb/ques.jpg,stim_fb/negf.jpg,stim_fb/posf.jpg,stim_03/f.jpg,stim_03/e.jpg,1,3,f,3,48,228,42,f,1,0.266629697521,03,01,60.0197195337,PLT_learning_3,N,2014_Feb_25_1542,P09,
stim_fb/ques.jpg,stim_fb/posf.jpg,stim_fb/negf.jpg,stim_03/d.jpg,stim_03/c.jpg,1,2,f,3,49,229,29,f,1,0.416581881339,03,01,60.0197195337,PLT_learning_3,N,2014_Feb_25_1542,P09,
stim_fb/ques.jpg,stim_fb/negf.jpg,stim_fb/posf.jpg,stim_03/b.jpg,stim_03/a.jpg,1,1,f,3,50,230,3,f,1,0.233289124142,03,01,60.0197195337,PLT_learning_3,N,2014_Feb_25_1542,P09,
stim_fb/ques.jpg,stim_fb/negf.jpg,stim_fb/posf.jpg,stim_03/a.jpg,stim_03/b.jpg,2,1,j,3,51,231,16,f,0,0.516543126743,03,01,60.0197195337,PLT_learning_3,N,2014_Feb_25_1542,P09,
stim_fb/ques.jpg,stim_fb/posf.jpg,stim_fb/negf.jpg,stim_03/b.jpg,stim_03/a.jpg,1,1,f,3,52,232,8,j,0,0.466547857535,03,01,60.0197195337,PLT_learning_3,N,2014_Feb_25_1542,P09,
stim_fb/ques.jpg,stim_fb/negf.jpg,stim_fb/posf.jpg,stim_03/d.jpg,stim_03/c.jpg,1,2,f,3,53,233,24,j,0,0.483230508041,03,01,60.0197195337,PLT_learning_3,N,2014_Feb_25_1542,P09,
stim_fb/ques.jpg,stim_fb/negf.jpg,stim_fb/posf.jpg,stim_03/b.jpg,stim_03/a.jpg,1,1,f,3,54,234,2,f,1,0.499876897166,03,01,60.0197195337,PLT_learning_3,N,2014_Feb_25_1542,P09,
stim_fb/ques.jpg,stim_fb/negf.jpg,stim_fb/posf.jpg,stim_03/e.jpg,stim_03/f.jpg,2,3,j,3,55,235,53,j,1,0.299942277126,03,01,60.0197195337,PLT_learning_3,N,2014_Feb_25_1542,P09,
stim_fb/ques.jpg,stim_fb/negf.jpg,stim_fb/posf.jpg,stim_03/c.jpg,stim_03/d.jpg,2,2,j,3,56,236,33,f,0,0.566578242269,03,01,60.0197195337,PLT_learning_3,N,2014_Feb_25_1542,P09,
stim_fb/ques.jpg,stim_fb/negf.jpg,stim_fb/posf.jpg,stim_03/f.jpg,stim_03/e.jpg,1,3,f,3,57,237,45,j,0,0.333273145315,03,01,60.0197195337,PLT_learning_3,N,2014_Feb_25_1542,P09,
stim_fb/ques.jpg,stim_fb/posf.jpg,stim_fb/negf.jpg,stim_03/f.jpg,stim_03/e.jpg,1,3,f,3,58,238,46,f,1,0.316606678145,03,01,60.0197195337,PLT_learning_3,N,2014_Feb_25_1542,P09,
stim_fb/ques.jpg,stim_fb/negf.jpg,stim_fb/posf.jpg,stim_03/a.jpg,stim_03/b.jpg,2,1,j,3,59,239,13,j,1,0.299938183923,03,01,60.0197195337,PLT_learning_3,N,2014_Feb_25_1542,P09,
stim_fb/ques.jpg,stim_fb/posf.jpg,stim_fb/negf.jpg,stim_03/c.jpg,stim_03/d.jpg,2,2,j,4,0,240,39,f,0,0.449855540936,03,01,60.0197195337,PLT_learning_3,N,2014_Feb_25_1542,P09,
stim_fb/ques.jpg,stim_fb/negf.jpg,stim_fb/posf.jpg,stim_03/d.jpg,stim_03/c.jpg,1,2,f,4,1,241,23,f,1,0.216650473305,03,01,60.0197195337,PLT_learning_3,N,2014_Feb_25_1542,P09,
stim_fb/ques.jpg,stim_fb/negf.jpg,stim_fb/posf.jpg,stim_03/d.jpg,stim_03/c.jpg,1,2,f,4,2,242,22,f,1,0.416564940113,03,01,60.0197195337,PLT_learning_3,N,2014_Feb_25_1542,P09,
stim_fb/ques.jpg,stim_fb/negf.jpg,stim_fb/posf.jpg,stim_03/b.jpg,stim_03/a.jpg,1,1,f,4,3,243,1,j,0,0.416572043819,03,01,60.0197195337,PLT_learning_3,N,2014_Feb_25_1542,P09,
stim_fb/ques.jpg,stim_fb/negf.jpg,stim_fb/posf.jpg,stim_03/c.jpg,stim_03/d.jpg,2,2,j,4,4,244,30,f,0,0.250003930798,03,01,60.0197195337,PLT_learning_3,N,2014_Feb_25_1542,P09,
stim_fb/ques.jpg,stim_fb/negf.jpg,stim_fb/posf.jpg,stim_03/a.jpg,stim_03/b.jpg,2,1,j,4,5,245,15,j,1,0.299950433455,03,01,60.0197195337,PLT_learning_3,N,2014_Feb_25_1542,P09,
stim_fb/ques.jpg,stim_fb/posf.jpg,stim_fb/negf.jpg,stim_03/e.jpg,stim_03/f.jpg,2,3,j,4,6,246,59,f,0,0.266629814813,03,01,60.0197195337,PLT_learning_3,N,2014_Feb_25_1542,P09,
stim_fb/ques.jpg,stim_fb/negf.jpg,stim_fb/posf.jpg,stim_03/f.jpg,stim_03/e.jpg,1,3,f,4,7,247,40,j,0,0.28329063992,03,01,60.0197195337,PLT_learning_3,N,2014_Feb_25_1542,P09,
stim_fb/ques.jpg,stim_fb/posf.jpg,stim_fb/negf.jpg,stim_03/a.jpg,stim_03/b.jpg,2,1,j,4,8,248,19,f,0,0.1997927384,03,01,60.0197195337,PLT_learning_3,N,2014_Feb_25_1542,P09,
stim_fb/ques.jpg,stim_fb/negf.jpg,stim_fb/posf.jpg,stim_03/c.jpg,stim_03/d.jpg,2,2,j,4,9,249,36,j,1,0.266632993737,03,01,60.0197195337,PLT_learning_3,N,2014_Feb_25_1542,P09,
stim_fb/ques.jpg,stim_fb/negf.jpg,stim_fb/posf.jpg,stim_03/b.jpg,stim_03/a.jpg,1,1,f,4,10,250,4,f,1,0.349915669807,03,01,60.0197195337,PLT_learning_3,N,2014_Feb_25_1542,P09,
stim_fb/ques.jpg,stim_fb/negf.jpg,stim_fb/posf.jpg,stim_03/e.jpg,stim_03/f.jpg,2,3,j,4,11,251,51,j,1,0.299980066315,03,01,60.0197195337,PLT_learning_3,N,2014_Feb_25_1542,P09,
stim_fb/ques.jpg,stim_fb/negf.jpg,stim_fb/posf.jpg,stim_03/b.jpg,stim_03/a.jpg,1,1,f,4,12,252,0,f,1,0.283323884783,03,01,60.0197195337,PLT_learning_3,N,2014_Feb_25_1542,P09,
stim_fb/ques.jpg,stim_fb/posf.jpg,stim_fb/negf.jpg,stim_03/f.jpg,stim_03/e.jpg,1,3,f,4,13,253,49,j,0,0.399941961339,03,01,60.0197195337,PLT_learning_3,N,2014_Feb_25_1542,P09,
stim_fb/ques.jpg,stim_fb/negf.jpg,stim_fb/posf.jpg,stim_03/a.jpg,stim_03/b.jpg,2,1,j,4,14,254,11,f,0,0.233353346215,03,01,60.0197195337,PLT_learning_3,N,2014_Feb_25_1542,P09,
stim_fb/ques.jpg,stim_fb/negf.jpg,stim_fb/posf.jpg,stim_03/c.jpg,stim_03/d.jpg,2,2,j,4,15,255,32,j,1,0.266641375629,03,01,60.0197195337,PLT_learning_3,N,2014_Feb_25_1542,P09,
stim_fb/ques.jpg,stim_fb/negf.jpg,stim_fb/posf.jpg,stim_03/c.jpg,stim_03/d.jpg,2,2,j,4,16,256,31,f,0,0.283276297171,03,01,60.0197195337,PLT_learning_3,N,2014_Feb_25_1542,P09,
stim_fb/ques.jpg,stim_fb/posf.jpg,stim_fb/negf.jpg,stim_03/f.jpg,stim_03/e.jpg,1,3,f,4,17,257,47,j,0,0.10000604206,03,01,60.0197195337,PLT_learning_3,N,2014_Feb_25_1542,P09,
stim_fb/ques.jpg,stim_fb/negf.jpg,stim_fb/posf.jpg,stim_03/d.jpg,stim_03/c.jpg,1,2,f,4,18,258,25,f,1,0.249925618604,03,01,60.0197195337,PLT_learning_3,N,2014_Feb_25_1542,P09,
stim_fb/ques.jpg,stim_fb/posf.jpg,stim_fb/negf.jpg,stim_03/e.jpg,stim_03/f.jpg,2,3,j,4,19,259,57,j,1,0.483228914068,03,01,60.0197195337,PLT_learning_3,N,2014_Feb_25_1542,P09,
stim_fb/ques.jpg,stim_fb/negf.jpg,stim_fb/posf.jpg,stim_03/b.jpg,stim_03/a.jpg,1,1,f,4,20,260,7,f,1,0.25001602394,03,01,60.0197195337,PLT_learning_3,N,2014_Feb_25_1542,P09,
stim_fb/ques.jpg,stim_fb/negf.jpg,stim_fb/posf.jpg,stim_03/f.jpg,stim_03/e.jpg,1,3,f,4,21,261,41,f,1,0.166687928662,03,01,60.0197195337,PLT_learning_3,N,2014_Feb_25_1542,P09,
stim_fb/ques.jpg,stim_fb/negf.jpg,stim_fb/posf.jpg,stim_03/d.jpg,stim_03/c.jpg,1,2,f,4,22,262,24,f,1,0.133347313178,03,01,60.0197195337,PLT_learning_3,N,2014_Feb_25_1542,P09,
stim_fb/ques.jpg,stim_fb/negf.jpg,stim_fb/posf.jpg,stim_03/a.jpg,stim_03/b.jpg,2,1,j,4,23,263,13,f,0,0.28332048932,03,01,60.0197195337,PLT_learning_3,N,2014_Feb_25_1542,P09,
stim_fb/ques.jpg,stim_fb/posf.jpg,stim_fb/negf.jpg,stim_03/d.jpg,stim_03/c.jpg,1,2,f,4,24,264,28,f,1,0.26661867204,03,01,60.0197195337,PLT_learning_3,N,2014_Feb_25_1542,P09,
stim_fb/ques.jpg,stim_fb/negf.jpg,stim_fb/posf.jpg,stim_03/e.jpg,stim_03/f.jpg,2,3,j,4,25,265,55,j,1,0.283284552748,03,01,60.0197195337,PLT_learning_3,N,2014_Feb_25_1542,P09,
stim_fb/ques.jpg,stim_fb/negf.jpg,stim_fb/posf.jpg,stim_03/f.jpg,stim_03/e.jpg,1,3,f,4,26,266,42,j,0,0.216643892903,03,01,60.0197195337,PLT_learning_3,N,2014_Feb_25_1542,P09,
stim_fb/ques.jpg,stim_fb/posf.jpg,stim_fb/negf.jpg,stim_03/d.jpg,stim_03/c.jpg,1,2,f,4,27,267,29,f,1,0.200007936782,03,01,60.0197195337,PLT_learning_3,N,2014_Feb_25_1542,P09,
stim_fb/ques.jpg,stim_fb/negf.jpg,stim_fb/posf.jpg,stim_03/d.jpg,stim_03/c.jpg,1,2,f,4,28,268,26,j,0,0.266641309464,03,01,60.0197195337,PLT_learning_3,N,2014_Feb_25_1542,P09,
stim_fb/ques.jpg,stim_fb/negf.jpg,stim_fb/posf.jpg,stim_03/a.jpg,stim_03/b.jpg,2,1,j,4,29,269,17,f,0,0.249922830655,03,01,60.0197195337,PLT_learning_3,N,2014_Feb_25_1542,P09,
stim_fb/ques.jpg,stim_fb/negf.jpg,stim_fb/posf.jpg,stim_03/b.jpg,stim_03/a.jpg,1,1,f,4,30,270,3,j,0,0.283277797911,03,01,60.0197195337,PLT_learning_3,N,2014_Feb_25_1542,P09,
stim_fb/ques.jpg,stim_fb/posf.jpg,stim_fb/negf.jpg,stim_03/d.jpg,stim_03/c.jpg,1,2,f,4,31,271,27,f,1,0.31662087052,03,01,60.0197195337,PLT_learning_3,N,2014_Feb_25_1542,P09,
stim_fb/ques.jpg,stim_fb/negf.jpg,stim_fb/posf.jpg,stim_03/d.jpg,stim_03/c.jpg,1,2,f,4,32,272,20,j,0,0.249933904256,03,01,60.0197195337,PLT_learning_3,N,2014_Feb_25_1542,P09,
stim_fb/ques.jpg,stim_fb/negf.jpg,stim_fb/posf.jpg,stim_03/c.jpg,stim_03/d.jpg,2,2,j,4,33,273,34,j,1,0.233316913407,03,01,60.0197195337,PLT_learning_3,N,2014_Feb_25_1542,P09,
stim_fb/ques.jpg,stim_fb/posf.jpg,stim_fb/negf.jpg,stim_03/c.jpg,stim_03/d.jpg,2,2,j,4,34,274,37,f,0,0.233292928625,03,01,60.0197195337,PLT_learning_3,N,2014_Feb_25_1542,P09,
stim_fb/ques.jpg,stim_fb/negf.jpg,stim_fb/posf.jpg,stim_03/d.jpg,stim_03/c.jpg,1,2,f,4,35,275,21,j,0,0.333263801024,03,01,60.0197195337,PLT_learning_3,N,2014_Feb_25_1542,P09,
stim_fb/ques.jpg,stim_fb/negf.jpg,stim_fb/posf.jpg,stim_03/b.jpg,stim_03/a.jpg,1,1,f,4,36,276,2,f,1,0.26658907527,03,01,60.0197195337,PLT_learning_3,N,2014_Feb_25_1542,P09,
stim_fb/ques.jpg,stim_fb/negf.jpg,stim_fb/posf.jpg,stim_03/f.jpg,stim_03/e.jpg,1,3,f,4,37,277,44,j,0,0.249966971677,03,01,60.0197195337,PLT_learning_3,N,2014_Feb_25_1542,P09,
stim_fb/ques.jpg,stim_fb/posf.jpg,stim_fb/negf.jpg,stim_03/f.jpg,stim_03/e.jpg,1,3,f,4,38,278,46,f,1,0.28328121142,03,01,60.0197195337,PLT_learning_3,N,2014_Feb_25_1542,P09,
stim_fb/ques.jpg,stim_fb/posf.jpg,stim_fb/negf.jpg,stim_03/f.jpg,stim_03/e.jpg,1,3,f,4,39,279,48,j,0,0.283282143743,03,01,60.0197195337,PLT_learning_3,N,2014_Feb_25_1542,P09,
stim_fb/ques.jpg,stim_fb/posf.jpg,stim_fb/negf.jpg,stim_03/a.jpg,stim_03/b.jpg,2,1,j,4,40,280,18,f,0,0.349937080172,03,01,60.0197195337,PLT_learning_3,N,2014_Feb_25_1542,P09,
stim_fb/ques.jpg,stim_fb/posf.jpg,stim_fb/negf.jpg,stim_03/b.jpg,stim_03/a.jpg,1,1,f,4,41,281,9,j,0,0.533265954391,03,01,60.0197195337,PLT_learning_3,N,2014_Feb_25_1542,P09,
stim_fb/ques.jpg,stim_fb/negf.jpg,stim_fb/posf.jpg,stim_03/e.jpg,stim_03/f.jpg,2,3,j,4,42,282,54,f,0,0.266615357779,03,01,60.0197195337,PLT_learning_3,N,2014_Feb_25_1542,P09,
stim_fb/ques.jpg,stim_fb/posf.jpg,stim_fb/negf.jpg,stim_03/c.jpg,stim_03/d.jpg,2,2,j,4,43,283,38,j,1,0.0333705340563,03,01,60.0197195337,PLT_learning_3,N,2014_Feb_25_1542,P09,
stim_fb/ques.jpg,stim_fb/posf.jpg,stim_fb/negf.jpg,stim_03/b.jpg,stim_03/a.jpg,1,1,f,4,44,284,8,f,1,0.283229948647,03,01,60.0197195337,PLT_learning_3,N,2014_Feb_25_1542,P09,
stim_fb/ques.jpg,stim_fb/negf.jpg,stim_fb/posf.jpg,stim_03/a.jpg,stim_03/b.jpg,2,1,j,4,45,285,12,j,1,0.316483313659,03,01,60.0197195337,PLT_learning_3,N,2014_Feb_25_1542,P09,
stim_fb/ques.jpg,stim_fb/negf.jpg,stim_fb/posf.jpg,stim_03/a.jpg,stim_03/b.jpg,2,1,j,4,46,286,10,j,1,0.983076440027,03,01,60.0197195337,PLT_learning_3,N,2014_Feb_25_1542,P09,
stim_fb/ques.jpg,stim_fb/negf.jpg,stim_fb/posf.jpg,stim_03/e.jpg,stim_03/f.jpg,2,3,j,4,47,287,50,j,1,0.983063095766,03,01,60.0197195337,PLT_learning_3,N,2014_Feb_25_1542,P09,
stim_fb/ques.jpg,stim_fb/negf.jpg,stim_fb/posf.jpg,stim_03/f.jpg,stim_03/e.jpg,1,3,f,4,48,288,43,f,1,0.933077814452,03,01,60.0197195337,PLT_learning_3,N,2014_Feb_25_1542,P09,
stim_fb/ques.jpg,stim_fb/negf.jpg,stim_fb/posf.jpg,stim_03/a.jpg,stim_03/b.jpg,2,1,j,4,49,289,14,j,1,0.599854037188,03,01,60.0197195337,PLT_learning_3,N,2014_Feb_25_1542,P09,
stim_fb/ques.jpg,stim_fb/negf.jpg,stim_fb/posf.jpg,stim_03/a.jpg,stim_03/b.jpg,2,1,j,4,50,290,16,j,1,0.516505063872,03,01,60.0197195337,PLT_learning_3,N,2014_Feb_25_1542,P09,
stim_fb/ques.jpg,stim_fb/negf.jpg,stim_fb/posf.jpg,stim_03/f.jpg,stim_03/e.jpg,1,3,f,4,51,291,45,f,1,0.666475888151,03,01,60.0197195337,PLT_learning_3,N,2014_Feb_25_1542,P09,
stim_fb/ques.jpg,stim_fb/posf.jpg,stim_fb/negf.jpg,stim_03/e.jpg,stim_03/f.jpg,2,3,j,4,52,292,56,j,1,0.516527307313,03,01,60.0197195337,PLT_learning_3,N,2014_Feb_25_1542,P09,
stim_fb/ques.jpg,stim_fb/negf.jpg,stim_fb/posf.jpg,stim_03/b.jpg,stim_03/a.jpg,1,1,f,4,53,293,5,f,1,0.333276676115,03,01,60.0197195337,PLT_learning_3,N,2014_Feb_25_1542,P09,
stim_fb/ques.jpg,stim_fb/negf.jpg,stim_fb/posf.jpg,stim_03/c.jpg,stim_03/d.jpg,2,2,j,4,54,294,33,j,1,0.216707480395,03,01,60.0197195337,PLT_learning_3,N,2014_Feb_25_1542,P09,
stim_fb/ques.jpg,stim_fb/negf.jpg,stim_fb/posf.jpg,stim_03/e.jpg,stim_03/f.jpg,2,3,j,4,55,295,53,j,1,0.833099784212,03,01,60.0197195337,PLT_learning_3,N,2014_Feb_25_1542,P09,
stim_fb/ques.jpg,stim_fb/posf.jpg,stim_fb/negf.jpg,stim_03/e.jpg,stim_03/f.jpg,2,3,j,4,56,296,58,f,0,0.56653195991,03,01,60.0197195337,PLT_learning_3,N,2014_Feb_25_1542,P09,
stim_fb/ques.jpg,stim_fb/negf.jpg,stim_fb/posf.jpg,stim_03/e.jpg,stim_03/f.jpg,2,3,j,4,57,297,52,j,1,0.0833391869235,03,01,60.0197195337,PLT_learning_3,N,2014_Feb_25_1542,P09,
stim_fb/ques.jpg,stim_fb/negf.jpg,stim_fb/posf.jpg,stim_03/c.jpg,stim_03/d.jpg,2,2,j,4,58,298,35,f,0,0.266637826783,03,01,60.0197195337,PLT_learning_3,N,2014_Feb_25_1542,P09,
stim_fb/ques.jpg,stim_fb/negf.jpg,stim_fb/posf.jpg,stim_03/b.jpg,stim_03/a.jpg,1,1,f,4,59,299,6,j,0,0.283296639875,03,01,60.0197195337,PLT_learning_3,N,2014_Feb_25_1542,P09,
stim_fb/ques.jpg,stim_fb/negf.jpg,stim_fb/posf.jpg,stim_03/d.jpg,stim_03/c.jpg,1,2,f,5,0,300,25,j,0,1.59951745626,03,01,60.0197195337,PLT_learning_3,N,2014_Feb_25_1542,P09,
stim_fb/ques.jpg,stim_fb/negf.jpg,stim_fb/posf.jpg,stim_03/f.jpg,stim_03/e.jpg,1,3,f,5,1,301,43,f,1,0.316609484139,03,01,60.0197195337,PLT_learning_3,N,2014_Feb_25_1542,P09,
stim_fb/ques.jpg,stim_fb/negf.jpg,stim_fb/posf.jpg,stim_03/f.jpg,stim_03/e.jpg,1,3,f,5,2,302,44,j,0,0.266607502199,03,01,60.0197195337,PLT_learning_3,N,2014_Feb_25_1542,P09,
stim_fb/ques.jpg,stim_fb/negf.jpg,stim_fb/posf.jpg,stim_03/e.jpg,stim_03/f.jpg,2,3,j,5,3,303,50,f,0,0.266623553206,03,01,60.0197195337,PLT_learning_3,N,2014_Feb_25_1542,P09,
stim_fb/ques.jpg,stim_fb/negf.jpg,stim_fb/posf.jpg,stim_03/a.jpg,stim_03/b.jpg,2,1,j,5,4,304,14,j,1,0.283303912001,03,01,60.0197195337,PLT_learning_3,N,2014_Feb_25_1542,P09,
stim_fb/ques.jpg,stim_fb/negf.jpg,stim_fb/posf.jpg,stim_03/d.jpg,stim_03/c.jpg,1,2,f,5,5,305,24,f,1,0.23331263374,03,01,60.0197195337,PLT_learning_3,N,2014_Feb_25_1542,P09,
stim_fb/ques.jpg,stim_fb/negf.jpg,stim_fb/posf.jpg,stim_03/b.jpg,stim_03/a.jpg,1,1,f,5,6,306,1,j,0,0.149980526462,03,01,60.0197195337,PLT_learning_3,N,2014_Feb_25_1542,P09,
stim_fb/ques.jpg,stim_fb/posf.jpg,stim_fb/negf.jpg,stim_03/a.jpg,stim_03/b.jpg,2,1,j,5,7,307,18,f,0,0.199951437959,03,01,60.0197195337,PLT_learning_3,N,2014_Feb_25_1542,P09,
stim_fb/ques.jpg,stim_fb/negf.jpg,stim_fb/posf.jpg,stim_03/d.jpg,stim_03/c.jpg,1,2,f,5,8,308,23,j,0,0.149987687311,03,01,60.0197195337,PLT_learning_3,N,2014_Feb_25_1542,P09,
stim_fb/ques.jpg,stim_fb/negf.jpg,stim_fb/posf.jpg,stim_03/a.jpg,stim_03/b.jpg,2,1,j,5,9,309,11,f,0,0.39990931196,03,01,60.0197195337,PLT_learning_3,N,2014_Feb_25_1542,P09,
stim_fb/ques.jpg,stim_fb/negf.jpg,stim_fb/posf.jpg,stim_03/f.jpg,stim_03/e.jpg,1,3,f,5,10,310,45,j,0,0.533121041195,03,01,60.0197195337,PLT_learning_3,N,2014_Feb_25_1542,P09,
stim_fb/ques.jpg,stim_fb/negf.jpg,stim_fb/posf.jpg,stim_03/b.jpg,stim_03/a.jpg,1,1,f,5,11,311,4,f,1,0.783109333013,03,01,60.0197195337,PLT_learning_3,N,2014_Feb_25_1542,P09,
stim_fb/ques.jpg,stim_fb/negf.jpg,stim_fb/posf.jpg,stim_03/a.jpg,stim_03/b.jpg,2,1,j,5,12,312,13,j,1,0.516557842422,03,01,60.0197195337,PLT_learning_3,N,2014_Feb_25_1542,P09,
stim_fb/ques.jpg,stim_fb/negf.jpg,stim_fb/posf.jpg,stim_03/d.jpg,stim_03/c.jpg,1,2,f,5,13,313,20,f,1,0.349974361095,03,01,60.0197195337,PLT_learning_3,N,2014_Feb_25_1542,P09,
stim_fb/ques.jpg,stim_fb/posf.jpg,stim_fb/negf.jpg,stim_03/e.jpg,stim_03/f.jpg,2,3,j,5,14,314,58,j,1,0.100006375892,03,01,60.0197195337,PLT_learning_3,N,2014_Feb_25_1542,P09,
stim_fb/ques.jpg,stim_fb/posf.jpg,stim_fb/negf.jpg,stim_03/f.jpg,stim_03/e.jpg,1,3,f,5,15,315,49,f,1,0.316606873633,03,01,60.0197195337,PLT_learning_3,N,2014_Feb_25_1542,P09,
stim_fb/ques.jpg,stim_fb/negf.jpg,stim_fb/posf.jpg,stim_03/c.jpg,stim_03/d.jpg,2,2,j,5,16,316,34,j,1,0.21665217254,03,01,60.0197195337,PLT_learning_3,N,2014_Feb_25_1542,P09,
stim_fb/ques.jpg,stim_fb/negf.jpg,stim_fb/posf.jpg,stim_03/a.jpg,stim_03/b.jpg,2,1,j,5,17,317,17,f,0,0.299962289005,03,01,60.0197195337,PLT_learning_3,N,2014_Feb_25_1542,P09,
stim_fb/ques.jpg,stim_fb/negf.jpg,stim_fb/posf.jpg,stim_03/b.jpg,stim_03/a.jpg,1,1,f,5,18,318,7,j,0,0.116670280674,03,01,60.0197195337,PLT_learning_3,N,2014_Feb_25_1542,P09,
stim_fb/ques.jpg,stim_fb/negf.jpg,stim_fb/posf.jpg,stim_03/e.jpg,stim_03/f.jpg,2,3,j,5,19,319,53,j,1,0.249982715919,03,01,60.0197195337,PLT_learning_3,N,2014_Feb_25_1542,P09,
stim_fb/ques.jpg,stim_fb/posf.jpg,stim_fb/negf.jpg,stim_03/d.jpg,stim_03/c.jpg,1,2,f,5,20,320,29,j,0,0.266561962692,03,01,60.0197195337,PLT_learning_3,N,2014_Feb_25_1542,P09,
stim_fb/ques.jpg,stim_fb/posf.jpg,stim_fb/negf.jpg,stim_03/f.jpg,stim_03/e.jpg,1,3,f,5,21,321,46,j,0,0.266658259712,03,01,60.0197195337,PLT_learning_3,N,2014_Feb_25_1542,P09,
stim_fb/ques.jpg,stim_fb/posf.jpg,stim_fb/negf.jpg,stim_03/f.jpg,stim_03/e.jpg,1,3,f,5,22,322,48,j,0,0.299918809633,03,01,60.0197195337,PLT_learning_3,N,2014_Feb_25_1542,P09,
stim_fb/ques.jpg,stim_fb/negf.jpg,stim_fb/posf.jpg,stim_03/b.jpg,stim_03/a.jpg,1,1,f,5,23,323,0,j,0,0.21665451538,03,01,60.0197195337,PLT_learning_3,N,2014_Feb_25_1542,P09,
stim_fb/ques.jpg,stim_fb/negf.jpg,stim_fb/posf.jpg,stim_03/a.jpg,stim_03/b.jpg,2,1,j,5,24,324,15,j,1,0.26662093067,03,01,60.0197195337,PLT_learning_3,N,2014_Feb_25_1542,P09,
stim_fb/ques.jpg,stim_fb/posf.jpg,stim_fb/negf.jpg,stim_03/e.jpg,stim_03/f.jpg,2,3,j,5,25,325,59,j,1,0.299943567342,03,01,60.0197195337,PLT_learning_3,N,2014_Feb_25_1542,P09,
stim_fb/ques.jpg,stim_fb/negf.jpg,stim_fb/posf.jpg,stim_03/a.jpg,stim_03/b.jpg,2,1,j,5,26,326,16,j,1,0.733154243953,03,01,60.0197195337,PLT_learning_3,N,2014_Feb_25_1542,P09,
stim_fb/ques.jpg,stim_fb/negf.jpg,stim_fb/posf.jpg,stim_03/c.jpg,stim_03/d.jpg,2,2,j,5,27,327,31,f,0,0.666449656769,03,01,60.0197195337,PLT_learning_3,N,2014_Feb_25_1542,P09,
stim_fb/ques.jpg,stim_fb/negf.jpg,stim_fb/posf.jpg,stim_03/d.jpg,stim_03/c.jpg,1,2,f,5,28,328,26,j,0,0.749803114262,03,01,60.0197195337,PLT_learning_3,N,2014_Feb_25_1542,P09,
stim_fb/ques.jpg,stim_fb/posf.jpg,stim_fb/negf.jpg,stim_03/d.jpg,stim_03/c.jpg,1,2,f,5,29,329,28,f,1,0.549870912249,03,01,60.0197195337,PLT_learning_3,N,2014_Feb_25_1542,P09,
stim_fb/ques.jpg,stim_fb/negf.jpg,stim_fb/posf.jpg,stim_03/b.jpg,stim_03/a.jpg,1,1,f,5,30,330,3,f,1,0.766464366433,03,01,60.0197195337,PLT_learning_3,N,2014_Feb_25_1542,P09,
stim_fb/ques.jpg,stim_fb/negf.jpg,stim_fb/posf.jpg,stim_03/d.jpg,stim_03/c.jpg,1,2,f,5,31,331,21,f,1,0.599847095886,03,01,60.0197195337,PLT_learning_3,N,2014_Feb_25_1542,P09,
stim_fb/ques.jpg,stim_fb/posf.jpg,stim_fb/negf.jpg,stim_03/f.jpg,stim_03/e.jpg,1,3,f,5,32,332,47,j,0,0.383236180179,03,01,60.0197195337,PLT_learning_3,N,2014_Feb_25_1542,P09,
stim_fb/ques.jpg,stim_fb/posf.jpg,stim_fb/negf.jpg,stim_03/c.jpg,stim_03/d.jpg,2,2,j,5,33,333,38,f,0,0.266624106586,03,01,60.0197195337,PLT_learning_3,N,2014_Feb_25_1542,P09,
stim_fb/ques.jpg,stim_fb/negf.jpg,stim_fb/posf.jpg,stim_03/c.jpg,stim_03/d.jpg,2,2,j,5,34,334,36,j,1,0.399951501116,03,01,60.0197195337,PLT_learning_3,N,2014_Feb_25_1542,P09,
stim_fb/ques.jpg,stim_fb/posf.jpg,stim_fb/negf.jpg,stim_03/c.jpg,stim_03/d.jpg,2,2,j,5,35,335,39,f,0,0.283283205389,03,01,60.0197195337,PLT_learning_3,N,2014_Feb_25_1542,P09,
stim_fb/ques.jpg,stim_fb/negf.jpg,stim_fb/posf.jpg,stim_03/c.jpg,stim_03/d.jpg,2,2,j,5,36,336,32,j,1,0.283304203728,03,01,60.0197195337,PLT_learning_3,N,2014_Feb_25_1542,P09,
stim_fb/ques.jpg,stim_fb/negf.jpg,stim_fb/posf.jpg,stim_03/c.jpg,stim_03/d.jpg,2,2,j,5,37,337,33,f,0,0.233308399185,03,01,60.0197195337,PLT_learning_3,N,2014_Feb_25_1542,P09,
stim_fb/ques.jpg,stim_fb/posf.jpg,stim_fb/negf.jpg,stim_03/e.jpg,stim_03/f.jpg,2,3,j,5,38,338,56,j,1,0.283286826415,03,01,60.0197195337,PLT_learning_3,N,2014_Feb_25_1542,P09,
stim_fb/ques.jpg,stim_fb/negf.jpg,stim_fb/posf.jpg,stim_03/f.jpg,stim_03/e.jpg,1,3,f,5,39,339,42,f,1,0.299951437959,03,01,60.0197195337,PLT_learning_3,N,2014_Feb_25_1542,P09,
stim_fb/ques.jpg,stim_fb/negf.jpg,stim_fb/posf.jpg,stim_03/d.jpg,stim_03/c.jpg,1,2,f,5,40,340,22,f,1,0.133343379373,03,01,60.0197195337,PLT_learning_3,N,2014_Feb_25_1542,P09,
stim_fb/ques.jpg,stim_fb/negf.jpg,stim_fb/posf.jpg,stim_03/b.jpg,stim_03/a.jpg,1,1,f,5,41,341,6,j,0,0.416564621319,03,01,60.0197195337,PLT_learning_3,N,2014_Feb_25_1542,P09,
stim_fb/ques.jpg,stim_fb/negf.jpg,stim_fb/posf.jpg,stim_03/f.jpg,stim_03/e.jpg,1,3,f,5,42,342,40,f,1,0.399841201194,03,01,60.0197195337,PLT_learning_3,N,2014_Feb_25_1542,P09,
stim_fb/ques.jpg,stim_fb/posf.jpg,stim_fb/negf.jpg,stim_03/a.jpg,stim_03/b.jpg,2,1,j,5,43,343,19,f,0,0.39992493891,03,01,60.0197195337,PLT_learning_3,N,2014_Feb_25_1542,P09,
stim_fb/ques.jpg,stim_fb/negf.jpg,stim_fb/posf.jpg,stim_03/a.jpg,stim_03/b.jpg,2,1,j,5,44,344,10,f,0,0.316653408621,03,01,60.0197195337,PLT_learning_3,N,2014_Feb_25_1542,P09,
stim_fb/ques.jpg,stim_fb/posf.jpg,stim_fb/negf.jpg,stim_03/e.jpg,stim_03/f.jpg,2,3,j,5,45,345,57,j,1,0.366599571432,03,01,60.0197195337,PLT_learning_3,N,2014_Feb_25_1542,P09,
stim_fb/ques.jpg,stim_fb/negf.jpg,stim_fb/posf.jpg,stim_03/e.jpg,stim_03/f.jpg,2,3,j,5,46,346,55,j,1,0.299985242216,03,01,60.0197195337,PLT_learning_3,N,2014_Feb_25_1542,P09,
stim_fb/ques.jpg,stim_fb/posf.jpg,stim_fb/negf.jpg,stim_03/c.jpg,stim_03/d.jpg,2,2,j,5,47,347,37,j,1,0.333283653506,03,01,60.0197195337,PLT_learning_3,N,2014_Feb_25_1542,P09,
stim_fb/ques.jpg,stim_fb/negf.jpg,stim_fb/posf.jpg,stim_03/b.jpg,stim_03/a.jpg,1,1,f,5,48,348,2,f,1,0.0833553852979,03,01,60.0197195337,PLT_learning_3,N,2014_Feb_25_1542,P09,
stim_fb/ques.jpg,stim_fb/negf.jpg,stim_fb/posf.jpg,stim_03/c.jpg,stim_03/d.jpg,2,2,j,5,49,349,35,f,0,0.433235070413,03,01,60.0197195337,PLT_learning_3,N,2014_Feb_25_1542,P09,
stim_fb/ques.jpg,stim_fb/posf.jpg,stim_fb/negf.jpg,stim_03/b.jpg,stim_03/a.jpg,1,1,f,5,50,350,9,j,0,0.616523430651,03,01,60.0197195337,PLT_learning_3,N,2014_Feb_25_1542,P09,
stim_fb/ques.jpg,stim_fb/negf.jpg,stim_fb/posf.jpg,stim_03/e.jpg,stim_03/f.jpg,2,3,j,5,51,351,54,f,0,0.333247298893,03,01,60.0197195337,PLT_learning_3,N,2014_Feb_25_1542,P09,
stim_fb/ques.jpg,stim_fb/negf.jpg,stim_fb/posf.jpg,stim_03/e.jpg,stim_03/f.jpg,2,3,j,5,52,352,51,j,1,0.29982873813,03,01,60.0197195337,PLT_learning_3,N,2014_Feb_25_1542,P09,
stim_fb/ques.jpg,stim_fb/posf.jpg,stim_fb/negf.jpg,stim_03/b.jpg,stim_03/a.jpg,1,1,f,5,53,353,8,f,1,0.216659802558,03,01,60.0197195337,PLT_learning_3,N,2014_Feb_25_1542,P09,
stim_fb/ques.jpg,stim_fb/negf.jpg,stim_fb/posf.jpg,stim_03/b.jpg,stim_03/a.jpg,1,1,f,5,54,354,5,j,0,0.266617829941,03,01,60.0197195337,PLT_learning_3,N,2014_Feb_25_1542,P09,
stim_fb/ques.jpg,stim_fb/posf.jpg,stim_fb/negf.jpg,stim_03/d.jpg,stim_03/c.jpg,1,2,f,5,55,355,27,f,1,0.0333560710069,03,01,60.0197195337,PLT_learning_3,N,2014_Feb_25_1542,P09,
stim_fb/ques.jpg,stim_fb/negf.jpg,stim_fb/posf.jpg,stim_03/c.jpg,stim_03/d.jpg,2,2,j,5,56,356,30,j,1,0.0499779821205,03,01,60.0197195337,PLT_learning_3,N,2014_Feb_25_1542,P09,
stim_fb/ques.jpg,stim_fb/negf.jpg,stim_fb/posf.jpg,stim_03/e.jpg,stim_03/f.jpg,2,3,j,5,57,357,52,f,0,0.416574506959,03,01,60.0197195337,PLT_learning_3,N,2014_Feb_25_1542,P09,
stim_fb/ques.jpg,stim_fb/negf.jpg,stim_fb/posf.jpg,stim_03/a.jpg,stim_03/b.jpg,2,1,j,5,58,358,12,j,1,0.266646960549,03,01,60.0197195337,PLT_learning_3,N,2014_Feb_25_1542,P09,
stim_fb/ques.jpg,stim_fb/negf.jpg,stim_fb/posf.jpg,stim_03/f.jpg,stim_03/e.jpg,1,3,f,5,59,359,41,f,1,0.266600163909,03,01,60.0197195337,PLT_learning_3,N,2014_Feb_25_1542,P09,
