Fb3,Fb2,Fb1,Symbol2,Symbol1,PosCond,Pair,Correct,trials.thisRepN,trials.thisTrialN,trials.thisN,trials.thisIndex,Response.keys,Response.corr,Response.rt,Version,Session Number,frameRate,expName,StimCondition,date,Participant,
stim_fb/ques.jpg,stim_fb/negf.jpg,stim_fb/posf.jpg,stim_03/c.jpg,stim_03/d.jpg,2,2,j,0,0,0,32,None,0,,03,01,60.022476133,PLT_learning_3,N,2014_Feb_13_1513,P10,
stim_fb/ques.jpg,stim_fb/posf.jpg,stim_fb/negf.jpg,stim_03/a.jpg,stim_03/b.jpg,2,1,j,0,1,1,19,f,0,0.983048112991,03,01,60.022476133,PLT_learning_3,N,2014_Feb_13_1513,P10,
stim_fb/ques.jpg,stim_fb/posf.jpg,stim_fb/negf.jpg,stim_03/c.jpg,stim_03/d.jpg,2,2,j,0,2,2,37,j,1,1.03304826487,03,01,60.022476133,PLT_learning_3,N,2014_Feb_13_1513,P10,
stim_fb/ques.jpg,stim_fb/negf.jpg,stim_fb/posf.jpg,stim_03/e.jpg,stim_03/f.jpg,2,3,j,0,3,3,54,f,0,0.999723221166,03,01,60.022476133,PLT_learning_3,N,2014_Feb_13_1513,P10,
stim_fb/ques.jpg,stim_fb/negf.jpg,stim_fb/posf.jpg,stim_03/f.jpg,stim_03/e.jpg,1,3,f,0,4,4,41,j,0,1.11635200204,03,01,60.022476133,PLT_learning_3,N,2014_Feb_13_1513,P10,
stim_fb/ques.jpg,stim_fb/posf.jpg,stim_fb/negf.jpg,stim_03/f.jpg,stim_03/e.jpg,1,3,f,0,5,5,47,f,1,1.23297435292,03,01,60.022476133,PLT_learning_3,N,2014_Feb_13_1513,P10,
stim_fb/ques.jpg,stim_fb/negf.jpg,stim_fb/posf.jpg,stim_03/f.jpg,stim_03/e.jpg,1,3,f,0,6,6,44,j,0,1.349788849,03,01,60.022476133,PLT_learning_3,N,2014_Feb_13_1513,P10,
stim_fb/ques.jpg,stim_fb/negf.jpg,stim_fb/posf.jpg,stim_03/b.jpg,stim_03/a.jpg,1,1,f,0,7,7,3,f,1,1.58285252723,03,01,60.022476133,PLT_learning_3,N,2014_Feb_13_1513,P10,
stim_fb/ques.jpg,stim_fb/posf.jpg,stim_fb/negf.jpg,stim_03/c.jpg,stim_03/d.jpg,2,2,j,0,8,8,38,j,1,1.26634554046,03,01,60.022476133,PLT_learning_3,N,2014_Feb_13_1513,P10,
stim_fb/ques.jpg,stim_fb/negf.jpg,stim_fb/posf.jpg,stim_03/f.jpg,stim_03/e.jpg,1,3,f,0,9,9,43,j,0,1.43289806807,03,01,60.022476133,PLT_learning_3,N,2014_Feb_13_1513,P10,
stim_fb/ques.jpg,stim_fb/negf.jpg,stim_fb/posf.jpg,stim_03/e.jpg,stim_03/f.jpg,2,3,j,0,10,10,52,j,1,1.18293931723,03,01,60.022476133,PLT_learning_3,N,2014_Feb_13_1513,P10,
stim_fb/ques.jpg,stim_fb/posf.jpg,stim_fb/negf.jpg,stim_03/a.jpg,stim_03/b.jpg,2,1,j,0,11,11,18,j,1,1.23297428676,03,01,60.022476133,PLT_learning_3,N,2014_Feb_13_1513,P10,
stim_fb/ques.jpg,stim_fb/negf.jpg,stim_fb/posf.jpg,stim_03/a.jpg,stim_03/b.jpg,2,1,j,0,12,12,10,f,0,1.53287147889,03,01,60.022476133,PLT_learning_3,N,2014_Feb_13_1513,P10,
stim_fb/ques.jpg,stim_fb/negf.jpg,stim_fb/posf.jpg,stim_03/a.jpg,stim_03/b.jpg,2,1,j,0,13,13,11,None,0,,03,01,60.022476133,PLT_learning_3,N,2014_Feb_13_1513,P10,
stim_fb/ques.jpg,stim_fb/negf.jpg,stim_fb/posf.jpg,stim_03/d.jpg,stim_03/c.jpg,1,2,f,0,14,14,24,f,1,1.09966952553,03,01,60.022476133,PLT_learning_3,N,2014_Feb_13_1513,P10,
stim_fb/ques.jpg,stim_fb/posf.jpg,stim_fb/negf.jpg,stim_03/e.jpg,stim_03/f.jpg,2,3,j,0,15,15,56,j,1,1.2329670327,03,01,60.022476133,PLT_learning_3,N,2014_Feb_13_1513,P10,
stim_fb/ques.jpg,stim_fb/negf.jpg,stim_fb/posf.jpg,stim_03/f.jpg,stim_03/e.jpg,1,3,f,0,16,16,45,f,1,1.61615621478,03,01,60.022476133,PLT_learning_3,N,2014_Feb_13_1513,P10,
stim_fb/ques.jpg,stim_fb/negf.jpg,stim_fb/posf.jpg,stim_03/b.jpg,stim_03/a.jpg,1,1,f,0,17,17,2,j,0,0.999720854275,03,01,60.022476133,PLT_learning_3,N,2014_Feb_13_1513,P10,
stim_fb/ques.jpg,stim_fb/negf.jpg,stim_fb/posf.jpg,stim_03/d.jpg,stim_03/c.jpg,1,2,f,0,18,18,25,f,1,1.51622277343,03,01,60.022476133,PLT_learning_3,N,2014_Feb_13_1513,P10,
stim_fb/ques.jpg,stim_fb/posf.jpg,stim_fb/negf.jpg,stim_03/b.jpg,stim_03/a.jpg,1,1,f,0,19,19,9,j,0,1.24963673643,03,01,60.022476133,PLT_learning_3,N,2014_Feb_13_1513,P10,
stim_fb/ques.jpg,stim_fb/negf.jpg,stim_fb/posf.jpg,stim_03/d.jpg,stim_03/c.jpg,1,2,f,0,20,20,21,f,1,1.34961003297,03,01,60.022476133,PLT_learning_3,N,2014_Feb_13_1513,P10,
stim_fb/ques.jpg,stim_fb/negf.jpg,stim_fb/posf.jpg,stim_03/c.jpg,stim_03/d.jpg,2,2,j,0,21,21,33,j,1,1.41624908591,03,01,60.022476133,PLT_learning_3,N,2014_Feb_13_1513,P10,
stim_fb/ques.jpg,stim_fb/negf.jpg,stim_fb/posf.jpg,stim_03/a.jpg,stim_03/b.jpg,2,1,j,0,22,22,13,j,1,1.31626972027,03,01,60.022476133,PLT_learning_3,N,2014_Feb_13_1513,P10,
stim_fb/ques.jpg,stim_fb/negf.jpg,stim_fb/posf.jpg,stim_03/b.jpg,stim_03/a.jpg,1,1,f,0,23,23,1,f,1,1.39959263016,03,01,60.022476133,PLT_learning_3,N,2014_Feb_13_1513,P10,
stim_fb/ques.jpg,stim_fb/negf.jpg,stim_fb/posf.jpg,stim_03/e.jpg,stim_03/f.jpg,2,3,j,0,24,24,50,j,1,1.44960087217,03,01,60.022476133,PLT_learning_3,N,2014_Feb_13_1513,P10,
stim_fb/ques.jpg,stim_fb/negf.jpg,stim_fb/posf.jpg,stim_03/b.jpg,stim_03/a.jpg,1,1,f,0,25,25,6,j,0,1.61618087315,03,01,60.022476133,PLT_learning_3,N,2014_Feb_13_1513,P10,
stim_fb/ques.jpg,stim_fb/negf.jpg,stim_fb/posf.jpg,stim_03/b.jpg,stim_03/a.jpg,1,1,f,0,26,26,5,j,0,1.66615906437,03,01,60.022476133,PLT_learning_3,N,2014_Feb_13_1513,P10,
stim_fb/ques.jpg,stim_fb/posf.jpg,stim_fb/negf.jpg,stim_03/d.jpg,stim_03/c.jpg,1,2,f,0,27,27,27,f,1,1.58290216276,03,01,60.022476133,PLT_learning_3,N,2014_Feb_13_1513,P10,
stim_fb/ques.jpg,stim_fb/negf.jpg,stim_fb/posf.jpg,stim_03/d.jpg,stim_03/c.jpg,1,2,f,0,28,28,20,f,1,1.44952379936,03,01,60.022476133,PLT_learning_3,N,2014_Feb_13_1513,P10,
stim_fb/ques.jpg,stim_fb/negf.jpg,stim_fb/posf.jpg,stim_03/d.jpg,stim_03/c.jpg,1,2,f,0,29,29,26,j,0,1.08301767724,03,01,60.022476133,PLT_learning_3,N,2014_Feb_13_1513,P10,
stim_fb/ques.jpg,stim_fb/negf.jpg,stim_fb/posf.jpg,stim_03/a.jpg,stim_03/b.jpg,2,1,j,0,30,30,12,j,1,1.31627405405,03,01,60.022476133,PLT_learning_3,N,2014_Feb_13_1513,P10,
stim_fb/ques.jpg,stim_fb/posf.jpg,stim_fb/negf.jpg,stim_03/f.jpg,stim_03/e.jpg,1,3,f,0,31,31,48,f,1,1.26630416349,03,01,60.022476133,PLT_learning_3,N,2014_Feb_13_1513,P10,
stim_fb/ques.jpg,stim_fb/posf.jpg,stim_fb/negf.jpg,stim_03/e.jpg,stim_03/f.jpg,2,3,j,0,32,32,59,f,0,1.33293864205,03,01,60.022476133,PLT_learning_3,N,2014_Feb_13_1513,P10,
stim_fb/ques.jpg,stim_fb/negf.jpg,stim_fb/posf.jpg,stim_03/e.jpg,stim_03/f.jpg,2,3,j,0,33,33,51,j,1,0.78311653628,03,01,60.022476133,PLT_learning_3,N,2014_Feb_13_1513,P10,
stim_fb/ques.jpg,stim_fb/negf.jpg,stim_fb/posf.jpg,stim_03/d.jpg,stim_03/c.jpg,1,2,f,0,34,34,22,f,1,1.36626334289,03,01,60.022476133,PLT_learning_3,N,2014_Feb_13_1513,P10,
stim_fb/ques.jpg,stim_fb/negf.jpg,stim_fb/posf.jpg,stim_03/b.jpg,stim_03/a.jpg,1,1,f,0,35,35,4,j,0,1.39958740014,03,01,60.022476133,PLT_learning_3,N,2014_Feb_13_1513,P10,
stim_fb/ques.jpg,stim_fb/posf.jpg,stim_fb/negf.jpg,stim_03/c.jpg,stim_03/d.jpg,2,2,j,0,36,36,39,None,0,,03,01,60.022476133,PLT_learning_3,N,2014_Feb_13_1513,P10,
stim_fb/ques.jpg,stim_fb/negf.jpg,stim_fb/posf.jpg,stim_03/c.jpg,stim_03/d.jpg,2,2,j,0,37,37,35,j,1,1.21632650158,03,01,60.022476133,PLT_learning_3,N,2014_Feb_13_1513,P10,
stim_fb/ques.jpg,stim_fb/negf.jpg,stim_fb/posf.jpg,stim_03/a.jpg,stim_03/b.jpg,2,1,j,0,38,38,15,f,0,1.03304843329,03,01,60.022476133,PLT_learning_3,N,2014_Feb_13_1513,P10,
stim_fb/ques.jpg,stim_fb/negf.jpg,stim_fb/posf.jpg,stim_03/a.jpg,stim_03/b.jpg,2,1,j,0,39,39,14,j,1,0.999717124995,03,01,60.022476133,PLT_learning_3,N,2014_Feb_13_1513,P10,
stim_fb/ques.jpg,stim_fb/negf.jpg,stim_fb/posf.jpg,stim_03/a.jpg,stim_03/b.jpg,2,1,j,0,40,40,16,f,0,1.13294382093,03,01,60.022476133,PLT_learning_3,N,2014_Feb_13_1513,P10,
stim_fb/ques.jpg,stim_fb/negf.jpg,stim_fb/posf.jpg,stim_03/f.jpg,stim_03/e.jpg,1,3,f,0,41,41,40,j,0,0.9331054943,03,01,60.022476133,PLT_learning_3,N,2014_Feb_13_1513,P10,
stim_fb/ques.jpg,stim_fb/posf.jpg,stim_fb/negf.jpg,stim_03/e.jpg,stim_03/f.jpg,2,3,j,0,42,42,57,j,1,1.41627093228,03,01,60.022476133,PLT_learning_3,N,2014_Feb_13_1513,P10,
stim_fb/ques.jpg,stim_fb/negf.jpg,stim_fb/posf.jpg,stim_03/b.jpg,stim_03/a.jpg,1,1,f,0,43,43,7,f,1,1.34960556685,03,01,60.022476133,PLT_learning_3,N,2014_Feb_13_1513,P10,
stim_fb/ques.jpg,stim_fb/negf.jpg,stim_fb/posf.jpg,stim_03/a.jpg,stim_03/b.jpg,2,1,j,0,44,44,17,f,0,1.34955834032,03,01,60.022476133,PLT_learning_3,N,2014_Feb_13_1513,P10,
stim_fb/ques.jpg,stim_fb/negf.jpg,stim_fb/posf.jpg,stim_03/e.jpg,stim_03/f.jpg,2,3,j,0,45,45,55,j,1,1.28296654098,03,01,60.022476133,PLT_learning_3,N,2014_Feb_13_1513,P10,
stim_fb/ques.jpg,stim_fb/negf.jpg,stim_fb/posf.jpg,stim_03/c.jpg,stim_03/d.jpg,2,2,j,0,46,46,36,f,0,1.43292176705,03,01,60.022476133,PLT_learning_3,N,2014_Feb_13_1513,P10,
stim_fb/ques.jpg,stim_fb/negf.jpg,stim_fb/posf.jpg,stim_03/c.jpg,stim_03/d.jpg,2,2,j,0,47,47,31,f,0,1.48283775145,03,01,60.022476133,PLT_learning_3,N,2014_Feb_13_1513,P10,
stim_fb/ques.jpg,stim_fb/posf.jpg,stim_fb/negf.jpg,stim_03/d.jpg,stim_03/c.jpg,1,2,f,0,48,48,28,f,1,1.51621775093,03,01,60.022476133,PLT_learning_3,N,2014_Feb_13_1513,P10,
stim_fb/ques.jpg,stim_fb/negf.jpg,stim_fb/posf.jpg,stim_03/b.jpg,stim_03/a.jpg,1,1,f,0,49,49,0,j,0,0.91642408845,03,01,60.022476133,PLT_learning_3,N,2014_Feb_13_1513,P10,
stim_fb/ques.jpg,stim_fb/posf.jpg,stim_fb/negf.jpg,stim_03/e.jpg,stim_03/f.jpg,2,3,j,0,50,50,58,j,1,1.46622682902,03,01,60.022476133,PLT_learning_3,N,2014_Feb_13_1513,P10,
stim_fb/ques.jpg,stim_fb/negf.jpg,stim_fb/posf.jpg,stim_03/c.jpg,stim_03/d.jpg,2,2,j,0,51,51,34,None,0,,03,01,60.022476133,PLT_learning_3,N,2014_Feb_13_1513,P10,
stim_fb/ques.jpg,stim_fb/negf.jpg,stim_fb/posf.jpg,stim_03/f.jpg,stim_03/e.jpg,1,3,f,0,52,52,42,f,1,1.31628025849,03,01,60.022476133,PLT_learning_3,N,2014_Feb_13_1513,P10,
stim_fb/ques.jpg,stim_fb/posf.jpg,stim_fb/negf.jpg,stim_03/f.jpg,stim_03/e.jpg,1,3,f,0,53,53,49,j,0,1.18303905445,03,01,60.022476133,PLT_learning_3,N,2014_Feb_13_1513,P10,
stim_fb/ques.jpg,stim_fb/posf.jpg,stim_fb/negf.jpg,stim_03/f.jpg,stim_03/e.jpg,1,3,f,0,54,54,46,f,1,1.39959226024,03,01,60.022476133,PLT_learning_3,N,2014_Feb_13_1513,P10,
stim_fb/ques.jpg,stim_fb/negf.jpg,stim_fb/posf.jpg,stim_03/c.jpg,stim_03/d.jpg,2,2,j,0,55,55,30,j,1,0.966219872708,03,01,60.022476133,PLT_learning_3,N,2014_Feb_13_1513,P10,
stim_fb/ques.jpg,stim_fb/negf.jpg,stim_fb/posf.jpg,stim_03/d.jpg,stim_03/c.jpg,1,2,f,0,56,56,23,f,1,1.18302295839,03,01,60.022476133,PLT_learning_3,N,2014_Feb_13_1513,P10,
stim_fb/ques.jpg,stim_fb/negf.jpg,stim_fb/posf.jpg,stim_03/e.jpg,stim_03/f.jpg,2,3,j,0,57,57,53,j,1,1.26629198919,03,01,60.022476133,PLT_learning_3,N,2014_Feb_13_1513,P10,
stim_fb/ques.jpg,stim_fb/posf.jpg,stim_fb/negf.jpg,stim_03/d.jpg,stim_03/c.jpg,1,2,f,0,58,58,29,j,0,1.46617520554,03,01,60.022476133,PLT_learning_3,N,2014_Feb_13_1513,P10,
stim_fb/ques.jpg,stim_fb/posf.jpg,stim_fb/negf.jpg,stim_03/b.jpg,stim_03/a.jpg,1,1,f,0,59,59,8,f,1,1.24966905787,03,01,60.022476133,PLT_learning_3,N,2014_Feb_13_1513,P10,
stim_fb/ques.jpg,stim_fb/posf.jpg,stim_fb/negf.jpg,stim_03/a.jpg,stim_03/b.jpg,2,1,j,1,0,60,19,j,1,0.882911789717,03,01,60.022476133,PLT_learning_3,N,2014_Feb_13_1513,P10,
stim_fb/ques.jpg,stim_fb/negf.jpg,stim_fb/posf.jpg,stim_03/f.jpg,stim_03/e.jpg,1,3,f,1,1,61,43,f,1,1.06636835524,03,01,60.022476133,PLT_learning_3,N,2014_Feb_13_1513,P10,
stim_fb/ques.jpg,stim_fb/negf.jpg,stim_fb/posf.jpg,stim_03/c.jpg,stim_03/d.jpg,2,2,j,1,2,62,32,j,1,0.949736936802,03,01,60.022476133,PLT_learning_3,N,2014_Feb_13_1513,P10,
stim_fb/ques.jpg,stim_fb/posf.jpg,stim_fb/negf.jpg,stim_03/f.jpg,stim_03/e.jpg,1,3,f,1,3,63,49,f,1,1.18299055875,03,01,60.022476133,PLT_learning_3,N,2014_Feb_13_1513,P10,
stim_fb/ques.jpg,stim_fb/negf.jpg,stim_fb/posf.jpg,stim_03/f.jpg,stim_03/e.jpg,1,3,f,1,4,64,41,j,0,0.91641012169,03,01,60.022476133,PLT_learning_3,N,2014_Feb_13_1513,P10,
stim_fb/ques.jpg,stim_fb/negf.jpg,stim_fb/posf.jpg,stim_03/b.jpg,stim_03/a.jpg,1,1,f,1,5,65,7,f,1,1.31627498036,03,01,60.022476133,PLT_learning_3,N,2014_Feb_13_1513,P10,
stim_fb/ques.jpg,stim_fb/posf.jpg,stim_fb/negf.jpg,stim_03/d.jpg,stim_03/c.jpg,1,2,f,1,6,66,28,j,0,1.29961275023,03,01,60.022476133,PLT_learning_3,N,2014_Feb_13_1513,P10,
stim_fb/ques.jpg,stim_fb/negf.jpg,stim_fb/posf.jpg,stim_03/c.jpg,stim_03/d.jpg,2,2,j,1,7,67,35,f,0,1.36626259102,03,01,60.022476133,PLT_learning_3,N,2014_Feb_13_1513,P10,
stim_fb/ques.jpg,stim_fb/negf.jpg,stim_fb/posf.jpg,stim_03/e.jpg,stim_03/f.jpg,2,3,j,1,8,68,50,j,1,1.26625870235,03,01,60.022476133,PLT_learning_3,N,2014_Feb_13_1513,P10,
stim_fb/ques.jpg,stim_fb/negf.jpg,stim_fb/posf.jpg,stim_03/b.jpg,stim_03/a.jpg,1,1,f,1,9,69,3,j,0,0.866434137961,03,01,60.022476133,PLT_learning_3,N,2014_Feb_13_1513,P10,
stim_fb/ques.jpg,stim_fb/negf.jpg,stim_fb/posf.jpg,stim_03/a.jpg,stim_03/b.jpg,2,1,j,1,10,70,17,f,0,0.583202084188,03,01,60.022476133,PLT_learning_3,N,2014_Feb_13_1513,P10,
stim_fb/ques.jpg,stim_fb/posf.jpg,stim_fb/negf.jpg,stim_03/e.jpg,stim_03/f.jpg,2,3,j,1,11,71,57,f,0,1.36629244031,03,01,60.022476133,PLT_learning_3,N,2014_Feb_13_1513,P10,
stim_fb/ques.jpg,stim_fb/negf.jpg,stim_fb/posf.jpg,stim_03/d.jpg,stim_03/c.jpg,1,2,f,1,12,72,20,j,0,0.999712679932,03,01,60.022476133,PLT_learning_3,N,2014_Feb_13_1513,P10,
stim_fb/ques.jpg,stim_fb/posf.jpg,stim_fb/negf.jpg,stim_03/b.jpg,stim_03/a.jpg,1,1,f,1,13,73,8,j,0,1.26629370345,03,01,60.022476133,PLT_learning_3,N,2014_Feb_13_1513,P10,
stim_fb/ques.jpg,stim_fb/posf.jpg,stim_fb/negf.jpg,stim_03/c.jpg,stim_03/d.jpg,2,2,j,1,14,74,38,f,0,1.6827045319,03,01,60.022476133,PLT_learning_3,N,2014_Feb_13_1513,P10,
stim_fb/ques.jpg,stim_fb/negf.jpg,stim_fb/posf.jpg,stim_03/a.jpg,stim_03/b.jpg,2,1,j,1,15,75,15,f,0,1.54956021398,03,01,60.022476133,PLT_learning_3,N,2014_Feb_13_1513,P10,
stim_fb/ques.jpg,stim_fb/posf.jpg,stim_fb/negf.jpg,stim_03/d.jpg,stim_03/c.jpg,1,2,f,1,16,76,27,j,0,1.3995964617,03,01,60.022476133,PLT_learning_3,N,2014_Feb_13_1513,P10,
stim_fb/ques.jpg,stim_fb/negf.jpg,stim_fb/posf.jpg,stim_03/b.jpg,stim_03/a.jpg,1,1,f,1,17,77,4,None,0,,03,01,60.022476133,PLT_learning_3,N,2014_Feb_13_1513,P10,
stim_fb/ques.jpg,stim_fb/negf.jpg,stim_fb/posf.jpg,stim_03/b.jpg,stim_03/a.jpg,1,1,f,1,18,78,1,j,0,0.949761062844,03,01,60.022476133,PLT_learning_3,N,2014_Feb_13_1513,P10,
stim_fb/ques.jpg,stim_fb/negf.jpg,stim_fb/posf.jpg,stim_03/f.jpg,stim_03/e.jpg,1,3,f,1,19,79,40,f,1,1.16627439841,03,01,60.022476133,PLT_learning_3,N,2014_Feb_13_1513,P10,
stim_fb/ques.jpg,stim_fb/negf.jpg,stim_fb/posf.jpg,stim_03/e.jpg,stim_03/f.jpg,2,3,j,1,20,80,54,j,1,0.716475029229,03,01,60.022476133,PLT_learning_3,N,2014_Feb_13_1513,P10,
stim_fb/ques.jpg,stim_fb/negf.jpg,stim_fb/posf.jpg,stim_03/e.jpg,stim_03/f.jpg,2,3,j,1,21,81,55,f,0,0.649843931084,03,01,60.022476133,PLT_learning_3,N,2014_Feb_13_1513,P10,
stim_fb/ques.jpg,stim_fb/negf.jpg,stim_fb/posf.jpg,stim_03/e.jpg,stim_03/f.jpg,2,3,j,1,22,82,51,j,1,1.44956781089,03,01,60.022476133,PLT_learning_3,N,2014_Feb_13_1513,P10,
stim_fb/ques.jpg,stim_fb/posf.jpg,stim_fb/negf.jpg,stim_03/d.jpg,stim_03/c.jpg,1,2,f,1,23,83,29,f,1,1.38289453277,03,01,60.022476133,PLT_learning_3,N,2014_Feb_13_1513,P10,
stim_fb/ques.jpg,stim_fb/negf.jpg,stim_fb/posf.jpg,stim_03/b.jpg,stim_03/a.jpg,1,1,f,1,24,84,6,j,0,1.09968468626,03,01,60.022476133,PLT_learning_3,N,2014_Feb_13_1513,P10,
stim_fb/ques.jpg,stim_fb/negf.jpg,stim_fb/posf.jpg,stim_03/f.jpg,stim_03/e.jpg,1,3,f,1,25,85,44,j,0,1.46624623933,03,01,60.022476133,PLT_learning_3,N,2014_Feb_13_1513,P10,
stim_fb/ques.jpg,stim_fb/negf.jpg,stim_fb/posf.jpg,stim_03/f.jpg,stim_03/e.jpg,1,3,f,1,26,86,45,j,0,1.49955685312,03,01,60.022476133,PLT_learning_3,N,2014_Feb_13_1513,P10,
stim_fb/ques.jpg,stim_fb/negf.jpg,stim_fb/posf.jpg,stim_03/c.jpg,stim_03/d.jpg,2,2,j,1,27,87,33,f,0,0.799803136055,03,01,60.022476133,PLT_learning_3,N,2014_Feb_13_1513,P10,
stim_fb/ques.jpg,stim_fb/negf.jpg,stim_fb/posf.jpg,stim_03/f.jpg,stim_03/e.jpg,1,3,f,1,28,88,42,j,0,1.13300760668,03,01,60.022476133,PLT_learning_3,N,2014_Feb_13_1513,P10,
stim_fb/ques.jpg,stim_fb/negf.jpg,stim_fb/posf.jpg,stim_03/a.jpg,stim_03/b.jpg,2,1,j,1,29,89,11,f,0,1.216271221,03,01,60.022476133,PLT_learning_3,N,2014_Feb_13_1513,P10,
stim_fb/ques.jpg,stim_fb/negf.jpg,stim_fb/posf.jpg,stim_03/c.jpg,stim_03/d.jpg,2,2,j,1,30,90,36,f,0,1.13302721248,03,01,60.022476133,PLT_learning_3,N,2014_Feb_13_1513,P10,
stim_fb/ques.jpg,stim_fb/posf.jpg,stim_fb/negf.jpg,stim_03/f.jpg,stim_03/e.jpg,1,3,f,1,31,91,48,j,0,1.21630316049,03,01,60.022476133,PLT_learning_3,N,2014_Feb_13_1513,P10,
stim_fb/ques.jpg,stim_fb/negf.jpg,stim_fb/posf.jpg,stim_03/a.jpg,stim_03/b.jpg,2,1,j,1,32,92,13,j,1,1.48286569099,03,01,60.022476133,PLT_learning_3,N,2014_Feb_13_1513,P10,
stim_fb/ques.jpg,stim_fb/posf.jpg,stim_fb/negf.jpg,stim_03/b.jpg,stim_03/a.jpg,1,1,f,1,33,93,9,j,0,1.38291517615,03,01,60.022476133,PLT_learning_3,N,2014_Feb_13_1513,P10,
stim_fb/ques.jpg,stim_fb/negf.jpg,stim_fb/posf.jpg,stim_03/a.jpg,stim_03/b.jpg,2,1,j,1,34,94,10,j,1,1.39959282565,03,01,60.022476133,PLT_learning_3,N,2014_Feb_13_1513,P10,
stim_fb/ques.jpg,stim_fb/negf.jpg,stim_fb/posf.jpg,stim_03/b.jpg,stim_03/a.jpg,1,1,f,1,35,95,2,f,1,1.24961888099,03,01,60.022476133,PLT_learning_3,N,2014_Feb_13_1513,P10,
stim_fb/ques.jpg,stim_fb/posf.jpg,stim_fb/negf.jpg,stim_03/e.jpg,stim_03/f.jpg,2,3,j,1,36,96,56,j,1,1.63281596072,03,01,60.022476133,PLT_learning_3,N,2014_Feb_13_1513,P10,
stim_fb/ques.jpg,stim_fb/negf.jpg,stim_fb/posf.jpg,stim_03/c.jpg,stim_03/d.jpg,2,2,j,1,37,97,31,f,0,0.849779258127,03,01,60.022476133,PLT_learning_3,N,2014_Feb_13_1513,P10,
stim_fb/ques.jpg,stim_fb/negf.jpg,stim_fb/posf.jpg,stim_03/c.jpg,stim_03/d.jpg,2,2,j,1,38,98,34,f,0,1.24964484762,03,01,60.022476133,PLT_learning_3,N,2014_Feb_13_1513,P10,
stim_fb/ques.jpg,stim_fb/negf.jpg,stim_fb/posf.jpg,stim_03/d.jpg,stim_03/c.jpg,1,2,f,1,39,99,22,f,1,1.41627036086,03,01,60.022476133,PLT_learning_3,N,2014_Feb_13_1513,P10,
stim_fb/ques.jpg,stim_fb/negf.jpg,stim_fb/posf.jpg,stim_03/a.jpg,stim_03/b.jpg,2,1,j,1,40,100,16,j,1,1.36633154964,03,01,60.022476133,PLT_learning_3,N,2014_Feb_13_1513,P10,
stim_fb/ques.jpg,stim_fb/posf.jpg,stim_fb/negf.jpg,stim_03/f.jpg,stim_03/e.jpg,1,3,f,1,41,101,47,j,0,1.2829618463,03,01,60.022476133,PLT_learning_3,N,2014_Feb_13_1513,P10,
stim_fb/ques.jpg,stim_fb/negf.jpg,stim_fb/posf.jpg,stim_03/a.jpg,stim_03/b.jpg,2,1,j,1,42,102,12,f,0,1.38298682045,03,01,60.022476133,PLT_learning_3,N,2014_Feb_13_1513,P10,
stim_fb/ques.jpg,stim_fb/negf.jpg,stim_fb/posf.jpg,stim_03/d.jpg,stim_03/c.jpg,1,2,f,1,43,103,24,j,0,0.999718249794,03,01,60.022476133,PLT_learning_3,N,2014_Feb_13_1513,P10,
stim_fb/ques.jpg,stim_fb/posf.jpg,stim_fb/negf.jpg,stim_03/f.jpg,stim_03/e.jpg,1,3,f,1,44,104,46,f,1,1.23301042169,03,01,60.022476133,PLT_learning_3,N,2014_Feb_13_1513,P10,
stim_fb/ques.jpg,stim_fb/posf.jpg,stim_fb/negf.jpg,stim_03/c.jpg,stim_03/d.jpg,2,2,j,1,45,105,39,f,0,1.14967158415,03,01,60.022476133,PLT_learning_3,N,2014_Feb_13_1513,P10,
stim_fb/ques.jpg,stim_fb/posf.jpg,stim_fb/negf.jpg,stim_03/e.jpg,stim_03/f.jpg,2,3,j,1,46,106,59,j,1,0.899790444468,03,01,60.022476133,PLT_learning_3,N,2014_Feb_13_1513,P10,
stim_fb/ques.jpg,stim_fb/negf.jpg,stim_fb/posf.jpg,stim_03/b.jpg,stim_03/a.jpg,1,1,f,1,47,107,0,j,0,1.0163778995,03,01,60.022476133,PLT_learning_3,N,2014_Feb_13_1513,P10,
stim_fb/ques.jpg,stim_fb/negf.jpg,stim_fb/posf.jpg,stim_03/a.jpg,stim_03/b.jpg,2,1,j,1,48,108,14,f,0,1.33290472964,03,01,60.022476133,PLT_learning_3,N,2014_Feb_13_1513,P10,
stim_fb/ques.jpg,stim_fb/negf.jpg,stim_fb/posf.jpg,stim_03/b.jpg,stim_03/a.jpg,1,1,f,1,49,109,5,j,0,0.816454782842,03,01,60.022476133,PLT_learning_3,N,2014_Feb_13_1513,P10,
stim_fb/ques.jpg,stim_fb/negf.jpg,stim_fb/posf.jpg,stim_03/d.jpg,stim_03/c.jpg,1,2,f,1,50,110,26,j,0,1.11636642294,03,01,60.022476133,PLT_learning_3,N,2014_Feb_13_1513,P10,
stim_fb/ques.jpg,stim_fb/negf.jpg,stim_fb/posf.jpg,stim_03/d.jpg,stim_03/c.jpg,1,2,f,1,51,111,21,f,1,1.19964931824,03,01,60.022476133,PLT_learning_3,N,2014_Feb_13_1513,P10,
stim_fb/ques.jpg,stim_fb/negf.jpg,stim_fb/posf.jpg,stim_03/e.jpg,stim_03/f.jpg,2,3,j,1,52,112,52,j,1,1.11635312684,03,01,60.022476133,PLT_learning_3,N,2014_Feb_13_1513,P10,
stim_fb/ques.jpg,stim_fb/posf.jpg,stim_fb/negf.jpg,stim_03/c.jpg,stim_03/d.jpg,2,2,j,1,53,113,37,j,1,1.08305861814,03,01,60.022476133,PLT_learning_3,N,2014_Feb_13_1513,P10,
stim_fb/ques.jpg,stim_fb/negf.jpg,stim_fb/posf.jpg,stim_03/e.jpg,stim_03/f.jpg,2,3,j,1,54,114,53,f,0,0.93307281196,03,01,60.022476133,PLT_learning_3,N,2014_Feb_13_1513,P10,
stim_fb/ques.jpg,stim_fb/negf.jpg,stim_fb/posf.jpg,stim_03/c.jpg,stim_03/d.jpg,2,2,j,1,55,115,30,f,0,0.933062135389,03,01,60.022476133,PLT_learning_3,N,2014_Feb_13_1513,P10,
stim_fb/ques.jpg,stim_fb/posf.jpg,stim_fb/negf.jpg,stim_03/a.jpg,stim_03/b.jpg,2,1,j,1,56,116,18,f,0,1.29961576373,03,01,60.022476133,PLT_learning_3,N,2014_Feb_13_1513,P10,
stim_fb/ques.jpg,stim_fb/negf.jpg,stim_fb/posf.jpg,stim_03/d.jpg,stim_03/c.jpg,1,2,f,1,57,117,25,j,0,0.933076523197,03,01,60.022476133,PLT_learning_3,N,2014_Feb_13_1513,P10,
stim_fb/ques.jpg,stim_fb/negf.jpg,stim_fb/posf.jpg,stim_03/d.jpg,stim_03/c.jpg,1,2,f,1,58,118,23,f,1,1.23303323346,03,01,60.022476133,PLT_learning_3,N,2014_Feb_13_1513,P10,
stim_fb/ques.jpg,stim_fb/posf.jpg,stim_fb/negf.jpg,stim_03/e.jpg,stim_03/f.jpg,2,3,j,1,59,119,58,j,1,1.31626349176,03,01,60.022476133,PLT_learning_3,N,2014_Feb_13_1513,P10,
stim_fb/ques.jpg,stim_fb/posf.jpg,stim_fb/negf.jpg,stim_03/d.jpg,stim_03/c.jpg,1,2,f,2,0,120,28,f,1,1.23297144468,03,01,60.022476133,PLT_learning_3,N,2014_Feb_13_1513,P10,
stim_fb/ques.jpg,stim_fb/negf.jpg,stim_fb/posf.jpg,stim_03/b.jpg,stim_03/a.jpg,1,1,f,2,1,121,7,j,0,1.34960130525,03,01,60.022476133,PLT_learning_3,N,2014_Feb_13_1513,P10,
stim_fb/ques.jpg,stim_fb/negf.jpg,stim_fb/posf.jpg,stim_03/b.jpg,stim_03/a.jpg,1,1,f,2,2,122,3,f,1,1.28296784021,03,01,60.022476133,PLT_learning_3,N,2014_Feb_13_1513,P10,
stim_fb/ques.jpg,stim_fb/posf.jpg,stim_fb/negf.jpg,stim_03/e.jpg,stim_03/f.jpg,2,3,j,2,3,123,57,j,1,0.999713170151,03,01,60.022476133,PLT_learning_3,N,2014_Feb_13_1513,P10,
stim_fb/ques.jpg,stim_fb/negf.jpg,stim_fb/posf.jpg,stim_03/c.jpg,stim_03/d.jpg,2,2,j,2,4,124,33,j,1,1.31623710409,03,01,60.022476133,PLT_learning_3,N,2014_Feb_13_1513,P10,
stim_fb/ques.jpg,stim_fb/negf.jpg,stim_fb/posf.jpg,stim_03/a.jpg,stim_03/b.jpg,2,1,j,2,5,125,14,j,1,1.38290527851,03,01,60.022476133,PLT_learning_3,N,2014_Feb_13_1513,P10,
stim_fb/ques.jpg,stim_fb/negf.jpg,stim_fb/posf.jpg,stim_03/d.jpg,stim_03/c.jpg,1,2,f,2,6,126,21,j,0,1.48288763961,03,01,60.022476133,PLT_learning_3,N,2014_Feb_13_1513,P10,
stim_fb/ques.jpg,stim_fb/posf.jpg,stim_fb/negf.jpg,stim_03/d.jpg,stim_03/c.jpg,1,2,f,2,7,127,29,f,1,1.49954175554,03,01,60.022476133,PLT_learning_3,N,2014_Feb_13_1513,P10,
stim_fb/ques.jpg,stim_fb/negf.jpg,stim_fb/posf.jpg,stim_03/e.jpg,stim_03/f.jpg,2,3,j,2,8,128,52,f,0,1.4162639068,03,01,60.022476133,PLT_learning_3,N,2014_Feb_13_1513,P10,
stim_fb/ques.jpg,stim_fb/negf.jpg,stim_fb/posf.jpg,stim_03/b.jpg,stim_03/a.jpg,1,1,f,2,9,129,0,j,0,1.29962710496,03,01,60.022476133,PLT_learning_3,N,2014_Feb_13_1513,P10,
stim_fb/ques.jpg,stim_fb/negf.jpg,stim_fb/posf.jpg,stim_03/a.jpg,stim_03/b.jpg,2,1,j,2,10,130,15,j,1,1.59971360924,03,01,60.022476133,PLT_learning_3,N,2014_Feb_13_1513,P10,
stim_fb/ques.jpg,stim_fb/negf.jpg,stim_fb/posf.jpg,stim_03/e.jpg,stim_03/f.jpg,2,3,j,2,11,131,51,f,0,1.44957570554,03,01,60.022476133,PLT_learning_3,N,2014_Feb_13_1513,P10,
stim_fb/ques.jpg,stim_fb/negf.jpg,stim_fb/posf.jpg,stim_03/b.jpg,stim_03/a.jpg,1,1,f,2,12,132,1,j,0,0.883075613434,03,01,60.022476133,PLT_learning_3,N,2014_Feb_13_1513,P10,
stim_fb/ques.jpg,stim_fb/negf.jpg,stim_fb/posf.jpg,stim_03/e.jpg,stim_03/f.jpg,2,3,j,2,13,133,54,f,0,1.2996297756,03,01,60.022476133,PLT_learning_3,N,2014_Feb_13_1513,P10,
stim_fb/ques.jpg,stim_fb/negf.jpg,stim_fb/posf.jpg,stim_03/c.jpg,stim_03/d.jpg,2,2,j,2,14,134,36,j,1,1.19965551667,03,01,60.022476133,PLT_learning_3,N,2014_Feb_13_1513,P10,
stim_fb/ques.jpg,stim_fb/negf.jpg,stim_fb/posf.jpg,stim_03/f.jpg,stim_03/e.jpg,1,3,f,2,15,135,42,j,0,1.58285548358,03,01,60.022476133,PLT_learning_3,N,2014_Feb_13_1513,P10,
stim_fb/ques.jpg,stim_fb/negf.jpg,stim_fb/posf.jpg,stim_03/f.jpg,stim_03/e.jpg,1,3,f,2,16,136,40,f,1,1.24962742526,03,01,60.022476133,PLT_learning_3,N,2014_Feb_13_1513,P10,
stim_fb/ques.jpg,stim_fb/negf.jpg,stim_fb/posf.jpg,stim_03/d.jpg,stim_03/c.jpg,1,2,f,2,17,137,25,f,1,1.13301117657,03,01,60.022476133,PLT_learning_3,N,2014_Feb_13_1513,P10,
stim_fb/ques.jpg,stim_fb/negf.jpg,stim_fb/posf.jpg,stim_03/b.jpg,stim_03/a.jpg,1,1,f,2,18,138,2,j,0,1.09969792221,03,01,60.022476133,PLT_learning_3,N,2014_Feb_13_1513,P10,
stim_fb/ques.jpg,stim_fb/posf.jpg,stim_fb/negf.jpg,stim_03/f.jpg,stim_03/e.jpg,1,3,f,2,19,139,48,j,0,1.3162944057,03,01,60.022476133,PLT_learning_3,N,2014_Feb_13_1513,P10,
stim_fb/ques.jpg,stim_fb/posf.jpg,stim_fb/negf.jpg,stim_03/b.jpg,stim_03/a.jpg,1,1,f,2,20,140,8,f,1,1.33293131882,03,01,60.022476133,PLT_learning_3,N,2014_Feb_13_1513,P10,
stim_fb/ques.jpg,stim_fb/negf.jpg,stim_fb/posf.jpg,stim_03/a.jpg,stim_03/b.jpg,2,1,j,2,21,141,17,j,1,1.51622341102,03,01,60.022476133,PLT_learning_3,N,2014_Feb_13_1513,P10,
stim_fb/ques.jpg,stim_fb/negf.jpg,stim_fb/posf.jpg,stim_03/d.jpg,stim_03/c.jpg,1,2,f,2,22,142,26,j,0,1.38289894776,03,01,60.022476133,PLT_learning_3,N,2014_Feb_13_1513,P10,
stim_fb/ques.jpg,stim_fb/posf.jpg,stim_fb/negf.jpg,stim_03/c.jpg,stim_03/d.jpg,2,2,j,2,23,143,38,j,1,1.43291119273,03,01,60.022476133,PLT_learning_3,N,2014_Feb_13_1513,P10,
stim_fb/ques.jpg,stim_fb/posf.jpg,stim_fb/negf.jpg,stim_03/e.jpg,stim_03/f.jpg,2,3,j,2,24,144,56,j,1,1.48291254159,03,01,60.022476133,PLT_learning_3,N,2014_Feb_13_1513,P10,
stim_fb/ques.jpg,stim_fb/negf.jpg,stim_fb/posf.jpg,stim_03/c.jpg,stim_03/d.jpg,2,2,j,2,25,145,34,f,0,1.01638674451,03,01,60.022476133,PLT_learning_3,N,2014_Feb_13_1513,P10,
stim_fb/ques.jpg,stim_fb/posf.jpg,stim_fb/negf.jpg,stim_03/c.jpg,stim_03/d.jpg,2,2,j,2,26,146,37,f,0,1.14965939181,03,01,60.022476133,PLT_learning_3,N,2014_Feb_13_1513,P10,
stim_fb/ques.jpg,stim_fb/negf.jpg,stim_fb/posf.jpg,stim_03/a.jpg,stim_03/b.jpg,2,1,j,2,27,147,10,j,1,1.18298669714,03,01,60.022476133,PLT_learning_3,N,2014_Feb_13_1513,P10,
stim_fb/ques.jpg,stim_fb/negf.jpg,stim_fb/posf.jpg,stim_03/e.jpg,stim_03/f.jpg,2,3,j,2,28,148,55,f,0,1.54953666538,03,01,60.022476133,PLT_learning_3,N,2014_Feb_13_1513,P10,
stim_fb/ques.jpg,stim_fb/negf.jpg,stim_fb/posf.jpg,stim_03/f.jpg,stim_03/e.jpg,1,3,f,2,29,149,43,f,1,1.48289668613,03,01,60.022476133,PLT_learning_3,N,2014_Feb_13_1513,P10,
stim_fb/ques.jpg,stim_fb/negf.jpg,stim_fb/posf.jpg,stim_03/a.jpg,stim_03/b.jpg,2,1,j,2,30,150,12,j,1,1.24963356353,03,01,60.022476133,PLT_learning_3,N,2014_Feb_13_1513,P10,
stim_fb/ques.jpg,stim_fb/posf.jpg,stim_fb/negf.jpg,stim_03/d.jpg,stim_03/c.jpg,1,2,f,2,31,151,27,j,0,1.19960489468,03,01,60.022476133,PLT_learning_3,N,2014_Feb_13_1513,P10,
stim_fb/ques.jpg,stim_fb/negf.jpg,stim_fb/posf.jpg,stim_03/a.jpg,stim_03/b.jpg,2,1,j,2,32,152,13,j,1,0.86641598779,03,01,60.022476133,PLT_learning_3,N,2014_Feb_13_1513,P10,
stim_fb/ques.jpg,stim_fb/negf.jpg,stim_fb/posf.jpg,stim_03/c.jpg,stim_03/d.jpg,2,2,j,2,33,153,30,j,1,1.23299510156,03,01,60.022476133,PLT_learning_3,N,2014_Feb_13_1513,P10,
stim_fb/ques.jpg,stim_fb/posf.jpg,stim_fb/negf.jpg,stim_03/b.jpg,stim_03/a.jpg,1,1,f,2,34,154,9,f,1,1.03303370563,03,01,60.022476133,PLT_learning_3,N,2014_Feb_13_1513,P10,
stim_fb/ques.jpg,stim_fb/negf.jpg,stim_fb/posf.jpg,stim_03/d.jpg,stim_03/c.jpg,1,2,f,2,35,155,20,f,1,1.41625348285,03,01,60.022476133,PLT_learning_3,N,2014_Feb_13_1513,P10,
stim_fb/ques.jpg,stim_fb/negf.jpg,stim_fb/posf.jpg,stim_03/a.jpg,stim_03/b.jpg,2,1,j,2,36,156,11,f,0,1.14965114228,03,01,60.022476133,PLT_learning_3,N,2014_Feb_13_1513,P10,
stim_fb/ques.jpg,stim_fb/negf.jpg,stim_fb/posf.jpg,stim_03/f.jpg,stim_03/e.jpg,1,3,f,2,37,157,41,j,0,1.01645589561,03,01,60.022476133,PLT_learning_3,N,2014_Feb_13_1513,P10,
stim_fb/ques.jpg,stim_fb/negf.jpg,stim_fb/posf.jpg,stim_03/d.jpg,stim_03/c.jpg,1,2,f,2,38,158,22,None,0,,03,01,60.022476133,PLT_learning_3,N,2014_Feb_13_1513,P10,
stim_fb/ques.jpg,stim_fb/posf.jpg,stim_fb/negf.jpg,stim_03/f.jpg,stim_03/e.jpg,1,3,f,2,39,159,46,j,0,0.883087327587,03,01,60.022476133,PLT_learning_3,N,2014_Feb_13_1513,P10,
stim_fb/ques.jpg,stim_fb/negf.jpg,stim_fb/posf.jpg,stim_03/b.jpg,stim_03/a.jpg,1,1,f,2,40,160,5,j,0,0.783115414488,03,01,60.022476133,PLT_learning_3,N,2014_Feb_13_1513,P10,
stim_fb/ques.jpg,stim_fb/negf.jpg,stim_fb/posf.jpg,stim_03/a.jpg,stim_03/b.jpg,2,1,j,2,41,161,16,j,1,0.799784465589,03,01,60.022476133,PLT_learning_3,N,2014_Feb_13_1513,P10,
stim_fb/ques.jpg,stim_fb/posf.jpg,stim_fb/negf.jpg,stim_03/c.jpg,stim_03/d.jpg,2,2,j,2,42,162,39,f,0,0.833102552979,03,01,60.022476133,PLT_learning_3,N,2014_Feb_13_1513,P10,
stim_fb/ques.jpg,stim_fb/negf.jpg,stim_fb/posf.jpg,stim_03/f.jpg,stim_03/e.jpg,1,3,f,2,43,163,45,f,1,1.33294161344,03,01,60.022476133,PLT_learning_3,N,2014_Feb_13_1513,P10,
stim_fb/ques.jpg,stim_fb/posf.jpg,stim_fb/negf.jpg,stim_03/f.jpg,stim_03/e.jpg,1,3,f,2,44,164,49,f,1,1.18294190667,03,01,60.022476133,PLT_learning_3,N,2014_Feb_13_1513,P10,
stim_fb/ques.jpg,stim_fb/negf.jpg,stim_fb/posf.jpg,stim_03/f.jpg,stim_03/e.jpg,1,3,f,2,45,165,44,f,1,1.18300487438,03,01,60.022476133,PLT_learning_3,N,2014_Feb_13_1513,P10,
stim_fb/ques.jpg,stim_fb/posf.jpg,stim_fb/negf.jpg,stim_03/a.jpg,stim_03/b.jpg,2,1,j,2,46,166,19,j,1,1.38290349207,03,01,60.022476133,PLT_learning_3,N,2014_Feb_13_1513,P10,
stim_fb/ques.jpg,stim_fb/negf.jpg,stim_fb/posf.jpg,stim_03/b.jpg,stim_03/a.jpg,1,1,f,2,47,167,6,j,0,1.46621768927,03,01,60.022476133,PLT_learning_3,N,2014_Feb_13_1513,P10,
stim_fb/ques.jpg,stim_fb/posf.jpg,stim_fb/negf.jpg,stim_03/e.jpg,stim_03/f.jpg,2,3,j,2,48,168,59,j,1,1.33294294876,03,01,60.022476133,PLT_learning_3,N,2014_Feb_13_1513,P10,
stim_fb/ques.jpg,stim_fb/negf.jpg,stim_fb/posf.jpg,stim_03/d.jpg,stim_03/c.jpg,1,2,f,2,49,169,23,f,1,1.53287149995,03,01,60.022476133,PLT_learning_3,N,2014_Feb_13_1513,P10,
stim_fb/ques.jpg,stim_fb/negf.jpg,stim_fb/posf.jpg,stim_03/c.jpg,stim_03/d.jpg,2,2,j,2,50,170,31,j,1,1.19960559843,03,01,60.022476133,PLT_learning_3,N,2014_Feb_13_1513,P10,
stim_fb/ques.jpg,stim_fb/posf.jpg,stim_fb/negf.jpg,stim_03/e.jpg,stim_03/f.jpg,2,3,j,2,51,171,58,j,1,1.59955995083,03,01,60.022476133,PLT_learning_3,N,2014_Feb_13_1513,P10,
stim_fb/ques.jpg,stim_fb/posf.jpg,stim_fb/negf.jpg,stim_03/f.jpg,stim_03/e.jpg,1,3,f,2,52,172,47,f,1,1.04970133119,03,01,60.022476133,PLT_learning_3,N,2014_Feb_13_1513,P10,
stim_fb/ques.jpg,stim_fb/negf.jpg,stim_fb/posf.jpg,stim_03/b.jpg,stim_03/a.jpg,1,1,f,2,53,173,4,f,1,1.43292592038,03,01,60.022476133,PLT_learning_3,N,2014_Feb_13_1513,P10,
stim_fb/ques.jpg,stim_fb/negf.jpg,stim_fb/posf.jpg,stim_03/c.jpg,stim_03/d.jpg,2,2,j,2,54,174,35,f,0,1.33293732176,03,01,60.022476133,PLT_learning_3,N,2014_Feb_13_1513,P10,
stim_fb/ques.jpg,stim_fb/negf.jpg,stim_fb/posf.jpg,stim_03/c.jpg,stim_03/d.jpg,2,2,j,2,55,175,32,j,1,1.36624996861,03,01,60.022476133,PLT_learning_3,N,2014_Feb_13_1513,P10,
stim_fb/ques.jpg,stim_fb/negf.jpg,stim_fb/posf.jpg,stim_03/e.jpg,stim_03/f.jpg,2,3,j,2,56,176,53,j,1,1.28294662241,03,01,60.022476133,PLT_learning_3,N,2014_Feb_13_1513,P10,
stim_fb/ques.jpg,stim_fb/negf.jpg,stim_fb/posf.jpg,stim_03/d.jpg,stim_03/c.jpg,1,2,f,2,57,177,24,j,0,1.09967359767,03,01,60.022476133,PLT_learning_3,N,2014_Feb_13_1513,P10,
stim_fb/ques.jpg,stim_fb/negf.jpg,stim_fb/posf.jpg,stim_03/e.jpg,stim_03/f.jpg,2,3,j,2,58,178,50,j,1,1.46621907873,03,01,60.022476133,PLT_learning_3,N,2014_Feb_13_1513,P10,
stim_fb/ques.jpg,stim_fb/posf.jpg,stim_fb/negf.jpg,stim_03/a.jpg,stim_03/b.jpg,2,1,j,2,59,179,18,f,0,1.09968003068,03,01,60.022476133,PLT_learning_3,N,2014_Feb_13_1513,P10,
stim_fb/ques.jpg,stim_fb/negf.jpg,stim_fb/posf.jpg,stim_03/b.jpg,stim_03/a.jpg,1,1,f,3,0,180,4,j,0,0.883107637132,03,01,60.022476133,PLT_learning_3,N,2014_Feb_13_1513,P10,
stim_fb/ques.jpg,stim_fb/negf.jpg,stim_fb/posf.jpg,stim_03/b.jpg,stim_03/a.jpg,1,1,f,3,1,181,3,f,1,1.09968262914,03,01,60.022476133,PLT_learning_3,N,2014_Feb_13_1513,P10,
stim_fb/ques.jpg,stim_fb/negf.jpg,stim_fb/posf.jpg,stim_03/b.jpg,stim_03/a.jpg,1,1,f,3,2,182,5,j,0,1.0330645113,03,01,60.022476133,PLT_learning_3,N,2014_Feb_13_1513,P10,
stim_fb/ques.jpg,stim_fb/negf.jpg,stim_fb/posf.jpg,stim_03/f.jpg,stim_03/e.jpg,1,3,f,3,3,183,41,f,1,0.849811576561,03,01,60.022476133,PLT_learning_3,N,2014_Feb_13_1513,P10,
stim_fb/ques.jpg,stim_fb/posf.jpg,stim_fb/negf.jpg,stim_03/b.jpg,stim_03/a.jpg,1,1,f,3,4,184,8,j,0,1.133000906,03,01,60.022476133,PLT_learning_3,N,2014_Feb_13_1513,P10,
stim_fb/ques.jpg,stim_fb/negf.jpg,stim_fb/posf.jpg,stim_03/e.jpg,stim_03/f.jpg,2,3,j,3,5,185,55,j,1,1.51621592238,03,01,60.022476133,PLT_learning_3,N,2014_Feb_13_1513,P10,
stim_fb/ques.jpg,stim_fb/negf.jpg,stim_fb/posf.jpg,stim_03/c.jpg,stim_03/d.jpg,2,2,j,3,6,186,35,None,0,,03,01,60.022476133,PLT_learning_3,N,2014_Feb_13_1513,P10,
stim_fb/ques.jpg,stim_fb/negf.jpg,stim_fb/posf.jpg,stim_03/f.jpg,stim_03/e.jpg,1,3,f,3,7,187,40,f,1,1.24965145807,03,01,60.022476133,PLT_learning_3,N,2014_Feb_13_1513,P10,
stim_fb/ques.jpg,stim_fb/negf.jpg,stim_fb/posf.jpg,stim_03/e.jpg,stim_03/f.jpg,2,3,j,3,8,188,50,j,1,1.28298020097,03,01,60.022476133,PLT_learning_3,N,2014_Feb_13_1513,P10,
stim_fb/ques.jpg,stim_fb/posf.jpg,stim_fb/negf.jpg,stim_03/a.jpg,stim_03/b.jpg,2,1,j,3,9,189,18,j,1,0.966391970016,03,01,60.022476133,PLT_learning_3,N,2014_Feb_13_1513,P10,
stim_fb/ques.jpg,stim_fb/posf.jpg,stim_fb/negf.jpg,stim_03/e.jpg,stim_03/f.jpg,2,3,j,3,10,190,56,j,1,1.19967159468,03,01,60.022476133,PLT_learning_3,N,2014_Feb_13_1513,P10,
stim_fb/ques.jpg,stim_fb/negf.jpg,stim_fb/posf.jpg,stim_03/a.jpg,stim_03/b.jpg,2,1,j,3,11,191,12,j,1,1.11635224565,03,01,60.022476133,PLT_learning_3,N,2014_Feb_13_1513,P10,
stim_fb/ques.jpg,stim_fb/posf.jpg,stim_fb/negf.jpg,stim_03/c.jpg,stim_03/d.jpg,2,2,j,3,12,192,38,f,0,0.816441219084,03,01,60.022476133,PLT_learning_3,N,2014_Feb_13_1513,P10,
stim_fb/ques.jpg,stim_fb/negf.jpg,stim_fb/posf.jpg,stim_03/d.jpg,stim_03/c.jpg,1,2,f,3,13,193,21,f,1,1.29962695759,03,01,60.022476133,PLT_learning_3,N,2014_Feb_13_1513,P10,
stim_fb/ques.jpg,stim_fb/posf.jpg,stim_fb/negf.jpg,stim_03/d.jpg,stim_03/c.jpg,1,2,f,3,14,194,28,f,1,1.38293132333,03,01,60.022476133,PLT_learning_3,N,2014_Feb_13_1513,P10,
stim_fb/ques.jpg,stim_fb/negf.jpg,stim_fb/posf.jpg,stim_03/b.jpg,stim_03/a.jpg,1,1,f,3,15,195,2,j,0,0.983099089861,03,01,60.022476133,PLT_learning_3,N,2014_Feb_13_1513,P10,
stim_fb/ques.jpg,stim_fb/negf.jpg,stim_fb/posf.jpg,stim_03/f.jpg,stim_03/e.jpg,1,3,f,3,16,196,44,f,1,0.849810066804,03,01,60.022476133,PLT_learning_3,N,2014_Feb_13_1513,P10,
stim_fb/ques.jpg,stim_fb/negf.jpg,stim_fb/posf.jpg,stim_03/c.jpg,stim_03/d.jpg,2,2,j,3,17,197,36,f,0,1.29957578223,03,01,60.022476133,PLT_learning_3,N,2014_Feb_13_1513,P10,
stim_fb/ques.jpg,stim_fb/posf.jpg,stim_fb/negf.jpg,stim_03/b.jpg,stim_03/a.jpg,1,1,f,3,18,198,9,j,0,1.04970237479,03,01,60.022476133,PLT_learning_3,N,2014_Feb_13_1513,P10,
stim_fb/ques.jpg,stim_fb/negf.jpg,stim_fb/posf.jpg,stim_03/d.jpg,stim_03/c.jpg,1,2,f,3,19,199,20,j,0,1.04970125901,03,01,60.022476133,PLT_learning_3,N,2014_Feb_13_1513,P10,
stim_fb/ques.jpg,stim_fb/negf.jpg,stim_fb/posf.jpg,stim_03/d.jpg,stim_03/c.jpg,1,2,f,3,20,200,26,f,1,1.06637627696,03,01,60.022476133,PLT_learning_3,N,2014_Feb_13_1513,P10,
stim_fb/ques.jpg,stim_fb/negf.jpg,stim_fb/posf.jpg,stim_03/f.jpg,stim_03/e.jpg,1,3,f,3,21,201,45,f,1,0.916400545859,03,01,60.022476133,PLT_learning_3,N,2014_Feb_13_1513,P10,
stim_fb/ques.jpg,stim_fb/negf.jpg,stim_fb/posf.jpg,stim_03/a.jpg,stim_03/b.jpg,2,1,j,3,22,202,15,f,0,1.21631051981,03,01,60.022476133,PLT_learning_3,N,2014_Feb_13_1513,P10,
stim_fb/ques.jpg,stim_fb/posf.jpg,stim_fb/negf.jpg,stim_03/d.jpg,stim_03/c.jpg,1,2,f,3,23,203,29,f,1,1.44957507397,03,01,60.022476133,PLT_learning_3,N,2014_Feb_13_1513,P10,
stim_fb/ques.jpg,stim_fb/negf.jpg,stim_fb/posf.jpg,stim_03/a.jpg,stim_03/b.jpg,2,1,j,3,24,204,17,j,1,0.69982932824,03,01,60.022476133,PLT_learning_3,N,2014_Feb_13_1513,P10,
stim_fb/ques.jpg,stim_fb/posf.jpg,stim_fb/negf.jpg,stim_03/c.jpg,stim_03/d.jpg,2,2,j,3,25,205,39,j,1,1.21632471513,03,01,60.022476133,PLT_learning_3,N,2014_Feb_13_1513,P10,
stim_fb/ques.jpg,stim_fb/negf.jpg,stim_fb/posf.jpg,stim_03/a.jpg,stim_03/b.jpg,2,1,j,3,26,206,11,f,0,1.16631647011,03,01,60.022476133,PLT_learning_3,N,2014_Feb_13_1513,P10,
stim_fb/ques.jpg,stim_fb/posf.jpg,stim_fb/negf.jpg,stim_03/f.jpg,stim_03/e.jpg,1,3,f,3,27,207,49,f,1,1.5661904986,03,01,60.022476133,PLT_learning_3,N,2014_Feb_13_1513,P10,
stim_fb/ques.jpg,stim_fb/negf.jpg,stim_fb/posf.jpg,stim_03/b.jpg,stim_03/a.jpg,1,1,f,3,28,208,6,j,0,1.14963530787,03,01,60.022476133,PLT_learning_3,N,2014_Feb_13_1513,P10,
stim_fb/ques.jpg,stim_fb/negf.jpg,stim_fb/posf.jpg,stim_03/d.jpg,stim_03/c.jpg,1,2,f,3,29,209,23,f,1,1.38294701037,03,01,60.022476133,PLT_learning_3,N,2014_Feb_13_1513,P10,
stim_fb/ques.jpg,stim_fb/posf.jpg,stim_fb/negf.jpg,stim_03/e.jpg,stim_03/f.jpg,2,3,j,3,30,210,57,j,1,1.23299626245,03,01,60.022476133,PLT_learning_3,N,2014_Feb_13_1513,P10,
stim_fb/ques.jpg,stim_fb/posf.jpg,stim_fb/negf.jpg,stim_03/c.jpg,stim_03/d.jpg,2,2,j,3,31,211,37,j,1,1.34960016541,03,01,60.022476133,PLT_learning_3,N,2014_Feb_13_1513,P10,
stim_fb/ques.jpg,stim_fb/negf.jpg,stim_fb/posf.jpg,stim_03/e.jpg,stim_03/f.jpg,2,3,j,3,32,212,51,f,0,1.16635030733,03,01,60.022476133,PLT_learning_3,N,2014_Feb_13_1513,P10,
stim_fb/ques.jpg,stim_fb/negf.jpg,stim_fb/posf.jpg,stim_03/b.jpg,stim_03/a.jpg,1,1,f,3,33,213,7,j,0,1.18300348793,03,01,60.022476133,PLT_learning_3,N,2014_Feb_13_1513,P10,
stim_fb/ques.jpg,stim_fb/negf.jpg,stim_fb/posf.jpg,stim_03/e.jpg,stim_03/f.jpg,2,3,j,3,34,214,53,f,0,1.26632060541,03,01,60.022476133,PLT_learning_3,N,2014_Feb_13_1513,P10,
stim_fb/ques.jpg,stim_fb/posf.jpg,stim_fb/negf.jpg,stim_03/f.jpg,stim_03/e.jpg,1,3,f,3,35,215,46,f,1,1.16632674368,03,01,60.022476133,PLT_learning_3,N,2014_Feb_13_1513,P10,
stim_fb/ques.jpg,stim_fb/posf.jpg,stim_fb/negf.jpg,stim_03/a.jpg,stim_03/b.jpg,2,1,j,3,36,216,19,f,0,1.04976631391,03,01,60.022476133,PLT_learning_3,N,2014_Feb_13_1513,P10,
stim_fb/ques.jpg,stim_fb/negf.jpg,stim_fb/posf.jpg,stim_03/a.jpg,stim_03/b.jpg,2,1,j,3,37,217,14,j,1,1.03304712202,03,01,60.022476133,PLT_learning_3,N,2014_Feb_13_1513,P10,
stim_fb/ques.jpg,stim_fb/posf.jpg,stim_fb/negf.jpg,stim_03/f.jpg,stim_03/e.jpg,1,3,f,3,38,218,48,j,0,1.26637828596,03,01,60.022476133,PLT_learning_3,N,2014_Feb_13_1513,P10,
stim_fb/ques.jpg,stim_fb/posf.jpg,stim_fb/negf.jpg,stim_03/e.jpg,stim_03/f.jpg,2,3,j,3,39,219,59,f,0,1.21632444446,03,01,60.022476133,PLT_learning_3,N,2014_Feb_13_1513,P10,
stim_fb/ques.jpg,stim_fb/negf.jpg,stim_fb/posf.jpg,stim_03/c.jpg,stim_03/d.jpg,2,2,j,3,40,220,32,j,1,1.21630970177,03,01,60.022476133,PLT_learning_3,N,2014_Feb_13_1513,P10,
stim_fb/ques.jpg,stim_fb/posf.jpg,stim_fb/negf.jpg,stim_03/f.jpg,stim_03/e.jpg,1,3,f,3,41,221,47,f,1,1.43291388744,03,01,60.022476133,PLT_learning_3,N,2014_Feb_13_1513,P10,
stim_fb/ques.jpg,stim_fb/negf.jpg,stim_fb/posf.jpg,stim_03/b.jpg,stim_03/a.jpg,1,1,f,3,42,222,1,j,0,1.11634423973,03,01,60.022476133,PLT_learning_3,N,2014_Feb_13_1513,P10,
stim_fb/ques.jpg,stim_fb/negf.jpg,stim_fb/posf.jpg,stim_03/c.jpg,stim_03/d.jpg,2,2,j,3,43,223,33,j,1,0.999709479967,03,01,60.022476133,PLT_learning_3,N,2014_Feb_13_1513,P10,
stim_fb/ques.jpg,stim_fb/negf.jpg,stim_fb/posf.jpg,stim_03/f.jpg,stim_03/e.jpg,1,3,f,3,44,224,42,f,1,0.983053595637,03,01,60.022476133,PLT_learning_3,N,2014_Feb_13_1513,P10,
stim_fb/ques.jpg,stim_fb/posf.jpg,stim_fb/negf.jpg,stim_03/d.jpg,stim_03/c.jpg,1,2,f,3,45,225,27,f,1,1.49954531641,03,01,60.022476133,PLT_learning_3,N,2014_Feb_13_1513,P10,
stim_fb/ques.jpg,stim_fb/posf.jpg,stim_fb/negf.jpg,stim_03/e.jpg,stim_03/f.jpg,2,3,j,3,46,226,58,j,1,1.14967175859,03,01,60.022476133,PLT_learning_3,N,2014_Feb_13_1513,P10,
stim_fb/ques.jpg,stim_fb/negf.jpg,stim_fb/posf.jpg,stim_03/c.jpg,stim_03/d.jpg,2,2,j,3,47,227,30,f,0,1.06637410255,03,01,60.022476133,PLT_learning_3,N,2014_Feb_13_1513,P10,
stim_fb/ques.jpg,stim_fb/negf.jpg,stim_fb/posf.jpg,stim_03/b.jpg,stim_03/a.jpg,1,1,f,3,48,228,0,j,0,1.31627417736,03,01,60.022476133,PLT_learning_3,N,2014_Feb_13_1513,P10,
stim_fb/ques.jpg,stim_fb/negf.jpg,stim_fb/posf.jpg,stim_03/c.jpg,stim_03/d.jpg,2,2,j,3,49,229,31,j,1,1.51618838885,03,01,60.022476133,PLT_learning_3,N,2014_Feb_13_1513,P10,
stim_fb/ques.jpg,stim_fb/negf.jpg,stim_fb/posf.jpg,stim_03/e.jpg,stim_03/f.jpg,2,3,j,3,50,230,52,f,0,1.58285688207,03,01,60.022476133,PLT_learning_3,N,2014_Feb_13_1513,P10,
stim_fb/ques.jpg,stim_fb/negf.jpg,stim_fb/posf.jpg,stim_03/c.jpg,stim_03/d.jpg,2,2,j,3,51,231,34,j,1,1.11633496464,03,01,60.022476133,PLT_learning_3,N,2014_Feb_13_1513,P10,
stim_fb/ques.jpg,stim_fb/negf.jpg,stim_fb/posf.jpg,stim_03/a.jpg,stim_03/b.jpg,2,1,j,3,52,232,13,j,1,1.06637107401,03,01,60.022476133,PLT_learning_3,N,2014_Feb_13_1513,P10,
stim_fb/ques.jpg,stim_fb/negf.jpg,stim_fb/posf.jpg,stim_03/d.jpg,stim_03/c.jpg,1,2,f,3,53,233,22,j,0,1.51621009387,03,01,60.022476133,PLT_learning_3,N,2014_Feb_13_1513,P10,
stim_fb/ques.jpg,stim_fb/negf.jpg,stim_fb/posf.jpg,stim_03/d.jpg,stim_03/c.jpg,1,2,f,3,54,234,25,f,1,0.849796376733,03,01,60.022476133,PLT_learning_3,N,2014_Feb_13_1513,P10,
stim_fb/ques.jpg,stim_fb/negf.jpg,stim_fb/posf.jpg,stim_03/d.jpg,stim_03/c.jpg,1,2,f,3,55,235,24,f,1,1.28296165382,03,01,60.022476133,PLT_learning_3,N,2014_Feb_13_1513,P10,
stim_fb/ques.jpg,stim_fb/negf.jpg,stim_fb/posf.jpg,stim_03/e.jpg,stim_03/f.jpg,2,3,j,3,56,236,54,f,0,1.51622944704,03,01,60.022476133,PLT_learning_3,N,2014_Feb_13_1513,P10,
stim_fb/ques.jpg,stim_fb/negf.jpg,stim_fb/posf.jpg,stim_03/f.jpg,stim_03/e.jpg,1,3,f,3,57,237,43,j,0,1.3829274948,03,01,60.022476133,PLT_learning_3,N,2014_Feb_13_1513,P10,
stim_fb/ques.jpg,stim_fb/negf.jpg,stim_fb/posf.jpg,stim_03/a.jpg,stim_03/b.jpg,2,1,j,3,58,238,10,f,0,1.2996599106,03,01,60.022476133,PLT_learning_3,N,2014_Feb_13_1513,P10,
stim_fb/ques.jpg,stim_fb/negf.jpg,stim_fb/posf.jpg,stim_03/a.jpg,stim_03/b.jpg,2,1,j,3,59,239,16,f,0,1.28295966286,03,01,60.022476133,PLT_learning_3,N,2014_Feb_13_1513,P10,
stim_fb/ques.jpg,stim_fb/negf.jpg,stim_fb/posf.jpg,stim_03/d.jpg,stim_03/c.jpg,1,2,f,4,0,240,26,j,0,1.39958701819,03,01,60.022476133,PLT_learning_3,N,2014_Feb_13_1513,P10,
stim_fb/ques.jpg,stim_fb/negf.jpg,stim_fb/posf.jpg,stim_03/d.jpg,stim_03/c.jpg,1,2,f,4,1,241,25,f,1,0.816433625185,03,01,60.022476133,PLT_learning_3,N,2014_Feb_13_1513,P10,
stim_fb/ques.jpg,stim_fb/posf.jpg,stim_fb/negf.jpg,stim_03/c.jpg,stim_03/d.jpg,2,2,j,4,2,242,37,None,0,,03,01,60.022476133,PLT_learning_3,N,2014_Feb_13_1513,P10,
stim_fb/ques.jpg,stim_fb/posf.jpg,stim_fb/negf.jpg,stim_03/e.jpg,stim_03/f.jpg,2,3,j,4,3,243,58,j,1,1.21633111807,03,01,60.022476133,PLT_learning_3,N,2014_Feb_13_1513,P10,
stim_fb/ques.jpg,stim_fb/negf.jpg,stim_fb/posf.jpg,stim_03/f.jpg,stim_03/e.jpg,1,3,f,4,4,244,43,f,1,0.93305998203,03,01,60.022476133,PLT_learning_3,N,2014_Feb_13_1513,P10,
stim_fb/ques.jpg,stim_fb/negf.jpg,stim_fb/posf.jpg,stim_03/d.jpg,stim_03/c.jpg,1,2,f,4,5,245,22,j,0,1.36627350819,03,01,60.022476133,PLT_learning_3,N,2014_Feb_13_1513,P10,
stim_fb/ques.jpg,stim_fb/posf.jpg,stim_fb/negf.jpg,stim_03/c.jpg,stim_03/d.jpg,2,2,j,4,6,246,38,f,0,0.69981303068,03,01,60.022476133,PLT_learning_3,N,2014_Feb_13_1513,P10,
stim_fb/ques.jpg,stim_fb/negf.jpg,stim_fb/posf.jpg,stim_03/f.jpg,stim_03/e.jpg,1,3,f,4,7,247,45,f,1,1.43291447089,03,01,60.022476133,PLT_learning_3,N,2014_Feb_13_1513,P10,
stim_fb/ques.jpg,stim_fb/negf.jpg,stim_fb/posf.jpg,stim_03/f.jpg,stim_03/e.jpg,1,3,f,4,8,248,40,f,1,1.21633469096,03,01,60.022476133,PLT_learning_3,N,2014_Feb_13_1513,P10,
stim_fb/ques.jpg,stim_fb/negf.jpg,stim_fb/posf.jpg,stim_03/e.jpg,stim_03/f.jpg,2,3,j,4,9,249,54,None,0,,03,01,60.022476133,PLT_learning_3,N,2014_Feb_13_1513,P10,
stim_fb/ques.jpg,stim_fb/negf.jpg,stim_fb/posf.jpg,stim_03/b.jpg,stim_03/a.jpg,1,1,f,4,10,250,6,f,1,1.26629162829,03,01,60.022476133,PLT_learning_3,N,2014_Feb_13_1513,P10,
stim_fb/ques.jpg,stim_fb/negf.jpg,stim_fb/posf.jpg,stim_03/a.jpg,stim_03/b.jpg,2,1,j,4,11,251,14,j,1,1.31623326955,03,01,60.022476133,PLT_learning_3,N,2014_Feb_13_1513,P10,
stim_fb/ques.jpg,stim_fb/posf.jpg,stim_fb/negf.jpg,stim_03/f.jpg,stim_03/e.jpg,1,3,f,4,12,252,48,f,1,1.08298038142,03,01,60.022476133,PLT_learning_3,N,2014_Feb_13_1513,P10,
stim_fb/ques.jpg,stim_fb/negf.jpg,stim_fb/posf.jpg,stim_03/c.jpg,stim_03/d.jpg,2,2,j,4,13,253,31,f,0,1.31627442097,03,01,60.022476133,PLT_learning_3,N,2014_Feb_13_1513,P10,
stim_fb/ques.jpg,stim_fb/posf.jpg,stim_fb/negf.jpg,stim_03/d.jpg,stim_03/c.jpg,1,2,f,4,14,254,29,j,0,1.49956969809,03,01,60.022476133,PLT_learning_3,N,2014_Feb_13_1513,P10,
stim_fb/ques.jpg,stim_fb/posf.jpg,stim_fb/negf.jpg,stim_03/e.jpg,stim_03/f.jpg,2,3,j,4,15,255,59,j,1,1.51621209385,03,01,60.022476133,PLT_learning_3,N,2014_Feb_13_1513,P10,
stim_fb/ques.jpg,stim_fb/posf.jpg,stim_fb/negf.jpg,stim_03/f.jpg,stim_03/e.jpg,1,3,f,4,16,256,46,f,1,1.29962983275,03,01,60.022476133,PLT_learning_3,N,2014_Feb_13_1513,P10,
stim_fb/ques.jpg,stim_fb/negf.jpg,stim_fb/posf.jpg,stim_03/f.jpg,stim_03/e.jpg,1,3,f,4,17,257,44,j,0,0.933071296187,03,01,60.022476133,PLT_learning_3,N,2014_Feb_13_1513,P10,
stim_fb/ques.jpg,stim_fb/negf.jpg,stim_fb/posf.jpg,stim_03/c.jpg,stim_03/d.jpg,2,2,j,4,18,258,33,f,0,1.09965498434,03,01,60.022476133,PLT_learning_3,N,2014_Feb_13_1513,P10,
stim_fb/ques.jpg,stim_fb/negf.jpg,stim_fb/posf.jpg,stim_03/d.jpg,stim_03/c.jpg,1,2,f,4,19,259,23,None,0,,03,01,60.022476133,PLT_learning_3,N,2014_Feb_13_1513,P10,
stim_fb/ques.jpg,stim_fb/negf.jpg,stim_fb/posf.jpg,stim_03/b.jpg,stim_03/a.jpg,1,1,f,4,20,260,3,j,0,1.24964513333,03,01,60.022476133,PLT_learning_3,N,2014_Feb_13_1513,P10,
stim_fb/ques.jpg,stim_fb/negf.jpg,stim_fb/posf.jpg,stim_03/c.jpg,stim_03/d.jpg,2,2,j,4,21,261,36,f,0,1.19959480457,03,01,60.022476133,PLT_learning_3,N,2014_Feb_13_1513,P10,
stim_fb/ques.jpg,stim_fb/negf.jpg,stim_fb/posf.jpg,stim_03/a.jpg,stim_03/b.jpg,2,1,j,4,22,262,15,f,0,0.983062311327,03,01,60.022476133,PLT_learning_3,N,2014_Feb_13_1513,P10,
stim_fb/ques.jpg,stim_fb/posf.jpg,stim_fb/negf.jpg,stim_03/d.jpg,stim_03/c.jpg,1,2,f,4,23,263,27,j,0,1.06636097788,03,01,60.022476133,PLT_learning_3,N,2014_Feb_13_1513,P10,
stim_fb/ques.jpg,stim_fb/posf.jpg,stim_fb/negf.jpg,stim_03/c.jpg,stim_03/d.jpg,2,2,j,4,24,264,39,j,1,1.14967551795,03,01,60.022476133,PLT_learning_3,N,2014_Feb_13_1513,P10,
stim_fb/ques.jpg,stim_fb/negf.jpg,stim_fb/posf.jpg,stim_03/e.jpg,stim_03/f.jpg,2,3,j,4,25,265,50,f,0,1.28294010218,03,01,60.022476133,PLT_learning_3,N,2014_Feb_13_1513,P10,
stim_fb/ques.jpg,stim_fb/negf.jpg,stim_fb/posf.jpg,stim_03/b.jpg,stim_03/a.jpg,1,1,f,4,26,266,4,j,0,0.983072040541,03,01,60.022476133,PLT_learning_3,N,2014_Feb_13_1513,P10,
stim_fb/ques.jpg,stim_fb/posf.jpg,stim_fb/negf.jpg,stim_03/f.jpg,stim_03/e.jpg,1,3,f,4,27,267,49,f,1,0.749797336121,03,01,60.022476133,PLT_learning_3,N,2014_Feb_13_1513,P10,
stim_fb/ques.jpg,stim_fb/posf.jpg,stim_fb/negf.jpg,stim_03/a.jpg,stim_03/b.jpg,2,1,j,4,28,268,18,j,1,1.14973873227,03,01,60.022476133,PLT_learning_3,N,2014_Feb_13_1513,P10,
stim_fb/ques.jpg,stim_fb/negf.jpg,stim_fb/posf.jpg,stim_03/e.jpg,stim_03/f.jpg,2,3,j,4,29,269,52,f,0,1.01640172179,03,01,60.022476133,PLT_learning_3,N,2014_Feb_13_1513,P10,
stim_fb/ques.jpg,stim_fb/negf.jpg,stim_fb/posf.jpg,stim_03/e.jpg,stim_03/f.jpg,2,3,j,4,30,270,51,j,1,1.11639005876,03,01,60.022476133,PLT_learning_3,N,2014_Feb_13_1513,P10,
stim_fb/ques.jpg,stim_fb/negf.jpg,stim_fb/posf.jpg,stim_03/c.jpg,stim_03/d.jpg,2,2,j,4,31,271,35,f,0,0.733135373661,03,01,60.022476133,PLT_learning_3,N,2014_Feb_13_1513,P10,
stim_fb/ques.jpg,stim_fb/negf.jpg,stim_fb/posf.jpg,stim_03/b.jpg,stim_03/a.jpg,1,1,f,4,32,272,0,f,1,1.01638904824,03,01,60.022476133,PLT_learning_3,N,2014_Feb_13_1513,P10,
stim_fb/ques.jpg,stim_fb/negf.jpg,stim_fb/posf.jpg,stim_03/c.jpg,stim_03/d.jpg,2,2,j,4,33,273,30,j,1,1.03304206945,03,01,60.022476133,PLT_learning_3,N,2014_Feb_13_1513,P10,
stim_fb/ques.jpg,stim_fb/posf.jpg,stim_fb/negf.jpg,stim_03/e.jpg,stim_03/f.jpg,2,3,j,4,34,274,57,j,1,1.23296568836,03,01,60.022476133,PLT_learning_3,N,2014_Feb_13_1513,P10,
stim_fb/ques.jpg,stim_fb/posf.jpg,stim_fb/negf.jpg,stim_03/f.jpg,stim_03/e.jpg,1,3,f,4,35,275,47,f,1,1.11635113589,03,01,60.022476133,PLT_learning_3,N,2014_Feb_13_1513,P10,
stim_fb/ques.jpg,stim_fb/negf.jpg,stim_fb/posf.jpg,stim_03/d.jpg,stim_03/c.jpg,1,2,f,4,36,276,24,j,0,1.14967283828,03,01,60.022476133,PLT_learning_3,N,2014_Feb_13_1513,P10,
stim_fb/ques.jpg,stim_fb/negf.jpg,stim_fb/posf.jpg,stim_03/c.jpg,stim_03/d.jpg,2,2,j,4,37,277,34,None,0,,03,01,60.022476133,PLT_learning_3,N,2014_Feb_13_1513,P10,
stim_fb/ques.jpg,stim_fb/posf.jpg,stim_fb/negf.jpg,stim_03/b.jpg,stim_03/a.jpg,1,1,f,4,38,278,9,j,0,0.749800918034,03,01,60.022476133,PLT_learning_3,N,2014_Feb_13_1513,P10,
stim_fb/ques.jpg,stim_fb/posf.jpg,stim_fb/negf.jpg,stim_03/e.jpg,stim_03/f.jpg,2,3,j,4,39,279,56,j,1,1.16632961583,03,01,60.022476133,PLT_learning_3,N,2014_Feb_13_1513,P10,
stim_fb/ques.jpg,stim_fb/negf.jpg,stim_fb/posf.jpg,stim_03/d.jpg,stim_03/c.jpg,1,2,f,4,40,280,21,j,0,1.26628315621,03,01,60.022476133,PLT_learning_3,N,2014_Feb_13_1513,P10,
stim_fb/ques.jpg,stim_fb/negf.jpg,stim_fb/posf.jpg,stim_03/c.jpg,stim_03/d.jpg,2,2,j,4,41,281,32,f,0,0.66650943636,03,01,60.022476133,PLT_learning_3,N,2014_Feb_13_1513,P10,
stim_fb/ques.jpg,stim_fb/negf.jpg,stim_fb/posf.jpg,stim_03/b.jpg,stim_03/a.jpg,1,1,f,4,42,282,5,f,1,0.999734526302,03,01,60.022476133,PLT_learning_3,N,2014_Feb_13_1513,P10,
stim_fb/ques.jpg,stim_fb/posf.jpg,stim_fb/negf.jpg,stim_03/a.jpg,stim_03/b.jpg,2,1,j,4,43,283,19,f,0,1.19963456653,03,01,60.022476133,PLT_learning_3,N,2014_Feb_13_1513,P10,
stim_fb/ques.jpg,stim_fb/negf.jpg,stim_fb/posf.jpg,stim_03/a.jpg,stim_03/b.jpg,2,1,j,4,44,284,11,j,1,1.03304982876,03,01,60.022476133,PLT_learning_3,N,2014_Feb_13_1513,P10,
stim_fb/ques.jpg,stim_fb/posf.jpg,stim_fb/negf.jpg,stim_03/d.jpg,stim_03/c.jpg,1,2,f,4,45,285,28,f,1,1.28297499803,03,01,60.022476133,PLT_learning_3,N,2014_Feb_13_1513,P10,
stim_fb/ques.jpg,stim_fb/negf.jpg,stim_fb/posf.jpg,stim_03/b.jpg,stim_03/a.jpg,1,1,f,4,46,286,1,f,1,0.966383705447,03,01,60.022476133,PLT_learning_3,N,2014_Feb_13_1513,P10,
stim_fb/ques.jpg,stim_fb/negf.jpg,stim_fb/posf.jpg,stim_03/f.jpg,stim_03/e.jpg,1,3,f,4,47,287,41,j,0,1.49956258839,03,01,60.022476133,PLT_learning_3,N,2014_Feb_13_1513,P10,
stim_fb/ques.jpg,stim_fb/negf.jpg,stim_fb/posf.jpg,stim_03/e.jpg,stim_03/f.jpg,2,3,j,4,48,288,55,j,1,1.26632700233,03,01,60.022476133,PLT_learning_3,N,2014_Feb_13_1513,P10,
stim_fb/ques.jpg,stim_fb/negf.jpg,stim_fb/posf.jpg,stim_03/a.jpg,stim_03/b.jpg,2,1,j,4,49,289,10,j,1,1.24964332884,03,01,60.022476133,PLT_learning_3,N,2014_Feb_13_1513,P10,
stim_fb/ques.jpg,stim_fb/negf.jpg,stim_fb/posf.jpg,stim_03/a.jpg,stim_03/b.jpg,2,1,j,4,50,290,16,j,1,1.18295894407,03,01,60.022476133,PLT_learning_3,N,2014_Feb_13_1513,P10,
stim_fb/ques.jpg,stim_fb/negf.jpg,stim_fb/posf.jpg,stim_03/e.jpg,stim_03/f.jpg,2,3,j,4,51,291,53,j,1,1.33292993237,03,01,60.022476133,PLT_learning_3,N,2014_Feb_13_1513,P10,
stim_fb/ques.jpg,stim_fb/negf.jpg,stim_fb/posf.jpg,stim_03/a.jpg,stim_03/b.jpg,2,1,j,4,52,292,12,f,0,1.01637866941,03,01,60.022476133,PLT_learning_3,N,2014_Feb_13_1513,P10,
stim_fb/ques.jpg,stim_fb/negf.jpg,stim_fb/posf.jpg,stim_03/b.jpg,stim_03/a.jpg,1,1,f,4,53,293,7,j,0,1.14963818604,03,01,60.022476133,PLT_learning_3,N,2014_Feb_13_1513,P10,
stim_fb/ques.jpg,stim_fb/negf.jpg,stim_fb/posf.jpg,stim_03/a.jpg,stim_03/b.jpg,2,1,j,4,54,294,17,f,0,1.31629642072,03,01,60.022476133,PLT_learning_3,N,2014_Feb_13_1513,P10,
stim_fb/ques.jpg,stim_fb/posf.jpg,stim_fb/negf.jpg,stim_03/b.jpg,stim_03/a.jpg,1,1,f,4,55,295,8,j,0,1.39956884396,03,01,60.022476133,PLT_learning_3,N,2014_Feb_13_1513,P10,
stim_fb/ques.jpg,stim_fb/negf.jpg,stim_fb/posf.jpg,stim_03/a.jpg,stim_03/b.jpg,2,1,j,4,56,296,13,j,1,0.849744957763,03,01,60.022476133,PLT_learning_3,N,2014_Feb_13_1513,P10,
stim_fb/ques.jpg,stim_fb/negf.jpg,stim_fb/posf.jpg,stim_03/f.jpg,stim_03/e.jpg,1,3,f,4,57,297,42,f,1,1.06638301072,03,01,60.022476133,PLT_learning_3,N,2014_Feb_13_1513,P10,
stim_fb/ques.jpg,stim_fb/negf.jpg,stim_fb/posf.jpg,stim_03/d.jpg,stim_03/c.jpg,1,2,f,4,58,298,20,f,1,1.53288880501,03,01,60.022476133,PLT_learning_3,N,2014_Feb_13_1513,P10,
stim_fb/ques.jpg,stim_fb/negf.jpg,stim_fb/posf.jpg,stim_03/b.jpg,stim_03/a.jpg,1,1,f,4,59,299,2,f,1,1.39958581821,03,01,60.022476133,PLT_learning_3,N,2014_Feb_13_1513,P10,
stim_fb/ques.jpg,stim_fb/negf.jpg,stim_fb/posf.jpg,stim_03/f.jpg,stim_03/e.jpg,1,3,f,5,0,300,43,f,1,1.38290640632,03,01,60.022476133,PLT_learning_3,N,2014_Feb_13_1513,P10,
stim_fb/ques.jpg,stim_fb/posf.jpg,stim_fb/negf.jpg,stim_03/a.jpg,stim_03/b.jpg,2,1,j,5,1,301,18,j,1,1.23295462382,03,01,60.022476133,PLT_learning_3,N,2014_Feb_13_1513,P10,
stim_fb/ques.jpg,stim_fb/posf.jpg,stim_fb/negf.jpg,stim_03/e.jpg,stim_03/f.jpg,2,3,j,5,2,302,56,j,1,1.36625440766,03,01,60.022476133,PLT_learning_3,N,2014_Feb_13_1513,P10,
stim_fb/ques.jpg,stim_fb/posf.jpg,stim_fb/negf.jpg,stim_03/d.jpg,stim_03/c.jpg,1,2,f,5,3,303,27,f,1,1.06635504111,03,01,60.022476133,PLT_learning_3,N,2014_Feb_13_1513,P10,
stim_fb/ques.jpg,stim_fb/negf.jpg,stim_fb/posf.jpg,stim_03/c.jpg,stim_03/d.jpg,2,2,j,5,4,304,30,j,1,1.66647061274,03,01,60.022476133,PLT_learning_3,N,2014_Feb_13_1513,P10,
stim_fb/ques.jpg,stim_fb/negf.jpg,stim_fb/posf.jpg,stim_03/e.jpg,stim_03/f.jpg,2,3,j,5,5,305,54,j,1,1.64946257599,03,01,60.022476133,PLT_learning_3,N,2014_Feb_13_1513,P10,
stim_fb/ques.jpg,stim_fb/posf.jpg,stim_fb/negf.jpg,stim_03/c.jpg,stim_03/d.jpg,2,2,j,5,6,306,38,j,1,1.43295688244,03,01,60.022476133,PLT_learning_3,N,2014_Feb_13_1513,P10,
stim_fb/ques.jpg,stim_fb/negf.jpg,stim_fb/posf.jpg,stim_03/f.jpg,stim_03/e.jpg,1,3,f,5,7,307,42,f,1,1.06632109863,03,01,60.022476133,PLT_learning_3,N,2014_Feb_13_1513,P10,
stim_fb/ques.jpg,stim_fb/negf.jpg,stim_fb/posf.jpg,stim_03/f.jpg,stim_03/e.jpg,1,3,f,5,8,308,45,f,1,1.1330524152,03,01,60.022476133,PLT_learning_3,N,2014_Feb_13_1513,P10,
stim_fb/ques.jpg,stim_fb/posf.jpg,stim_fb/negf.jpg,stim_03/f.jpg,stim_03/e.jpg,1,3,f,5,9,309,46,f,1,1.18298176487,03,01,60.022476133,PLT_learning_3,N,2014_Feb_13_1513,P10,
stim_fb/ques.jpg,stim_fb/negf.jpg,stim_fb/posf.jpg,stim_03/d.jpg,stim_03/c.jpg,1,2,f,5,10,310,26,f,1,1.29961240136,03,01,60.022476133,PLT_learning_3,N,2014_Feb_13_1513,P10,
stim_fb/ques.jpg,stim_fb/negf.jpg,stim_fb/posf.jpg,stim_03/d.jpg,stim_03/c.jpg,1,2,f,5,11,311,24,f,1,0.783160523753,03,01,60.022476133,PLT_learning_3,N,2014_Feb_13_1513,P10,
stim_fb/ques.jpg,stim_fb/posf.jpg,stim_fb/negf.jpg,stim_03/f.jpg,stim_03/e.jpg,1,3,f,5,12,312,49,f,1,1.11634520814,03,01,60.022476133,PLT_learning_3,N,2014_Feb_13_1513,P10,
stim_fb/ques.jpg,stim_fb/negf.jpg,stim_fb/posf.jpg,stim_03/c.jpg,stim_03/d.jpg,2,2,j,5,13,313,33,f,0,1.51616481919,03,01,60.022476133,PLT_learning_3,N,2014_Feb_13_1513,P10,
stim_fb/ques.jpg,stim_fb/negf.jpg,stim_fb/posf.jpg,stim_03/c.jpg,stim_03/d.jpg,2,2,j,5,14,314,35,j,1,1.21629728988,03,01,60.022476133,PLT_learning_3,N,2014_Feb_13_1513,P10,
stim_fb/ques.jpg,stim_fb/negf.jpg,stim_fb/posf.jpg,stim_03/b.jpg,stim_03/a.jpg,1,1,f,5,15,315,6,j,0,1.34959737146,03,01,60.022476133,PLT_learning_3,N,2014_Feb_13_1513,P10,
stim_fb/ques.jpg,stim_fb/posf.jpg,stim_fb/negf.jpg,stim_03/c.jpg,stim_03/d.jpg,2,2,j,5,16,316,37,j,1,1.44960323906,03,01,60.022476133,PLT_learning_3,N,2014_Feb_13_1513,P10,
stim_fb/ques.jpg,stim_fb/negf.jpg,stim_fb/posf.jpg,stim_03/e.jpg,stim_03/f.jpg,2,3,j,5,17,317,51,f,0,1.51626611429,03,01,60.022476133,PLT_learning_3,N,2014_Feb_13_1513,P10,
stim_fb/ques.jpg,stim_fb/negf.jpg,stim_fb/posf.jpg,stim_03/f.jpg,stim_03/e.jpg,1,3,f,5,18,318,40,f,1,1.13299604591,03,01,60.022476133,PLT_learning_3,N,2014_Feb_13_1513,P10,
stim_fb/ques.jpg,stim_fb/negf.jpg,stim_fb/posf.jpg,stim_03/a.jpg,stim_03/b.jpg,2,1,j,5,19,319,15,f,0,1.14965433021,03,01,60.022476133,PLT_learning_3,N,2014_Feb_13_1513,P10,
stim_fb/ques.jpg,stim_fb/negf.jpg,stim_fb/posf.jpg,stim_03/d.jpg,stim_03/c.jpg,1,2,f,5,20,320,21,f,1,0.699827358339,03,01,60.022476133,PLT_learning_3,N,2014_Feb_13_1513,P10,
stim_fb/ques.jpg,stim_fb/posf.jpg,stim_fb/negf.jpg,stim_03/e.jpg,stim_03/f.jpg,2,3,j,5,21,321,59,f,0,1.1663146566,03,01,60.022476133,PLT_learning_3,N,2014_Feb_13_1513,P10,
stim_fb/ques.jpg,stim_fb/posf.jpg,stim_fb/negf.jpg,stim_03/f.jpg,stim_03/e.jpg,1,3,f,5,22,322,47,f,1,0.933106601053,03,01,60.022476133,PLT_learning_3,N,2014_Feb_13_1513,P10,
stim_fb/ques.jpg,stim_fb/posf.jpg,stim_fb/negf.jpg,stim_03/f.jpg,stim_03/e.jpg,1,3,f,5,23,323,48,j,0,1.11632093473,03,01,60.022476133,PLT_learning_3,N,2014_Feb_13_1513,P10,
stim_fb/ques.jpg,stim_fb/negf.jpg,stim_fb/posf.jpg,stim_03/e.jpg,stim_03/f.jpg,2,3,j,5,24,324,52,j,1,1.43276754623,03,01,60.022476133,PLT_learning_3,N,2014_Feb_13_1513,P10,
stim_fb/ques.jpg,stim_fb/negf.jpg,stim_fb/posf.jpg,stim_03/f.jpg,stim_03/e.jpg,1,3,f,5,25,325,44,j,0,1.43293749018,03,01,60.022476133,PLT_learning_3,N,2014_Feb_13_1513,P10,
stim_fb/ques.jpg,stim_fb/posf.jpg,stim_fb/negf.jpg,stim_03/a.jpg,stim_03/b.jpg,2,1,j,5,26,326,19,f,0,1.13300772397,03,01,60.022476133,PLT_learning_3,N,2014_Feb_13_1513,P10,
stim_fb/ques.jpg,stim_fb/negf.jpg,stim_fb/posf.jpg,stim_03/e.jpg,stim_03/f.jpg,2,3,j,5,27,327,53,j,1,1.13301078259,03,01,60.022476133,PLT_learning_3,N,2014_Feb_13_1513,P10,
stim_fb/ques.jpg,stim_fb/negf.jpg,stim_fb/posf.jpg,stim_03/e.jpg,stim_03/f.jpg,2,3,j,5,28,328,55,j,1,1.11634738556,03,01,60.022476133,PLT_learning_3,N,2014_Feb_13_1513,P10,
stim_fb/ques.jpg,stim_fb/negf.jpg,stim_fb/posf.jpg,stim_03/b.jpg,stim_03/a.jpg,1,1,f,5,29,329,2,j,0,0.76645110619,03,01,60.022476133,PLT_learning_3,N,2014_Feb_13_1513,P10,
stim_fb/ques.jpg,stim_fb/negf.jpg,stim_fb/posf.jpg,stim_03/f.jpg,stim_03/e.jpg,1,3,f,5,30,330,41,f,1,1.09971670094,03,01,60.022476133,PLT_learning_3,N,2014_Feb_13_1513,P10,
stim_fb/ques.jpg,stim_fb/negf.jpg,stim_fb/posf.jpg,stim_03/a.jpg,stim_03/b.jpg,2,1,j,5,31,331,12,j,1,1.24966441732,03,01,60.022476133,PLT_learning_3,N,2014_Feb_13_1513,P10,
stim_fb/ques.jpg,stim_fb/negf.jpg,stim_fb/posf.jpg,stim_03/a.jpg,stim_03/b.jpg,2,1,j,5,32,332,11,f,0,1.11634002323,03,01,60.022476133,PLT_learning_3,N,2014_Feb_13_1513,P10,
stim_fb/ques.jpg,stim_fb/negf.jpg,stim_fb/posf.jpg,stim_03/d.jpg,stim_03/c.jpg,1,2,f,5,33,333,20,f,1,0.999728424116,03,01,60.022476133,PLT_learning_3,N,2014_Feb_13_1513,P10,
stim_fb/ques.jpg,stim_fb/negf.jpg,stim_fb/posf.jpg,stim_03/a.jpg,stim_03/b.jpg,2,1,j,5,34,334,17,j,1,0.983046485942,03,01,60.022476133,PLT_learning_3,N,2014_Feb_13_1513,P10,
stim_fb/ques.jpg,stim_fb/negf.jpg,stim_fb/posf.jpg,stim_03/d.jpg,stim_03/c.jpg,1,2,f,5,35,335,22,f,1,0.699810967544,03,01,60.022476133,PLT_learning_3,N,2014_Feb_13_1513,P10,
stim_fb/ques.jpg,stim_fb/negf.jpg,stim_fb/posf.jpg,stim_03/b.jpg,stim_03/a.jpg,1,1,f,5,36,336,7,f,1,1.08300896456,03,01,60.022476133,PLT_learning_3,N,2014_Feb_13_1513,P10,
stim_fb/ques.jpg,stim_fb/posf.jpg,stim_fb/negf.jpg,stim_03/c.jpg,stim_03/d.jpg,2,2,j,5,37,337,39,f,0,1.11628333515,03,01,60.022476133,PLT_learning_3,N,2014_Feb_13_1513,P10,
stim_fb/ques.jpg,stim_fb/posf.jpg,stim_fb/negf.jpg,stim_03/d.jpg,stim_03/c.jpg,1,2,f,5,38,338,29,f,1,0.94974474724,03,01,60.022476133,PLT_learning_3,N,2014_Feb_13_1513,P10,
stim_fb/ques.jpg,stim_fb/negf.jpg,stim_fb/posf.jpg,stim_03/c.jpg,stim_03/d.jpg,2,2,j,5,39,339,36,f,0,1.16631049424,03,01,60.022476133,PLT_learning_3,N,2014_Feb_13_1513,P10,
stim_fb/ques.jpg,stim_fb/posf.jpg,stim_fb/negf.jpg,stim_03/b.jpg,stim_03/a.jpg,1,1,f,5,40,340,8,j,0,0.966425539562,03,01,60.022476133,PLT_learning_3,N,2014_Feb_13_1513,P10,
stim_fb/ques.jpg,stim_fb/negf.jpg,stim_fb/posf.jpg,stim_03/b.jpg,stim_03/a.jpg,1,1,f,5,41,341,3,j,0,1.24964891073,03,01,60.022476133,PLT_learning_3,N,2014_Feb_13_1513,P10,
stim_fb/ques.jpg,stim_fb/negf.jpg,stim_fb/posf.jpg,stim_03/c.jpg,stim_03/d.jpg,2,2,j,5,42,342,31,f,0,1.01637420029,03,01,60.022476133,PLT_learning_3,N,2014_Feb_13_1513,P10,
stim_fb/ques.jpg,stim_fb/negf.jpg,stim_fb/posf.jpg,stim_03/c.jpg,stim_03/d.jpg,2,2,j,5,43,343,34,j,1,1.33300237967,03,01,60.022476133,PLT_learning_3,N,2014_Feb_13_1513,P10,
stim_fb/ques.jpg,stim_fb/negf.jpg,stim_fb/posf.jpg,stim_03/c.jpg,stim_03/d.jpg,2,2,j,5,44,344,32,j,1,1.16631840694,03,01,60.022476133,PLT_learning_3,N,2014_Feb_13_1513,P10,
stim_fb/ques.jpg,stim_fb/posf.jpg,stim_fb/negf.jpg,stim_03/b.jpg,stim_03/a.jpg,1,1,f,5,45,345,9,f,1,1.0996926561,03,01,60.022476133,PLT_learning_3,N,2014_Feb_13_1513,P10,
stim_fb/ques.jpg,stim_fb/negf.jpg,stim_fb/posf.jpg,stim_03/a.jpg,stim_03/b.jpg,2,1,j,5,46,346,16,j,1,0.866480095337,03,01,60.022476133,PLT_learning_3,N,2014_Feb_13_1513,P10,
stim_fb/ques.jpg,stim_fb/negf.jpg,stim_fb/posf.jpg,stim_03/d.jpg,stim_03/c.jpg,1,2,f,5,47,347,25,j,0,1.44956113427,03,01,60.022476133,PLT_learning_3,N,2014_Feb_13_1513,P10,
stim_fb/ques.jpg,stim_fb/posf.jpg,stim_fb/negf.jpg,stim_03/e.jpg,stim_03/f.jpg,2,3,j,5,48,348,58,j,1,1.29963659959,03,01,60.022476133,PLT_learning_3,N,2014_Feb_13_1513,P10,
stim_fb/ques.jpg,stim_fb/negf.jpg,stim_fb/posf.jpg,stim_03/e.jpg,stim_03/f.jpg,2,3,j,5,49,349,50,f,0,1.19968578399,03,01,60.022476133,PLT_learning_3,N,2014_Feb_13_1513,P10,
stim_fb/ques.jpg,stim_fb/negf.jpg,stim_fb/posf.jpg,stim_03/a.jpg,stim_03/b.jpg,2,1,j,5,50,350,14,f,0,1.09969359443,03,01,60.022476133,PLT_learning_3,N,2014_Feb_13_1513,P10,
stim_fb/ques.jpg,stim_fb/negf.jpg,stim_fb/posf.jpg,stim_03/b.jpg,stim_03/a.jpg,1,1,f,5,51,351,0,f,1,1.16630893636,03,01,60.022476133,PLT_learning_3,N,2014_Feb_13_1513,P10,
stim_fb/ques.jpg,stim_fb/negf.jpg,stim_fb/posf.jpg,stim_03/a.jpg,stim_03/b.jpg,2,1,j,5,52,352,10,j,1,0.899755299,03,01,60.022476133,PLT_learning_3,N,2014_Feb_13_1513,P10,
stim_fb/ques.jpg,stim_fb/negf.jpg,stim_fb/posf.jpg,stim_03/b.jpg,stim_03/a.jpg,1,1,f,5,53,353,1,f,1,0.883070016504,03,01,60.022476133,PLT_learning_3,N,2014_Feb_13_1513,P10,
stim_fb/ques.jpg,stim_fb/negf.jpg,stim_fb/posf.jpg,stim_03/d.jpg,stim_03/c.jpg,1,2,f,5,54,354,23,j,0,1.28294811111,03,01,60.022476133,PLT_learning_3,N,2014_Feb_13_1513,P10,
stim_fb/ques.jpg,stim_fb/negf.jpg,stim_fb/posf.jpg,stim_03/a.jpg,stim_03/b.jpg,2,1,j,5,55,355,13,j,1,1.04968587272,03,01,60.022476133,PLT_learning_3,N,2014_Feb_13_1513,P10,
stim_fb/ques.jpg,stim_fb/negf.jpg,stim_fb/posf.jpg,stim_03/b.jpg,stim_03/a.jpg,1,1,f,5,56,356,4,f,1,0.916199982708,03,01,60.022476133,PLT_learning_3,N,2014_Feb_13_1513,P10,
stim_fb/ques.jpg,stim_fb/negf.jpg,stim_fb/posf.jpg,stim_03/b.jpg,stim_03/a.jpg,1,1,f,5,57,357,5,f,1,0.949694555324,03,01,60.022476133,PLT_learning_3,N,2014_Feb_13_1513,P10,
stim_fb/ques.jpg,stim_fb/posf.jpg,stim_fb/negf.jpg,stim_03/e.jpg,stim_03/f.jpg,2,3,j,5,58,358,57,f,0,0.999775274715,03,01,60.022476133,PLT_learning_3,N,2014_Feb_13_1513,P10,
stim_fb/ques.jpg,stim_fb/posf.jpg,stim_fb/negf.jpg,stim_03/d.jpg,stim_03/c.jpg,1,2,f,5,59,359,28,f,1,0.966365726703,03,01,60.022476133,PLT_learning_3,N,2014_Feb_13_1513,P10,
