Fb3,Fb2,Fb1,Symbol2,Symbol1,PosCond,Pair,Correct,trials.thisRepN,trials.thisTrialN,trials.thisN,trials.thisIndex,Response.keys,Response.corr,Response.rt,Version,Session Number,frameRate,expName,StimCondition,date,Participant,
stim_fb/ques.jpg,stim_fb/posf.jpg,stim_fb/negf.jpg,stim_03/e.jpg,stim_03/f.jpg,2,3,j,0,0,0,57,f,0,0.966402078172,03,01,60.0152630178,PLT_learning_3,N,2014_Feb_14_1540,P11,
stim_fb/ques.jpg,stim_fb/negf.jpg,stim_fb/posf.jpg,stim_03/b.jpg,stim_03/a.jpg,1,1,f,0,1,1,5,f,1,1.26630626271,03,01,60.0152630178,PLT_learning_3,N,2014_Feb_14_1540,P11,
stim_fb/ques.jpg,stim_fb/negf.jpg,stim_fb/posf.jpg,stim_03/b.jpg,stim_03/a.jpg,1,1,f,0,2,2,0,f,1,0.966410580332,03,01,60.0152630178,PLT_learning_3,N,2014_Feb_14_1540,P11,
stim_fb/ques.jpg,stim_fb/negf.jpg,stim_fb/posf.jpg,stim_03/a.jpg,stim_03/b.jpg,2,1,j,0,3,3,16,j,1,1.23298155885,03,01,60.0152630178,PLT_learning_3,N,2014_Feb_14_1540,P11,
stim_fb/ques.jpg,stim_fb/negf.jpg,stim_fb/posf.jpg,stim_03/f.jpg,stim_03/e.jpg,1,3,f,0,4,4,40,j,0,1.166323658,03,01,60.0152630178,PLT_learning_3,N,2014_Feb_14_1540,P11,
stim_fb/ques.jpg,stim_fb/posf.jpg,stim_fb/negf.jpg,stim_03/d.jpg,stim_03/c.jpg,1,2,f,0,5,5,27,f,1,1.18297095296,03,01,60.0152630178,PLT_learning_3,N,2014_Feb_14_1540,P11,
stim_fb/ques.jpg,stim_fb/negf.jpg,stim_fb/posf.jpg,stim_03/d.jpg,stim_03/c.jpg,1,2,f,0,6,6,22,j,0,1.54952778127,03,01,60.0152630178,PLT_learning_3,N,2014_Feb_14_1540,P11,
stim_fb/ques.jpg,stim_fb/negf.jpg,stim_fb/posf.jpg,stim_03/a.jpg,stim_03/b.jpg,2,1,j,0,7,7,13,None,0,,03,01,60.0152630178,PLT_learning_3,N,2014_Feb_14_1540,P11,
stim_fb/ques.jpg,stim_fb/negf.jpg,stim_fb/posf.jpg,stim_03/c.jpg,stim_03/d.jpg,2,2,j,0,8,8,31,j,1,0.716518592648,03,01,60.0152630178,PLT_learning_3,N,2014_Feb_14_1540,P11,
stim_fb/ques.jpg,stim_fb/negf.jpg,stim_fb/posf.jpg,stim_03/c.jpg,stim_03/d.jpg,2,2,j,0,9,9,32,j,1,0.749791176791,03,01,60.0152630178,PLT_learning_3,N,2014_Feb_14_1540,P11,
stim_fb/ques.jpg,stim_fb/negf.jpg,stim_fb/posf.jpg,stim_03/d.jpg,stim_03/c.jpg,1,2,f,0,10,10,21,f,1,0.983065258662,03,01,60.0152630178,PLT_learning_3,N,2014_Feb_14_1540,P11,
stim_fb/ques.jpg,stim_fb/negf.jpg,stim_fb/posf.jpg,stim_03/d.jpg,stim_03/c.jpg,1,2,f,0,11,11,20,f,1,0.616550375748,03,01,60.0152630178,PLT_learning_3,N,2014_Feb_14_1540,P11,
stim_fb/ques.jpg,stim_fb/negf.jpg,stim_fb/posf.jpg,stim_03/b.jpg,stim_03/a.jpg,1,1,f,0,12,12,1,f,1,1.51622295087,03,01,60.0152630178,PLT_learning_3,N,2014_Feb_14_1540,P11,
stim_fb/ques.jpg,stim_fb/negf.jpg,stim_fb/posf.jpg,stim_03/d.jpg,stim_03/c.jpg,1,2,f,0,13,13,25,f,1,0.89972806021,03,01,60.0152630178,PLT_learning_3,N,2014_Feb_14_1540,P11,
stim_fb/ques.jpg,stim_fb/negf.jpg,stim_fb/posf.jpg,stim_03/f.jpg,stim_03/e.jpg,1,3,f,0,14,14,45,j,0,1.18301458555,03,01,60.0152630178,PLT_learning_3,N,2014_Feb_14_1540,P11,
stim_fb/ques.jpg,stim_fb/negf.jpg,stim_fb/posf.jpg,stim_03/d.jpg,stim_03/c.jpg,1,2,f,0,15,15,24,f,1,1.282972977,03,01,60.0152630178,PLT_learning_3,N,2014_Feb_14_1540,P11,
stim_fb/ques.jpg,stim_fb/negf.jpg,stim_fb/posf.jpg,stim_03/a.jpg,stim_03/b.jpg,2,1,j,0,16,16,10,j,1,1.06639772935,03,01,60.0152630178,PLT_learning_3,N,2014_Feb_14_1540,P11,
stim_fb/ques.jpg,stim_fb/posf.jpg,stim_fb/negf.jpg,stim_03/e.jpg,stim_03/f.jpg,2,3,j,0,17,17,56,f,0,0.983026170381,03,01,60.0152630178,PLT_learning_3,N,2014_Feb_14_1540,P11,
stim_fb/ques.jpg,stim_fb/negf.jpg,stim_fb/posf.jpg,stim_03/c.jpg,stim_03/d.jpg,2,2,j,0,18,18,36,j,1,0.966409930715,03,01,60.0152630178,PLT_learning_3,N,2014_Feb_14_1540,P11,
stim_fb/ques.jpg,stim_fb/posf.jpg,stim_fb/negf.jpg,stim_03/c.jpg,stim_03/d.jpg,2,2,j,0,19,19,39,j,1,0.749767369541,03,01,60.0152630178,PLT_learning_3,N,2014_Feb_14_1540,P11,
stim_fb/ques.jpg,stim_fb/negf.jpg,stim_fb/posf.jpg,stim_03/e.jpg,stim_03/f.jpg,2,3,j,0,20,20,55,j,1,1.13301580809,03,01,60.0152630178,PLT_learning_3,N,2014_Feb_14_1540,P11,
stim_fb/ques.jpg,stim_fb/posf.jpg,stim_fb/negf.jpg,stim_03/f.jpg,stim_03/e.jpg,1,3,f,0,21,21,46,f,1,0.866412381815,03,01,60.0152630178,PLT_learning_3,N,2014_Feb_14_1540,P11,
stim_fb/ques.jpg,stim_fb/negf.jpg,stim_fb/posf.jpg,stim_03/c.jpg,stim_03/d.jpg,2,2,j,0,22,22,34,j,1,0.849763309436,03,01,60.0152630178,PLT_learning_3,N,2014_Feb_14_1540,P11,
stim_fb/ques.jpg,stim_fb/negf.jpg,stim_fb/posf.jpg,stim_03/a.jpg,stim_03/b.jpg,2,1,j,0,23,23,11,j,1,0.933092583166,03,01,60.0152630178,PLT_learning_3,N,2014_Feb_14_1540,P11,
stim_fb/ques.jpg,stim_fb/negf.jpg,stim_fb/posf.jpg,stim_03/f.jpg,stim_03/e.jpg,1,3,f,0,24,24,44,f,1,1.28297358752,03,01,60.0152630178,PLT_learning_3,N,2014_Feb_14_1540,P11,
stim_fb/ques.jpg,stim_fb/negf.jpg,stim_fb/posf.jpg,stim_03/f.jpg,stim_03/e.jpg,1,3,f,0,25,25,42,f,1,0.949762674857,03,01,60.0152630178,PLT_learning_3,N,2014_Feb_14_1540,P11,
stim_fb/ques.jpg,stim_fb/posf.jpg,stim_fb/negf.jpg,stim_03/a.jpg,stim_03/b.jpg,2,1,j,0,26,26,19,j,1,1.03305125431,03,01,60.0152630178,PLT_learning_3,N,2014_Feb_14_1540,P11,
stim_fb/ques.jpg,stim_fb/posf.jpg,stim_fb/negf.jpg,stim_03/c.jpg,stim_03/d.jpg,2,2,j,0,27,27,38,j,1,1.0497148769,03,01,60.0152630178,PLT_learning_3,N,2014_Feb_14_1540,P11,
stim_fb/ques.jpg,stim_fb/negf.jpg,stim_fb/posf.jpg,stim_03/e.jpg,stim_03/f.jpg,2,3,j,0,28,28,51,j,1,1.18297680252,03,01,60.0152630178,PLT_learning_3,N,2014_Feb_14_1540,P11,
stim_fb/ques.jpg,stim_fb/posf.jpg,stim_fb/negf.jpg,stim_03/b.jpg,stim_03/a.jpg,1,1,f,0,29,29,8,j,0,1.54955338098,03,01,60.0152630178,PLT_learning_3,N,2014_Feb_14_1540,P11,
stim_fb/ques.jpg,stim_fb/negf.jpg,stim_fb/posf.jpg,stim_03/d.jpg,stim_03/c.jpg,1,2,f,0,30,30,26,f,1,1.36627259693,03,01,60.0152630178,PLT_learning_3,N,2014_Feb_14_1540,P11,
stim_fb/ques.jpg,stim_fb/negf.jpg,stim_fb/posf.jpg,stim_03/e.jpg,stim_03/f.jpg,2,3,j,0,31,31,50,j,1,1.14968336447,03,01,60.0152630178,PLT_learning_3,N,2014_Feb_14_1540,P11,
stim_fb/ques.jpg,stim_fb/negf.jpg,stim_fb/posf.jpg,stim_03/a.jpg,stim_03/b.jpg,2,1,j,0,32,32,15,f,0,1.29961283444,03,01,60.0152630178,PLT_learning_3,N,2014_Feb_14_1540,P11,
stim_fb/ques.jpg,stim_fb/posf.jpg,stim_fb/negf.jpg,stim_03/a.jpg,stim_03/b.jpg,2,1,j,0,33,33,18,None,0,,03,01,60.0152630178,PLT_learning_3,N,2014_Feb_14_1540,P11,
stim_fb/ques.jpg,stim_fb/posf.jpg,stim_fb/negf.jpg,stim_03/b.jpg,stim_03/a.jpg,1,1,f,0,34,34,9,j,0,0.966384430251,03,01,60.0152630178,PLT_learning_3,N,2014_Feb_14_1540,P11,
stim_fb/ques.jpg,stim_fb/negf.jpg,stim_fb/posf.jpg,stim_03/c.jpg,stim_03/d.jpg,2,2,j,0,35,35,35,j,1,0.999715678395,03,01,60.0152630178,PLT_learning_3,N,2014_Feb_14_1540,P11,
stim_fb/ques.jpg,stim_fb/posf.jpg,stim_fb/negf.jpg,stim_03/e.jpg,stim_03/f.jpg,2,3,j,0,36,36,58,j,1,1.31626366018,03,01,60.0152630178,PLT_learning_3,N,2014_Feb_14_1540,P11,
stim_fb/ques.jpg,stim_fb/negf.jpg,stim_fb/posf.jpg,stim_03/f.jpg,stim_03/e.jpg,1,3,f,0,37,37,41,None,0,,03,01,60.0152630178,PLT_learning_3,N,2014_Feb_14_1540,P11,
stim_fb/ques.jpg,stim_fb/posf.jpg,stim_fb/negf.jpg,stim_03/e.jpg,stim_03/f.jpg,2,3,j,0,38,38,59,j,1,1.14965624598,03,01,60.0152630178,PLT_learning_3,N,2014_Feb_14_1540,P11,
stim_fb/ques.jpg,stim_fb/posf.jpg,stim_fb/negf.jpg,stim_03/d.jpg,stim_03/c.jpg,1,2,f,0,39,39,29,f,1,0.916419544141,03,01,60.0152630178,PLT_learning_3,N,2014_Feb_14_1540,P11,
stim_fb/ques.jpg,stim_fb/negf.jpg,stim_fb/posf.jpg,stim_03/e.jpg,stim_03/f.jpg,2,3,j,0,40,40,53,j,1,1.49955993278,03,01,60.0152630178,PLT_learning_3,N,2014_Feb_14_1540,P11,
stim_fb/ques.jpg,stim_fb/posf.jpg,stim_fb/negf.jpg,stim_03/c.jpg,stim_03/d.jpg,2,2,j,0,41,41,37,j,1,0.883058765503,03,01,60.0152630178,PLT_learning_3,N,2014_Feb_14_1540,P11,
stim_fb/ques.jpg,stim_fb/negf.jpg,stim_fb/posf.jpg,stim_03/b.jpg,stim_03/a.jpg,1,1,f,0,42,42,6,j,0,1.4995234159,03,01,60.0152630178,PLT_learning_3,N,2014_Feb_14_1540,P11,
stim_fb/ques.jpg,stim_fb/negf.jpg,stim_fb/posf.jpg,stim_03/a.jpg,stim_03/b.jpg,2,1,j,0,43,43,12,f,0,0.81641115025,03,01,60.0152630178,PLT_learning_3,N,2014_Feb_14_1540,P11,
stim_fb/ques.jpg,stim_fb/negf.jpg,stim_fb/posf.jpg,stim_03/b.jpg,stim_03/a.jpg,1,1,f,0,44,44,4,f,1,1.09970536272,03,01,60.0152630178,PLT_learning_3,N,2014_Feb_14_1540,P11,
stim_fb/ques.jpg,stim_fb/negf.jpg,stim_fb/posf.jpg,stim_03/b.jpg,stim_03/a.jpg,1,1,f,0,45,45,2,f,1,0.88308358026,03,01,60.0152630178,PLT_learning_3,N,2014_Feb_14_1540,P11,
stim_fb/ques.jpg,stim_fb/posf.jpg,stim_fb/negf.jpg,stim_03/f.jpg,stim_03/e.jpg,1,3,f,0,46,46,48,f,1,1.39957148152,03,01,60.0152630178,PLT_learning_3,N,2014_Feb_14_1540,P11,
stim_fb/ques.jpg,stim_fb/negf.jpg,stim_fb/posf.jpg,stim_03/e.jpg,stim_03/f.jpg,2,3,j,0,47,47,52,f,0,0.983082434409,03,01,60.0152630178,PLT_learning_3,N,2014_Feb_14_1540,P11,
stim_fb/ques.jpg,stim_fb/negf.jpg,stim_fb/posf.jpg,stim_03/a.jpg,stim_03/b.jpg,2,1,j,0,48,48,14,f,0,1.49955724108,03,01,60.0152630178,PLT_learning_3,N,2014_Feb_14_1540,P11,
stim_fb/ques.jpg,stim_fb/posf.jpg,stim_fb/negf.jpg,stim_03/d.jpg,stim_03/c.jpg,1,2,f,0,49,49,28,f,1,1.11634559009,03,01,60.0152630178,PLT_learning_3,N,2014_Feb_14_1540,P11,
stim_fb/ques.jpg,stim_fb/negf.jpg,stim_fb/posf.jpg,stim_03/b.jpg,stim_03/a.jpg,1,1,f,0,50,50,7,j,0,1.26629696357,03,01,60.0152630178,PLT_learning_3,N,2014_Feb_14_1540,P11,
stim_fb/ques.jpg,stim_fb/negf.jpg,stim_fb/posf.jpg,stim_03/e.jpg,stim_03/f.jpg,2,3,j,0,51,51,54,j,1,1.09968542911,03,01,60.0152630178,PLT_learning_3,N,2014_Feb_14_1540,P11,
stim_fb/ques.jpg,stim_fb/negf.jpg,stim_fb/posf.jpg,stim_03/d.jpg,stim_03/c.jpg,1,2,f,0,52,52,23,f,1,1.13300453905,03,01,60.0152630178,PLT_learning_3,N,2014_Feb_14_1540,P11,
stim_fb/ques.jpg,stim_fb/negf.jpg,stim_fb/posf.jpg,stim_03/b.jpg,stim_03/a.jpg,1,1,f,0,53,53,3,None,0,,03,01,60.0152630178,PLT_learning_3,N,2014_Feb_14_1540,P11,
stim_fb/ques.jpg,stim_fb/posf.jpg,stim_fb/negf.jpg,stim_03/f.jpg,stim_03/e.jpg,1,3,f,0,54,54,49,j,0,1.16632143247,03,01,60.0152630178,PLT_learning_3,N,2014_Feb_14_1540,P11,
stim_fb/ques.jpg,stim_fb/negf.jpg,stim_fb/posf.jpg,stim_03/c.jpg,stim_03/d.jpg,2,2,j,0,55,55,33,j,1,0.949728615091,03,01,60.0152630178,PLT_learning_3,N,2014_Feb_14_1540,P11,
stim_fb/ques.jpg,stim_fb/posf.jpg,stim_fb/negf.jpg,stim_03/f.jpg,stim_03/e.jpg,1,3,f,0,56,56,47,f,1,1.41624826788,03,01,60.0152630178,PLT_learning_3,N,2014_Feb_14_1540,P11,
stim_fb/ques.jpg,stim_fb/negf.jpg,stim_fb/posf.jpg,stim_03/a.jpg,stim_03/b.jpg,2,1,j,0,57,57,17,f,0,1.03303767251,03,01,60.0152630178,PLT_learning_3,N,2014_Feb_14_1540,P11,
stim_fb/ques.jpg,stim_fb/negf.jpg,stim_fb/posf.jpg,stim_03/c.jpg,stim_03/d.jpg,2,2,j,0,58,58,30,j,1,0.849797414315,03,01,60.0152630178,PLT_learning_3,N,2014_Feb_14_1540,P11,
stim_fb/ques.jpg,stim_fb/negf.jpg,stim_fb/posf.jpg,stim_03/f.jpg,stim_03/e.jpg,1,3,f,0,59,59,43,f,1,1.36631354985,03,01,60.0152630178,PLT_learning_3,N,2014_Feb_14_1540,P11,
stim_fb/ques.jpg,stim_fb/negf.jpg,stim_fb/posf.jpg,stim_03/d.jpg,stim_03/c.jpg,1,2,f,1,0,60,26,f,1,1.18294037285,03,01,60.0152630178,PLT_learning_3,N,2014_Feb_14_1540,P11,
stim_fb/ques.jpg,stim_fb/negf.jpg,stim_fb/posf.jpg,stim_03/a.jpg,stim_03/b.jpg,2,1,j,1,1,61,10,f,0,1.0830484378,03,01,60.0152630178,PLT_learning_3,N,2014_Feb_14_1540,P11,
stim_fb/ques.jpg,stim_fb/negf.jpg,stim_fb/posf.jpg,stim_03/b.jpg,stim_03/a.jpg,1,1,f,1,2,62,5,f,1,1.08301058559,03,01,60.0152630178,PLT_learning_3,N,2014_Feb_14_1540,P11,
stim_fb/ques.jpg,stim_fb/posf.jpg,stim_fb/negf.jpg,stim_03/f.jpg,stim_03/e.jpg,1,3,f,1,3,63,48,j,0,0.966392336928,03,01,60.0152630178,PLT_learning_3,N,2014_Feb_14_1540,P11,
stim_fb/ques.jpg,stim_fb/negf.jpg,stim_fb/posf.jpg,stim_03/a.jpg,stim_03/b.jpg,2,1,j,1,4,64,13,j,1,0.983051812198,03,01,60.0152630178,PLT_learning_3,N,2014_Feb_14_1540,P11,
stim_fb/ques.jpg,stim_fb/negf.jpg,stim_fb/posf.jpg,stim_03/a.jpg,stim_03/b.jpg,2,1,j,1,5,65,16,j,1,0.766502609369,03,01,60.0152630178,PLT_learning_3,N,2014_Feb_14_1540,P11,
stim_fb/ques.jpg,stim_fb/negf.jpg,stim_fb/posf.jpg,stim_03/b.jpg,stim_03/a.jpg,1,1,f,1,6,66,0,f,1,0.899763094401,03,01,60.0152630178,PLT_learning_3,N,2014_Feb_14_1540,P11,
stim_fb/ques.jpg,stim_fb/negf.jpg,stim_fb/posf.jpg,stim_03/e.jpg,stim_03/f.jpg,2,3,j,1,7,67,55,f,0,1.34962132608,03,01,60.0152630178,PLT_learning_3,N,2014_Feb_14_1540,P11,
stim_fb/ques.jpg,stim_fb/negf.jpg,stim_fb/posf.jpg,stim_03/c.jpg,stim_03/d.jpg,2,2,j,1,8,68,33,j,1,0.949695165844,03,01,60.0152630178,PLT_learning_3,N,2014_Feb_14_1540,P11,
stim_fb/ques.jpg,stim_fb/negf.jpg,stim_fb/posf.jpg,stim_03/c.jpg,stim_03/d.jpg,2,2,j,1,9,69,35,j,1,0.949695174867,03,01,60.0152630178,PLT_learning_3,N,2014_Feb_14_1540,P11,
stim_fb/ques.jpg,stim_fb/negf.jpg,stim_fb/posf.jpg,stim_03/a.jpg,stim_03/b.jpg,2,1,j,1,10,70,17,j,1,1.06640839088,03,01,60.0152630178,PLT_learning_3,N,2014_Feb_14_1540,P11,
stim_fb/ques.jpg,stim_fb/negf.jpg,stim_fb/posf.jpg,stim_03/e.jpg,stim_03/f.jpg,2,3,j,1,11,71,51,f,0,1.38291738364,03,01,60.0152630178,PLT_learning_3,N,2014_Feb_14_1540,P11,
stim_fb/ques.jpg,stim_fb/negf.jpg,stim_fb/posf.jpg,stim_03/a.jpg,stim_03/b.jpg,2,1,j,1,12,72,12,j,1,0.899755365165,03,01,60.0152630178,PLT_learning_3,N,2014_Feb_14_1540,P11,
stim_fb/ques.jpg,stim_fb/posf.jpg,stim_fb/negf.jpg,stim_03/c.jpg,stim_03/d.jpg,2,2,j,1,13,73,39,j,1,0.799772907824,03,01,60.0152630178,PLT_learning_3,N,2014_Feb_14_1540,P11,
stim_fb/ques.jpg,stim_fb/posf.jpg,stim_fb/negf.jpg,stim_03/e.jpg,stim_03/f.jpg,2,3,j,1,14,74,58,f,0,0.933089783198,03,01,60.0152630178,PLT_learning_3,N,2014_Feb_14_1540,P11,
stim_fb/ques.jpg,stim_fb/negf.jpg,stim_fb/posf.jpg,stim_03/f.jpg,stim_03/e.jpg,1,3,f,1,15,75,40,j,0,1.06636830712,03,01,60.0152630178,PLT_learning_3,N,2014_Feb_14_1540,P11,
stim_fb/ques.jpg,stim_fb/negf.jpg,stim_fb/posf.jpg,stim_03/d.jpg,stim_03/c.jpg,1,2,f,1,16,76,21,f,1,0.916419968196,03,01,60.0152630178,PLT_learning_3,N,2014_Feb_14_1540,P11,
stim_fb/ques.jpg,stim_fb/negf.jpg,stim_fb/posf.jpg,stim_03/d.jpg,stim_03/c.jpg,1,2,f,1,17,77,25,f,1,0.666461882009,03,01,60.0152630178,PLT_learning_3,N,2014_Feb_14_1540,P11,
stim_fb/ques.jpg,stim_fb/posf.jpg,stim_fb/negf.jpg,stim_03/f.jpg,stim_03/e.jpg,1,3,f,1,18,78,46,f,1,1.1163404924,03,01,60.0152630178,PLT_learning_3,N,2014_Feb_14_1540,P11,
stim_fb/ques.jpg,stim_fb/negf.jpg,stim_fb/posf.jpg,stim_03/e.jpg,stim_03/f.jpg,2,3,j,1,19,79,53,j,1,0.81641419984,03,01,60.0152630178,PLT_learning_3,N,2014_Feb_14_1540,P11,
stim_fb/ques.jpg,stim_fb/posf.jpg,stim_fb/negf.jpg,stim_03/f.jpg,stim_03/e.jpg,1,3,f,1,20,80,49,j,0,1.39958338214,03,01,60.0152630178,PLT_learning_3,N,2014_Feb_14_1540,P11,
stim_fb/ques.jpg,stim_fb/negf.jpg,stim_fb/posf.jpg,stim_03/d.jpg,stim_03/c.jpg,1,2,f,1,21,81,20,f,1,0.716491176415,03,01,60.0152630178,PLT_learning_3,N,2014_Feb_14_1540,P11,
stim_fb/ques.jpg,stim_fb/negf.jpg,stim_fb/posf.jpg,stim_03/e.jpg,stim_03/f.jpg,2,3,j,1,22,82,54,j,1,1.38292531438,03,01,60.0152630178,PLT_learning_3,N,2014_Feb_14_1540,P11,
stim_fb/ques.jpg,stim_fb/negf.jpg,stim_fb/posf.jpg,stim_03/b.jpg,stim_03/a.jpg,1,1,f,1,23,83,4,f,1,0.83310788525,03,01,60.0152630178,PLT_learning_3,N,2014_Feb_14_1540,P11,
stim_fb/ques.jpg,stim_fb/posf.jpg,stim_fb/negf.jpg,stim_03/d.jpg,stim_03/c.jpg,1,2,f,1,24,84,28,f,1,0.799771620621,03,01,60.0152630178,PLT_learning_3,N,2014_Feb_14_1540,P11,
stim_fb/ques.jpg,stim_fb/posf.jpg,stim_fb/negf.jpg,stim_03/f.jpg,stim_03/e.jpg,1,3,f,1,25,85,47,f,1,1.19963556501,03,01,60.0152630178,PLT_learning_3,N,2014_Feb_14_1540,P11,
stim_fb/ques.jpg,stim_fb/negf.jpg,stim_fb/posf.jpg,stim_03/f.jpg,stim_03/e.jpg,1,3,f,1,26,86,45,j,0,0.733132513543,03,01,60.0152630178,PLT_learning_3,N,2014_Feb_14_1540,P11,
stim_fb/ques.jpg,stim_fb/posf.jpg,stim_fb/negf.jpg,stim_03/e.jpg,stim_03/f.jpg,2,3,j,1,27,87,56,f,0,0.766417780251,03,01,60.0152630178,PLT_learning_3,N,2014_Feb_14_1540,P11,
stim_fb/ques.jpg,stim_fb/posf.jpg,stim_fb/negf.jpg,stim_03/e.jpg,stim_03/f.jpg,2,3,j,1,28,88,59,f,0,0.649811940467,03,01,60.0152630178,PLT_learning_3,N,2014_Feb_14_1540,P11,
stim_fb/ques.jpg,stim_fb/negf.jpg,stim_fb/posf.jpg,stim_03/b.jpg,stim_03/a.jpg,1,1,f,1,29,89,3,f,1,0.833120282102,03,01,60.0152630178,PLT_learning_3,N,2014_Feb_14_1540,P11,
stim_fb/ques.jpg,stim_fb/negf.jpg,stim_fb/posf.jpg,stim_03/d.jpg,stim_03/c.jpg,1,2,f,1,30,90,24,f,1,0.799737590929,03,01,60.0152630178,PLT_learning_3,N,2014_Feb_14_1540,P11,
stim_fb/ques.jpg,stim_fb/negf.jpg,stim_fb/posf.jpg,stim_03/a.jpg,stim_03/b.jpg,2,1,j,1,31,91,14,j,1,1.08306949621,03,01,60.0152630178,PLT_learning_3,N,2014_Feb_14_1540,P11,
stim_fb/ques.jpg,stim_fb/negf.jpg,stim_fb/posf.jpg,stim_03/f.jpg,stim_03/e.jpg,1,3,f,1,32,92,44,j,0,1.08301771634,03,01,60.0152630178,PLT_learning_3,N,2014_Feb_14_1540,P11,
stim_fb/ques.jpg,stim_fb/negf.jpg,stim_fb/posf.jpg,stim_03/d.jpg,stim_03/c.jpg,1,2,f,1,33,93,23,f,1,0.849791736183,03,01,60.0152630178,PLT_learning_3,N,2014_Feb_14_1540,P11,
stim_fb/ques.jpg,stim_fb/posf.jpg,stim_fb/negf.jpg,stim_03/c.jpg,stim_03/d.jpg,2,2,j,1,34,94,37,j,1,1.03303249061,03,01,60.0152630178,PLT_learning_3,N,2014_Feb_14_1540,P11,
stim_fb/ques.jpg,stim_fb/negf.jpg,stim_fb/posf.jpg,stim_03/a.jpg,stim_03/b.jpg,2,1,j,1,35,95,15,j,1,1.19966031361,03,01,60.0152630178,PLT_learning_3,N,2014_Feb_14_1540,P11,
stim_fb/ques.jpg,stim_fb/posf.jpg,stim_fb/negf.jpg,stim_03/b.jpg,stim_03/a.jpg,1,1,f,1,36,96,9,f,1,0.649827711718,03,01,60.0152630178,PLT_learning_3,N,2014_Feb_14_1540,P11,
stim_fb/ques.jpg,stim_fb/negf.jpg,stim_fb/posf.jpg,stim_03/c.jpg,stim_03/d.jpg,2,2,j,1,37,97,34,j,1,1.13301788326,03,01,60.0152630178,PLT_learning_3,N,2014_Feb_14_1540,P11,
stim_fb/ques.jpg,stim_fb/negf.jpg,stim_fb/posf.jpg,stim_03/a.jpg,stim_03/b.jpg,2,1,j,1,38,98,11,j,1,0.999715302459,03,01,60.0152630178,PLT_learning_3,N,2014_Feb_14_1540,P11,
stim_fb/ques.jpg,stim_fb/negf.jpg,stim_fb/posf.jpg,stim_03/f.jpg,stim_03/e.jpg,1,3,f,1,39,99,43,f,1,1.33295635914,03,01,60.0152630178,PLT_learning_3,N,2014_Feb_14_1540,P11,
stim_fb/ques.jpg,stim_fb/negf.jpg,stim_fb/posf.jpg,stim_03/c.jpg,stim_03/d.jpg,2,2,j,1,40,100,30,j,1,0.88308770653,03,01,60.0152630178,PLT_learning_3,N,2014_Feb_14_1540,P11,
stim_fb/ques.jpg,stim_fb/posf.jpg,stim_fb/negf.jpg,stim_03/b.jpg,stim_03/a.jpg,1,1,f,1,41,101,8,f,1,1.16635148626,03,01,60.0152630178,PLT_learning_3,N,2014_Feb_14_1540,P11,
stim_fb/ques.jpg,stim_fb/posf.jpg,stim_fb/negf.jpg,stim_03/a.jpg,stim_03/b.jpg,2,1,j,1,42,102,18,j,1,0.84985745875,03,01,60.0152630178,PLT_learning_3,N,2014_Feb_14_1540,P11,
stim_fb/ques.jpg,stim_fb/negf.jpg,stim_fb/posf.jpg,stim_03/f.jpg,stim_03/e.jpg,1,3,f,1,43,103,42,f,1,1.56619487149,03,01,60.0152630178,PLT_learning_3,N,2014_Feb_14_1540,P11,
stim_fb/ques.jpg,stim_fb/negf.jpg,stim_fb/posf.jpg,stim_03/f.jpg,stim_03/e.jpg,1,3,f,1,44,104,41,f,1,0.983052034751,03,01,60.0152630178,PLT_learning_3,N,2014_Feb_14_1540,P11,
stim_fb/ques.jpg,stim_fb/negf.jpg,stim_fb/posf.jpg,stim_03/c.jpg,stim_03/d.jpg,2,2,j,1,45,105,31,j,1,1.03305386781,03,01,60.0152630178,PLT_learning_3,N,2014_Feb_14_1540,P11,
stim_fb/ques.jpg,stim_fb/negf.jpg,stim_fb/posf.jpg,stim_03/b.jpg,stim_03/a.jpg,1,1,f,1,46,106,7,f,1,0.833105789033,03,01,60.0152630178,PLT_learning_3,N,2014_Feb_14_1540,P11,
stim_fb/ques.jpg,stim_fb/negf.jpg,stim_fb/posf.jpg,stim_03/c.jpg,stim_03/d.jpg,2,2,j,1,47,107,36,j,1,0.766460447438,03,01,60.0152630178,PLT_learning_3,N,2014_Feb_14_1540,P11,
stim_fb/ques.jpg,stim_fb/negf.jpg,stim_fb/posf.jpg,stim_03/e.jpg,stim_03/f.jpg,2,3,j,1,48,108,50,f,0,1.23296482822,03,01,60.0152630178,PLT_learning_3,N,2014_Feb_14_1540,P11,
stim_fb/ques.jpg,stim_fb/posf.jpg,stim_fb/negf.jpg,stim_03/c.jpg,stim_03/d.jpg,2,2,j,1,49,109,38,j,1,0.849679581057,03,01,60.0152630178,PLT_learning_3,N,2014_Feb_14_1540,P11,
stim_fb/ques.jpg,stim_fb/posf.jpg,stim_fb/negf.jpg,stim_03/a.jpg,stim_03/b.jpg,2,1,j,1,50,110,19,j,1,1.04971016116,03,01,60.0152630178,PLT_learning_3,N,2014_Feb_14_1540,P11,
stim_fb/ques.jpg,stim_fb/posf.jpg,stim_fb/negf.jpg,stim_03/d.jpg,stim_03/c.jpg,1,2,f,1,51,111,27,f,1,1.14967050447,03,01,60.0152630178,PLT_learning_3,N,2014_Feb_14_1540,P11,
stim_fb/ques.jpg,stim_fb/negf.jpg,stim_fb/posf.jpg,stim_03/d.jpg,stim_03/c.jpg,1,2,f,1,52,112,22,j,0,1.48288723059,03,01,60.0152630178,PLT_learning_3,N,2014_Feb_14_1540,P11,
stim_fb/ques.jpg,stim_fb/negf.jpg,stim_fb/posf.jpg,stim_03/e.jpg,stim_03/f.jpg,2,3,j,1,53,113,52,f,0,1.39958100924,03,01,60.0152630178,PLT_learning_3,N,2014_Feb_14_1540,P11,
stim_fb/ques.jpg,stim_fb/negf.jpg,stim_fb/posf.jpg,stim_03/b.jpg,stim_03/a.jpg,1,1,f,1,54,114,2,f,1,0.933052081368,03,01,60.0152630178,PLT_learning_3,N,2014_Feb_14_1540,P11,
stim_fb/ques.jpg,stim_fb/negf.jpg,stim_fb/posf.jpg,stim_03/b.jpg,stim_03/a.jpg,1,1,f,1,55,115,6,f,1,0.78313626538,03,01,60.0152630178,PLT_learning_3,N,2014_Feb_14_1540,P11,
stim_fb/ques.jpg,stim_fb/negf.jpg,stim_fb/posf.jpg,stim_03/c.jpg,stim_03/d.jpg,2,2,j,1,56,116,32,j,1,0.766466441356,03,01,60.0152630178,PLT_learning_3,N,2014_Feb_14_1540,P11,
stim_fb/ques.jpg,stim_fb/posf.jpg,stim_fb/negf.jpg,stim_03/d.jpg,stim_03/c.jpg,1,2,f,1,57,117,29,f,1,0.766426778645,03,01,60.0152630178,PLT_learning_3,N,2014_Feb_14_1540,P11,
stim_fb/ques.jpg,stim_fb/negf.jpg,stim_fb/posf.jpg,stim_03/b.jpg,stim_03/a.jpg,1,1,f,1,58,118,1,f,1,0.883085718582,03,01,60.0152630178,PLT_learning_3,N,2014_Feb_14_1540,P11,
stim_fb/ques.jpg,stim_fb/posf.jpg,stim_fb/negf.jpg,stim_03/e.jpg,stim_03/f.jpg,2,3,j,1,59,119,57,j,1,1.28293494735,03,01,60.0152630178,PLT_learning_3,N,2014_Feb_14_1540,P11,
stim_fb/ques.jpg,stim_fb/negf.jpg,stim_fb/posf.jpg,stim_03/c.jpg,stim_03/d.jpg,2,2,j,2,0,120,31,j,1,1.2163216084,03,01,60.0152630178,PLT_learning_3,N,2014_Feb_14_1540,P11,
stim_fb/ques.jpg,stim_fb/negf.jpg,stim_fb/posf.jpg,stim_03/c.jpg,stim_03/d.jpg,2,2,j,2,1,121,36,j,1,1.01638534302,03,01,60.0152630178,PLT_learning_3,N,2014_Feb_14_1540,P11,
stim_fb/ques.jpg,stim_fb/posf.jpg,stim_fb/negf.jpg,stim_03/e.jpg,stim_03/f.jpg,2,3,j,2,2,122,59,f,0,1.36625098213,03,01,60.0152630178,PLT_learning_3,N,2014_Feb_14_1540,P11,
stim_fb/ques.jpg,stim_fb/negf.jpg,stim_fb/posf.jpg,stim_03/c.jpg,stim_03/d.jpg,2,2,j,2,3,123,33,j,1,1.16631466863,03,01,60.0152630178,PLT_learning_3,N,2014_Feb_14_1540,P11,
stim_fb/ques.jpg,stim_fb/negf.jpg,stim_fb/posf.jpg,stim_03/c.jpg,stim_03/d.jpg,2,2,j,2,4,124,30,j,1,0.916411869039,03,01,60.0152630178,PLT_learning_3,N,2014_Feb_14_1540,P11,
stim_fb/ques.jpg,stim_fb/posf.jpg,stim_fb/negf.jpg,stim_03/f.jpg,stim_03/e.jpg,1,3,f,2,5,125,49,f,1,1.5161985722,03,01,60.0152630178,PLT_learning_3,N,2014_Feb_14_1540,P11,
stim_fb/ques.jpg,stim_fb/negf.jpg,stim_fb/posf.jpg,stim_03/e.jpg,stim_03/f.jpg,2,3,j,2,6,126,54,f,0,0.81646379928,03,01,60.0152630178,PLT_learning_3,N,2014_Feb_14_1540,P11,
stim_fb/ques.jpg,stim_fb/negf.jpg,stim_fb/posf.jpg,stim_03/d.jpg,stim_03/c.jpg,1,2,f,2,7,127,21,f,1,1.54955997338,03,01,60.0152630178,PLT_learning_3,N,2014_Feb_14_1540,P11,
stim_fb/ques.jpg,stim_fb/negf.jpg,stim_fb/posf.jpg,stim_03/e.jpg,stim_03/f.jpg,2,3,j,2,8,128,55,j,1,1.53287153002,03,01,60.0152630178,PLT_learning_3,N,2014_Feb_14_1540,P11,
stim_fb/ques.jpg,stim_fb/negf.jpg,stim_fb/posf.jpg,stim_03/f.jpg,stim_03/e.jpg,1,3,f,2,9,129,41,f,1,0.68315073439,03,01,60.0152630178,PLT_learning_3,N,2014_Feb_14_1540,P11,
stim_fb/ques.jpg,stim_fb/negf.jpg,stim_fb/posf.jpg,stim_03/e.jpg,stim_03/f.jpg,2,3,j,2,10,130,53,j,1,0.866581603967,03,01,60.0152630178,PLT_learning_3,N,2014_Feb_14_1540,P11,
stim_fb/ques.jpg,stim_fb/posf.jpg,stim_fb/negf.jpg,stim_03/a.jpg,stim_03/b.jpg,2,1,j,2,11,131,19,j,1,1.06635944407,03,01,60.0152630178,PLT_learning_3,N,2014_Feb_14_1540,P11,
stim_fb/ques.jpg,stim_fb/negf.jpg,stim_fb/posf.jpg,stim_03/e.jpg,stim_03/f.jpg,2,3,j,2,12,132,52,j,1,1.41623026206,03,01,60.0152630178,PLT_learning_3,N,2014_Feb_14_1540,P11,
stim_fb/ques.jpg,stim_fb/posf.jpg,stim_fb/negf.jpg,stim_03/c.jpg,stim_03/d.jpg,2,2,j,2,13,133,39,j,1,0.833091256866,03,01,60.0152630178,PLT_learning_3,N,2014_Feb_14_1540,P11,
stim_fb/ques.jpg,stim_fb/negf.jpg,stim_fb/posf.jpg,stim_03/a.jpg,stim_03/b.jpg,2,1,j,2,14,134,17,j,1,0.816431980091,03,01,60.0152630178,PLT_learning_3,N,2014_Feb_14_1540,P11,
stim_fb/ques.jpg,stim_fb/posf.jpg,stim_fb/negf.jpg,stim_03/d.jpg,stim_03/c.jpg,1,2,f,2,15,135,27,f,1,1.11637238076,03,01,60.0152630178,PLT_learning_3,N,2014_Feb_14_1540,P11,
stim_fb/ques.jpg,stim_fb/posf.jpg,stim_fb/negf.jpg,stim_03/d.jpg,stim_03/c.jpg,1,2,f,2,16,136,29,j,0,0.899762947035,03,01,60.0152630178,PLT_learning_3,N,2014_Feb_14_1540,P11,
stim_fb/ques.jpg,stim_fb/posf.jpg,stim_fb/negf.jpg,stim_03/c.jpg,stim_03/d.jpg,2,2,j,2,17,137,37,j,1,1.29961708402,03,01,60.0152630178,PLT_learning_3,N,2014_Feb_14_1540,P11,
stim_fb/ques.jpg,stim_fb/negf.jpg,stim_fb/posf.jpg,stim_03/c.jpg,stim_03/d.jpg,2,2,j,2,18,138,35,f,0,1.19964350778,03,01,60.0152630178,PLT_learning_3,N,2014_Feb_14_1540,P11,
stim_fb/ques.jpg,stim_fb/negf.jpg,stim_fb/posf.jpg,stim_03/e.jpg,stim_03/f.jpg,2,3,j,2,19,139,50,f,0,1.53288117803,03,01,60.0152630178,PLT_learning_3,N,2014_Feb_14_1540,P11,
stim_fb/ques.jpg,stim_fb/posf.jpg,stim_fb/negf.jpg,stim_03/b.jpg,stim_03/a.jpg,1,1,f,2,20,140,8,j,0,1.38291930241,03,01,60.0152630178,PLT_learning_3,N,2014_Feb_14_1540,P11,
stim_fb/ques.jpg,stim_fb/posf.jpg,stim_fb/negf.jpg,stim_03/e.jpg,stim_03/f.jpg,2,3,j,2,21,141,57,f,0,1.36624899418,03,01,60.0152630178,PLT_learning_3,N,2014_Feb_14_1540,P11,
stim_fb/ques.jpg,stim_fb/negf.jpg,stim_fb/posf.jpg,stim_03/b.jpg,stim_03/a.jpg,1,1,f,2,22,142,5,j,0,1.66615376518,03,01,60.0152630178,PLT_learning_3,N,2014_Feb_14_1540,P11,
stim_fb/ques.jpg,stim_fb/negf.jpg,stim_fb/posf.jpg,stim_03/a.jpg,stim_03/b.jpg,2,1,j,2,23,143,11,j,1,1.46623451916,03,01,60.0152630178,PLT_learning_3,N,2014_Feb_14_1540,P11,
stim_fb/ques.jpg,stim_fb/negf.jpg,stim_fb/posf.jpg,stim_03/a.jpg,stim_03/b.jpg,2,1,j,2,24,144,15,j,1,0.866443822062,03,01,60.0152630178,PLT_learning_3,N,2014_Feb_14_1540,P11,
stim_fb/ques.jpg,stim_fb/negf.jpg,stim_fb/posf.jpg,stim_03/b.jpg,stim_03/a.jpg,1,1,f,2,25,145,0,f,1,0.699783605448,03,01,60.0152630178,PLT_learning_3,N,2014_Feb_14_1540,P11,
stim_fb/ques.jpg,stim_fb/negf.jpg,stim_fb/posf.jpg,stim_03/b.jpg,stim_03/a.jpg,1,1,f,2,26,146,1,f,1,1.01638686782,03,01,60.0152630178,PLT_learning_3,N,2014_Feb_14_1540,P11,
stim_fb/ques.jpg,stim_fb/negf.jpg,stim_fb/posf.jpg,stim_03/b.jpg,stim_03/a.jpg,1,1,f,2,27,147,6,f,1,0.883095366593,03,01,60.0152630178,PLT_learning_3,N,2014_Feb_14_1540,P11,
stim_fb/ques.jpg,stim_fb/negf.jpg,stim_fb/posf.jpg,stim_03/d.jpg,stim_03/c.jpg,1,2,f,2,28,148,22,f,1,1.6494993485,03,01,60.0152630178,PLT_learning_3,N,2014_Feb_14_1540,P11,
stim_fb/ques.jpg,stim_fb/negf.jpg,stim_fb/posf.jpg,stim_03/a.jpg,stim_03/b.jpg,2,1,j,2,29,149,16,None,0,,03,01,60.0152630178,PLT_learning_3,N,2014_Feb_14_1540,P11,
stim_fb/ques.jpg,stim_fb/negf.jpg,stim_fb/posf.jpg,stim_03/a.jpg,stim_03/b.jpg,2,1,j,2,30,150,12,j,1,0.749752915569,03,01,60.0152630178,PLT_learning_3,N,2014_Feb_14_1540,P11,
stim_fb/ques.jpg,stim_fb/posf.jpg,stim_fb/negf.jpg,stim_03/e.jpg,stim_03/f.jpg,2,3,j,2,31,151,56,f,0,1.16628127051,03,01,60.0152630178,PLT_learning_3,N,2014_Feb_14_1540,P11,
stim_fb/ques.jpg,stim_fb/posf.jpg,stim_fb/negf.jpg,stim_03/e.jpg,stim_03/f.jpg,2,3,j,2,32,152,58,f,0,0.833139211212,03,01,60.0152630178,PLT_learning_3,N,2014_Feb_14_1540,P11,
stim_fb/ques.jpg,stim_fb/negf.jpg,stim_fb/posf.jpg,stim_03/a.jpg,stim_03/b.jpg,2,1,j,2,33,153,13,j,1,1.18298918734,03,01,60.0152630178,PLT_learning_3,N,2014_Feb_14_1540,P11,
stim_fb/ques.jpg,stim_fb/negf.jpg,stim_fb/posf.jpg,stim_03/d.jpg,stim_03/c.jpg,1,2,f,2,34,154,24,f,1,1.0330450228,03,01,60.0152630178,PLT_learning_3,N,2014_Feb_14_1540,P11,
stim_fb/ques.jpg,stim_fb/posf.jpg,stim_fb/negf.jpg,stim_03/a.jpg,stim_03/b.jpg,2,1,j,2,35,155,18,j,1,0.833179667899,03,01,60.0152630178,PLT_learning_3,N,2014_Feb_14_1540,P11,
stim_fb/ques.jpg,stim_fb/negf.jpg,stim_fb/posf.jpg,stim_03/d.jpg,stim_03/c.jpg,1,2,f,2,36,156,26,f,1,1.38294808404,03,01,60.0152630178,PLT_learning_3,N,2014_Feb_14_1540,P11,
stim_fb/ques.jpg,stim_fb/negf.jpg,stim_fb/posf.jpg,stim_03/e.jpg,stim_03/f.jpg,2,3,j,2,37,157,51,j,1,1.21639664816,03,01,60.0152630178,PLT_learning_3,N,2014_Feb_14_1540,P11,
stim_fb/ques.jpg,stim_fb/negf.jpg,stim_fb/posf.jpg,stim_03/c.jpg,stim_03/d.jpg,2,2,j,2,38,158,34,j,1,1.19964610324,03,01,60.0152630178,PLT_learning_3,N,2014_Feb_14_1540,P11,
stim_fb/ques.jpg,stim_fb/posf.jpg,stim_fb/negf.jpg,stim_03/f.jpg,stim_03/e.jpg,1,3,f,2,39,159,46,f,1,1.0330252155,03,01,60.0152630178,PLT_learning_3,N,2014_Feb_14_1540,P11,
stim_fb/ques.jpg,stim_fb/negf.jpg,stim_fb/posf.jpg,stim_03/f.jpg,stim_03/e.jpg,1,3,f,2,40,160,45,j,0,1.29961967948,03,01,60.0152630178,PLT_learning_3,N,2014_Feb_14_1540,P11,
stim_fb/ques.jpg,stim_fb/posf.jpg,stim_fb/negf.jpg,stim_03/d.jpg,stim_03/c.jpg,1,2,f,2,41,161,28,f,1,1.2329400285,03,01,60.0152630178,PLT_learning_3,N,2014_Feb_14_1540,P11,
stim_fb/ques.jpg,stim_fb/negf.jpg,stim_fb/posf.jpg,stim_03/d.jpg,stim_03/c.jpg,1,2,f,2,42,162,23,f,1,1.68283466878,03,01,60.0152630178,PLT_learning_3,N,2014_Feb_14_1540,P11,
stim_fb/ques.jpg,stim_fb/negf.jpg,stim_fb/posf.jpg,stim_03/a.jpg,stim_03/b.jpg,2,1,j,2,43,163,10,j,1,1.16631757687,03,01,60.0152630178,PLT_learning_3,N,2014_Feb_14_1540,P11,
stim_fb/ques.jpg,stim_fb/negf.jpg,stim_fb/posf.jpg,stim_03/f.jpg,stim_03/e.jpg,1,3,f,2,44,164,42,f,1,0.916409851017,03,01,60.0152630178,PLT_learning_3,N,2014_Feb_14_1540,P11,
stim_fb/ques.jpg,stim_fb/posf.jpg,stim_fb/negf.jpg,stim_03/c.jpg,stim_03/d.jpg,2,2,j,2,45,165,38,j,1,1.03297278301,03,01,60.0152630178,PLT_learning_3,N,2014_Feb_14_1540,P11,
stim_fb/ques.jpg,stim_fb/negf.jpg,stim_fb/posf.jpg,stim_03/b.jpg,stim_03/a.jpg,1,1,f,2,46,166,2,f,1,1.08307747807,03,01,60.0152630178,PLT_learning_3,N,2014_Feb_14_1540,P11,
stim_fb/ques.jpg,stim_fb/negf.jpg,stim_fb/posf.jpg,stim_03/b.jpg,stim_03/a.jpg,1,1,f,2,47,167,3,f,1,1.0496830938,03,01,60.0152630178,PLT_learning_3,N,2014_Feb_14_1540,P11,
stim_fb/ques.jpg,stim_fb/negf.jpg,stim_fb/posf.jpg,stim_03/b.jpg,stim_03/a.jpg,1,1,f,2,48,168,7,f,1,0.716442358921,03,01,60.0152630178,PLT_learning_3,N,2014_Feb_14_1540,P11,
stim_fb/ques.jpg,stim_fb/negf.jpg,stim_fb/posf.jpg,stim_03/c.jpg,stim_03/d.jpg,2,2,j,2,49,169,32,j,1,1.14967142175,03,01,60.0152630178,PLT_learning_3,N,2014_Feb_14_1540,P11,
stim_fb/ques.jpg,stim_fb/negf.jpg,stim_fb/posf.jpg,stim_03/b.jpg,stim_03/a.jpg,1,1,f,2,50,170,4,f,1,0.83308438777,03,01,60.0152630178,PLT_learning_3,N,2014_Feb_14_1540,P11,
stim_fb/ques.jpg,stim_fb/negf.jpg,stim_fb/posf.jpg,stim_03/d.jpg,stim_03/c.jpg,1,2,f,2,51,171,25,f,1,1.21632982786,03,01,60.0152630178,PLT_learning_3,N,2014_Feb_14_1540,P11,
stim_fb/ques.jpg,stim_fb/negf.jpg,stim_fb/posf.jpg,stim_03/f.jpg,stim_03/e.jpg,1,3,f,2,52,172,44,f,1,1.28296510641,03,01,60.0152630178,PLT_learning_3,N,2014_Feb_14_1540,P11,
stim_fb/ques.jpg,stim_fb/negf.jpg,stim_fb/posf.jpg,stim_03/d.jpg,stim_03/c.jpg,1,2,f,2,53,173,20,f,1,1.21631765356,03,01,60.0152630178,PLT_learning_3,N,2014_Feb_14_1540,P11,
stim_fb/ques.jpg,stim_fb/posf.jpg,stim_fb/negf.jpg,stim_03/b.jpg,stim_03/a.jpg,1,1,f,2,54,174,9,f,1,0.766463731612,03,01,60.0152630178,PLT_learning_3,N,2014_Feb_14_1540,P11,
stim_fb/ques.jpg,stim_fb/posf.jpg,stim_fb/negf.jpg,stim_03/f.jpg,stim_03/e.jpg,1,3,f,2,55,175,48,f,1,1.44963835445,03,01,60.0152630178,PLT_learning_3,N,2014_Feb_14_1540,P11,
stim_fb/ques.jpg,stim_fb/negf.jpg,stim_fb/posf.jpg,stim_03/f.jpg,stim_03/e.jpg,1,3,f,2,56,176,43,j,0,1.03303784995,03,01,60.0152630178,PLT_learning_3,N,2014_Feb_14_1540,P11,
stim_fb/ques.jpg,stim_fb/posf.jpg,stim_fb/negf.jpg,stim_03/f.jpg,stim_03/e.jpg,1,3,f,2,57,177,47,f,1,0.999711341602,03,01,60.0152630178,PLT_learning_3,N,2014_Feb_14_1540,P11,
stim_fb/ques.jpg,stim_fb/negf.jpg,stim_fb/posf.jpg,stim_03/a.jpg,stim_03/b.jpg,2,1,j,2,58,178,14,j,1,0.933045326557,03,01,60.0152630178,PLT_learning_3,N,2014_Feb_14_1540,P11,
stim_fb/ques.jpg,stim_fb/negf.jpg,stim_fb/posf.jpg,stim_03/f.jpg,stim_03/e.jpg,1,3,f,2,59,179,40,f,1,1.08301877197,03,01,60.0152630178,PLT_learning_3,N,2014_Feb_14_1540,P11,
stim_fb/ques.jpg,stim_fb/posf.jpg,stim_fb/negf.jpg,stim_03/c.jpg,stim_03/d.jpg,2,2,j,3,0,180,39,j,1,0.999726469251,03,01,60.0152630178,PLT_learning_3,N,2014_Feb_14_1540,P11,
stim_fb/ques.jpg,stim_fb/posf.jpg,stim_fb/negf.jpg,stim_03/f.jpg,stim_03/e.jpg,1,3,f,3,1,181,47,f,1,0.983062007571,03,01,60.0152630178,PLT_learning_3,N,2014_Feb_14_1540,P11,
stim_fb/ques.jpg,stim_fb/negf.jpg,stim_fb/posf.jpg,stim_03/f.jpg,stim_03/e.jpg,1,3,f,3,2,182,44,j,0,0.866443295753,03,01,60.0152630178,PLT_learning_3,N,2014_Feb_14_1540,P11,
stim_fb/ques.jpg,stim_fb/posf.jpg,stim_fb/negf.jpg,stim_03/b.jpg,stim_03/a.jpg,1,1,f,3,3,183,8,f,1,0.883080506611,03,01,60.0152630178,PLT_learning_3,N,2014_Feb_14_1540,P11,
stim_fb/ques.jpg,stim_fb/negf.jpg,stim_fb/posf.jpg,stim_03/e.jpg,stim_03/f.jpg,2,3,j,3,4,184,55,j,1,1.18301054048,03,01,60.0152630178,PLT_learning_3,N,2014_Feb_14_1540,P11,
stim_fb/ques.jpg,stim_fb/posf.jpg,stim_fb/negf.jpg,stim_03/b.jpg,stim_03/a.jpg,1,1,f,3,5,185,9,j,0,1.59950092593,03,01,60.0152630178,PLT_learning_3,N,2014_Feb_14_1540,P11,
stim_fb/ques.jpg,stim_fb/negf.jpg,stim_fb/posf.jpg,stim_03/f.jpg,stim_03/e.jpg,1,3,f,3,6,186,43,None,0,,03,01,60.0152630178,PLT_learning_3,N,2014_Feb_14_1540,P11,
stim_fb/ques.jpg,stim_fb/negf.jpg,stim_fb/posf.jpg,stim_03/c.jpg,stim_03/d.jpg,2,2,j,3,7,187,36,j,1,0.749804340553,03,01,60.0152630178,PLT_learning_3,N,2014_Feb_14_1540,P11,
stim_fb/ques.jpg,stim_fb/negf.jpg,stim_fb/posf.jpg,stim_03/a.jpg,stim_03/b.jpg,2,1,j,3,8,188,15,f,0,1.04974164652,03,01,60.0152630178,PLT_learning_3,N,2014_Feb_14_1540,P11,
stim_fb/ques.jpg,stim_fb/negf.jpg,stim_fb/posf.jpg,stim_03/c.jpg,stim_03/d.jpg,2,2,j,3,9,189,31,j,1,0.88324286869,03,01,60.0152630178,PLT_learning_3,N,2014_Feb_14_1540,P11,
stim_fb/ques.jpg,stim_fb/negf.jpg,stim_fb/posf.jpg,stim_03/c.jpg,stim_03/d.jpg,2,2,j,3,10,190,30,j,1,0.699873652553,03,01,60.0152630178,PLT_learning_3,N,2014_Feb_14_1540,P11,
stim_fb/ques.jpg,stim_fb/negf.jpg,stim_fb/posf.jpg,stim_03/b.jpg,stim_03/a.jpg,1,1,f,3,11,191,3,f,1,1.08302181855,03,01,60.0152630178,PLT_learning_3,N,2014_Feb_14_1540,P11,
stim_fb/ques.jpg,stim_fb/negf.jpg,stim_fb/posf.jpg,stim_03/e.jpg,stim_03/f.jpg,2,3,j,3,12,192,52,f,0,1.1496841795,03,01,60.0152630178,PLT_learning_3,N,2014_Feb_14_1540,P11,
stim_fb/ques.jpg,stim_fb/posf.jpg,stim_fb/negf.jpg,stim_03/e.jpg,stim_03/f.jpg,2,3,j,3,13,193,59,j,1,1.03302322455,03,01,60.0152630178,PLT_learning_3,N,2014_Feb_14_1540,P11,
stim_fb/ques.jpg,stim_fb/posf.jpg,stim_fb/negf.jpg,stim_03/d.jpg,stim_03/c.jpg,1,2,f,3,14,194,27,f,1,1.11636709962,03,01,60.0152630178,PLT_learning_3,N,2014_Feb_14_1540,P11,
stim_fb/ques.jpg,stim_fb/negf.jpg,stim_fb/posf.jpg,stim_03/e.jpg,stim_03/f.jpg,2,3,j,3,15,195,53,None,0,,03,01,60.0152630178,PLT_learning_3,N,2014_Feb_14_1540,P11,
stim_fb/ques.jpg,stim_fb/negf.jpg,stim_fb/posf.jpg,stim_03/e.jpg,stim_03/f.jpg,2,3,j,3,16,196,54,j,1,0.599881231415,03,01,60.0152630178,PLT_learning_3,N,2014_Feb_14_1540,P11,
stim_fb/ques.jpg,stim_fb/posf.jpg,stim_fb/negf.jpg,stim_03/a.jpg,stim_03/b.jpg,2,1,j,3,17,197,19,f,0,1.24965874821,03,01,60.0152630178,PLT_learning_3,N,2014_Feb_14_1540,P11,
stim_fb/ques.jpg,stim_fb/posf.jpg,stim_fb/negf.jpg,stim_03/c.jpg,stim_03/d.jpg,2,2,j,3,18,198,38,j,1,0.899749431398,03,01,60.0152630178,PLT_learning_3,N,2014_Feb_14_1540,P11,
stim_fb/ques.jpg,stim_fb/negf.jpg,stim_fb/posf.jpg,stim_03/a.jpg,stim_03/b.jpg,2,1,j,3,19,199,16,f,0,1.13299924888,03,01,60.0152630178,PLT_learning_3,N,2014_Feb_14_1540,P11,
stim_fb/ques.jpg,stim_fb/negf.jpg,stim_fb/posf.jpg,stim_03/f.jpg,stim_03/e.jpg,1,3,f,3,20,200,42,None,0,,03,01,60.0152630178,PLT_learning_3,N,2014_Feb_14_1540,P11,
stim_fb/ques.jpg,stim_fb/negf.jpg,stim_fb/posf.jpg,stim_03/c.jpg,stim_03/d.jpg,2,2,j,3,21,201,34,j,1,0.48321200588,03,01,60.0152630178,PLT_learning_3,N,2014_Feb_14_1540,P11,
stim_fb/ques.jpg,stim_fb/negf.jpg,stim_fb/posf.jpg,stim_03/f.jpg,stim_03/e.jpg,1,3,f,3,22,202,40,f,1,0.916409207415,03,01,60.0152630178,PLT_learning_3,N,2014_Feb_14_1540,P11,
stim_fb/ques.jpg,stim_fb/posf.jpg,stim_fb/negf.jpg,stim_03/c.jpg,stim_03/d.jpg,2,2,j,3,23,203,37,j,1,0.916396870712,03,01,60.0152630178,PLT_learning_3,N,2014_Feb_14_1540,P11,
stim_fb/ques.jpg,stim_fb/negf.jpg,stim_fb/posf.jpg,stim_03/b.jpg,stim_03/a.jpg,1,1,f,3,24,204,1,f,1,0.733212855494,03,01,60.0152630178,PLT_learning_3,N,2014_Feb_14_1540,P11,
stim_fb/ques.jpg,stim_fb/negf.jpg,stim_fb/posf.jpg,stim_03/b.jpg,stim_03/a.jpg,1,1,f,3,25,205,6,f,1,0.749769261249,03,01,60.0152630178,PLT_learning_3,N,2014_Feb_14_1540,P11,
stim_fb/ques.jpg,stim_fb/negf.jpg,stim_fb/posf.jpg,stim_03/d.jpg,stim_03/c.jpg,1,2,f,3,26,206,25,f,1,1.2496349169,03,01,60.0152630178,PLT_learning_3,N,2014_Feb_14_1540,P11,
stim_fb/ques.jpg,stim_fb/posf.jpg,stim_fb/negf.jpg,stim_03/f.jpg,stim_03/e.jpg,1,3,f,3,27,207,48,f,1,1.43289572524,03,01,60.0152630178,PLT_learning_3,N,2014_Feb_14_1540,P11,
stim_fb/ques.jpg,stim_fb/negf.jpg,stim_fb/posf.jpg,stim_03/c.jpg,stim_03/d.jpg,2,2,j,3,28,208,32,None,0,,03,01,60.0152630178,PLT_learning_3,N,2014_Feb_14_1540,P11,
stim_fb/ques.jpg,stim_fb/posf.jpg,stim_fb/negf.jpg,stim_03/e.jpg,stim_03/f.jpg,2,3,j,3,29,209,57,f,0,0.783119414443,03,01,60.0152630178,PLT_learning_3,N,2014_Feb_14_1540,P11,
stim_fb/ques.jpg,stim_fb/posf.jpg,stim_fb/negf.jpg,stim_03/d.jpg,stim_03/c.jpg,1,2,f,3,30,210,29,j,0,0.866344514911,03,01,60.0152630178,PLT_learning_3,N,2014_Feb_14_1540,P11,
stim_fb/ques.jpg,stim_fb/negf.jpg,stim_fb/posf.jpg,stim_03/b.jpg,stim_03/a.jpg,1,1,f,3,31,211,2,f,1,1.28300675707,03,01,60.0152630178,PLT_learning_3,N,2014_Feb_14_1540,P11,
stim_fb/ques.jpg,stim_fb/negf.jpg,stim_fb/posf.jpg,stim_03/d.jpg,stim_03/c.jpg,1,2,f,3,32,212,22,f,1,1.04969104258,03,01,60.0152630178,PLT_learning_3,N,2014_Feb_14_1540,P11,
stim_fb/ques.jpg,stim_fb/negf.jpg,stim_fb/posf.jpg,stim_03/d.jpg,stim_03/c.jpg,1,2,f,3,33,213,23,f,1,1.18301849829,03,01,60.0152630178,PLT_learning_3,N,2014_Feb_14_1540,P11,
stim_fb/ques.jpg,stim_fb/posf.jpg,stim_fb/negf.jpg,stim_03/d.jpg,stim_03/c.jpg,1,2,f,3,34,214,28,f,1,0.933070956343,03,01,60.0152630178,PLT_learning_3,N,2014_Feb_14_1540,P11,
stim_fb/ques.jpg,stim_fb/posf.jpg,stim_fb/negf.jpg,stim_03/e.jpg,stim_03/f.jpg,2,3,j,3,35,215,56,j,1,1.38291409946,03,01,60.0152630178,PLT_learning_3,N,2014_Feb_14_1540,P11,
stim_fb/ques.jpg,stim_fb/negf.jpg,stim_fb/posf.jpg,stim_03/b.jpg,stim_03/a.jpg,1,1,f,3,36,216,0,f,1,0.899786552784,03,01,60.0152630178,PLT_learning_3,N,2014_Feb_14_1540,P11,
stim_fb/ques.jpg,stim_fb/negf.jpg,stim_fb/posf.jpg,stim_03/f.jpg,stim_03/e.jpg,1,3,f,3,37,217,45,f,1,1.11634514799,03,01,60.0152630178,PLT_learning_3,N,2014_Feb_14_1540,P11,
stim_fb/ques.jpg,stim_fb/negf.jpg,stim_fb/posf.jpg,stim_03/b.jpg,stim_03/a.jpg,1,1,f,3,38,218,4,f,1,0.833106763458,03,01,60.0152630178,PLT_learning_3,N,2014_Feb_14_1540,P11,
stim_fb/ques.jpg,stim_fb/posf.jpg,stim_fb/negf.jpg,stim_03/f.jpg,stim_03/e.jpg,1,3,f,3,39,219,46,j,0,1.13299420533,03,01,60.0152630178,PLT_learning_3,N,2014_Feb_14_1540,P11,
stim_fb/ques.jpg,stim_fb/negf.jpg,stim_fb/posf.jpg,stim_03/a.jpg,stim_03/b.jpg,2,1,j,3,40,220,11,f,0,1.51622894779,03,01,60.0152630178,PLT_learning_3,N,2014_Feb_14_1540,P11,
stim_fb/ques.jpg,stim_fb/negf.jpg,stim_fb/posf.jpg,stim_03/a.jpg,stim_03/b.jpg,2,1,j,3,41,221,17,j,1,0.583180974651,03,01,60.0152630178,PLT_learning_3,N,2014_Feb_14_1540,P11,
stim_fb/ques.jpg,stim_fb/negf.jpg,stim_fb/posf.jpg,stim_03/e.jpg,stim_03/f.jpg,2,3,j,3,42,222,50,f,0,0.966406917215,03,01,60.0152630178,PLT_learning_3,N,2014_Feb_14_1540,P11,
stim_fb/ques.jpg,stim_fb/negf.jpg,stim_fb/posf.jpg,stim_03/d.jpg,stim_03/c.jpg,1,2,f,3,43,223,24,f,1,1.18299310309,03,01,60.0152630178,PLT_learning_3,N,2014_Feb_14_1540,P11,
stim_fb/ques.jpg,stim_fb/negf.jpg,stim_fb/posf.jpg,stim_03/a.jpg,stim_03/b.jpg,2,1,j,3,44,224,10,j,1,1.01638097315,03,01,60.0152630178,PLT_learning_3,N,2014_Feb_14_1540,P11,
stim_fb/ques.jpg,stim_fb/negf.jpg,stim_fb/posf.jpg,stim_03/c.jpg,stim_03/d.jpg,2,2,j,3,45,225,33,f,0,1.29964193787,03,01,60.0152630178,PLT_learning_3,N,2014_Feb_14_1540,P11,
stim_fb/ques.jpg,stim_fb/negf.jpg,stim_fb/posf.jpg,stim_03/f.jpg,stim_03/e.jpg,1,3,f,3,46,226,41,j,0,1.21636537332,03,01,60.0152630178,PLT_learning_3,N,2014_Feb_14_1540,P11,
stim_fb/ques.jpg,stim_fb/negf.jpg,stim_fb/posf.jpg,stim_03/d.jpg,stim_03/c.jpg,1,2,f,3,47,227,21,f,1,0.949694642542,03,01,60.0152630178,PLT_learning_3,N,2014_Feb_14_1540,P11,
stim_fb/ques.jpg,stim_fb/negf.jpg,stim_fb/posf.jpg,stim_03/e.jpg,stim_03/f.jpg,2,3,j,3,48,228,51,j,1,1.1329879678,03,01,60.0152630178,PLT_learning_3,N,2014_Feb_14_1540,P11,
stim_fb/ques.jpg,stim_fb/negf.jpg,stim_fb/posf.jpg,stim_03/d.jpg,stim_03/c.jpg,1,2,f,3,49,229,20,f,1,0.866430604166,03,01,60.0152630178,PLT_learning_3,N,2014_Feb_14_1540,P11,
stim_fb/ques.jpg,stim_fb/negf.jpg,stim_fb/posf.jpg,stim_03/c.jpg,stim_03/d.jpg,2,2,j,3,50,230,35,j,1,1.0163755296,03,01,60.0152630178,PLT_learning_3,N,2014_Feb_14_1540,P11,
stim_fb/ques.jpg,stim_fb/posf.jpg,stim_fb/negf.jpg,stim_03/e.jpg,stim_03/f.jpg,2,3,j,3,51,231,58,f,0,1.16633713755,03,01,60.0152630178,PLT_learning_3,N,2014_Feb_14_1540,P11,
stim_fb/ques.jpg,stim_fb/negf.jpg,stim_fb/posf.jpg,stim_03/a.jpg,stim_03/b.jpg,2,1,j,3,52,232,14,j,1,1.01641010966,03,01,60.0152630178,PLT_learning_3,N,2014_Feb_14_1540,P11,
stim_fb/ques.jpg,stim_fb/posf.jpg,stim_fb/negf.jpg,stim_03/f.jpg,stim_03/e.jpg,1,3,f,3,53,233,49,j,0,0.933067951865,03,01,60.0152630178,PLT_learning_3,N,2014_Feb_14_1540,P11,
stim_fb/ques.jpg,stim_fb/negf.jpg,stim_fb/posf.jpg,stim_03/a.jpg,stim_03/b.jpg,2,1,j,3,54,234,12,j,1,0.816437032665,03,01,60.0152630178,PLT_learning_3,N,2014_Feb_14_1540,P11,
stim_fb/ques.jpg,stim_fb/negf.jpg,stim_fb/posf.jpg,stim_03/b.jpg,stim_03/a.jpg,1,1,f,3,55,235,5,f,1,0.633167761266,03,01,60.0152630178,PLT_learning_3,N,2014_Feb_14_1540,P11,
stim_fb/ques.jpg,stim_fb/negf.jpg,stim_fb/posf.jpg,stim_03/d.jpg,stim_03/c.jpg,1,2,f,3,56,236,26,f,1,0.899730986493,03,01,60.0152630178,PLT_learning_3,N,2014_Feb_14_1540,P11,
stim_fb/ques.jpg,stim_fb/posf.jpg,stim_fb/negf.jpg,stim_03/a.jpg,stim_03/b.jpg,2,1,j,3,57,237,18,j,1,0.799781972384,03,01,60.0152630178,PLT_learning_3,N,2014_Feb_14_1540,P11,
stim_fb/ques.jpg,stim_fb/negf.jpg,stim_fb/posf.jpg,stim_03/a.jpg,stim_03/b.jpg,2,1,j,3,58,238,13,j,1,0.66648812833,03,01,60.0152630178,PLT_learning_3,N,2014_Feb_14_1540,P11,
stim_fb/ques.jpg,stim_fb/negf.jpg,stim_fb/posf.jpg,stim_03/b.jpg,stim_03/a.jpg,1,1,f,3,59,239,7,f,1,0.599823668154,03,01,60.0152630178,PLT_learning_3,N,2014_Feb_14_1540,P11,
stim_fb/ques.jpg,stim_fb/negf.jpg,stim_fb/posf.jpg,stim_03/c.jpg,stim_03/d.jpg,2,2,j,4,0,240,31,j,1,0.866421990729,03,01,60.0152630178,PLT_learning_3,N,2014_Feb_14_1540,P11,
stim_fb/ques.jpg,stim_fb/negf.jpg,stim_fb/posf.jpg,stim_03/b.jpg,stim_03/a.jpg,1,1,f,4,1,241,4,f,1,0.749812653241,03,01,60.0152630178,PLT_learning_3,N,2014_Feb_14_1540,P11,
stim_fb/ques.jpg,stim_fb/posf.jpg,stim_fb/negf.jpg,stim_03/c.jpg,stim_03/d.jpg,2,2,j,4,2,242,37,j,1,0.883076891614,03,01,60.0152630178,PLT_learning_3,N,2014_Feb_14_1540,P11,
stim_fb/ques.jpg,stim_fb/negf.jpg,stim_fb/posf.jpg,stim_03/b.jpg,stim_03/a.jpg,1,1,f,4,3,243,6,f,1,0.799766381582,03,01,60.0152630178,PLT_learning_3,N,2014_Feb_14_1540,P11,
stim_fb/ques.jpg,stim_fb/negf.jpg,stim_fb/posf.jpg,stim_03/e.jpg,stim_03/f.jpg,2,3,j,4,4,244,50,f,0,1.08301694943,03,01,60.0152630178,PLT_learning_3,N,2014_Feb_14_1540,P11,
stim_fb/ques.jpg,stim_fb/posf.jpg,stim_fb/negf.jpg,stim_03/a.jpg,stim_03/b.jpg,2,1,j,4,5,245,19,j,1,0.816422981696,03,01,60.0152630178,PLT_learning_3,N,2014_Feb_14_1540,P11,
stim_fb/ques.jpg,stim_fb/posf.jpg,stim_fb/negf.jpg,stim_03/f.jpg,stim_03/e.jpg,1,3,f,4,6,246,48,f,1,1.14967376759,03,01,60.0152630178,PLT_learning_3,N,2014_Feb_14_1540,P11,
stim_fb/ques.jpg,stim_fb/negf.jpg,stim_fb/posf.jpg,stim_03/d.jpg,stim_03/c.jpg,1,2,f,4,7,247,20,f,1,0.849728052691,03,01,60.0152630178,PLT_learning_3,N,2014_Feb_14_1540,P11,
stim_fb/ques.jpg,stim_fb/negf.jpg,stim_fb/posf.jpg,stim_03/a.jpg,stim_03/b.jpg,2,1,j,4,8,248,13,j,1,0.666513376165,03,01,60.0152630178,PLT_learning_3,N,2014_Feb_14_1540,P11,
stim_fb/ques.jpg,stim_fb/posf.jpg,stim_fb/negf.jpg,stim_03/c.jpg,stim_03/d.jpg,2,2,j,4,9,249,38,j,1,0.799780213005,03,01,60.0152630178,PLT_learning_3,N,2014_Feb_14_1540,P11,
stim_fb/ques.jpg,stim_fb/negf.jpg,stim_fb/posf.jpg,stim_03/e.jpg,stim_03/f.jpg,2,3,j,4,10,250,53,f,0,0.86639158205,03,01,60.0152630178,PLT_learning_3,N,2014_Feb_14_1540,P11,
stim_fb/ques.jpg,stim_fb/negf.jpg,stim_fb/posf.jpg,stim_03/d.jpg,stim_03/c.jpg,1,2,f,4,11,251,24,j,0,0.816626904208,03,01,60.0152630178,PLT_learning_3,N,2014_Feb_14_1540,P11,
stim_fb/ques.jpg,stim_fb/negf.jpg,stim_fb/posf.jpg,stim_03/f.jpg,stim_03/e.jpg,1,3,f,4,12,252,43,f,1,0.866428516972,03,01,60.0152630178,PLT_learning_3,N,2014_Feb_14_1540,P11,
stim_fb/ques.jpg,stim_fb/negf.jpg,stim_fb/posf.jpg,stim_03/f.jpg,stim_03/e.jpg,1,3,f,4,13,253,42,f,1,0.799791593328,03,01,60.0152630178,PLT_learning_3,N,2014_Feb_14_1540,P11,
stim_fb/ques.jpg,stim_fb/negf.jpg,stim_fb/posf.jpg,stim_03/b.jpg,stim_03/a.jpg,1,1,f,4,14,254,3,f,1,0.91641025402,03,01,60.0152630178,PLT_learning_3,N,2014_Feb_14_1540,P11,
stim_fb/ques.jpg,stim_fb/negf.jpg,stim_fb/posf.jpg,stim_03/a.jpg,stim_03/b.jpg,2,1,j,4,15,255,17,j,1,0.699804083412,03,01,60.0152630178,PLT_learning_3,N,2014_Feb_14_1540,P11,
stim_fb/ques.jpg,stim_fb/negf.jpg,stim_fb/posf.jpg,stim_03/b.jpg,stim_03/a.jpg,1,1,f,4,16,256,1,f,1,0.716477077326,03,01,60.0152630178,PLT_learning_3,N,2014_Feb_14_1540,P11,
stim_fb/ques.jpg,stim_fb/negf.jpg,stim_fb/posf.jpg,stim_03/b.jpg,stim_03/a.jpg,1,1,f,4,17,257,2,f,1,0.633158519265,03,01,60.0152630178,PLT_learning_3,N,2014_Feb_14_1540,P11,
stim_fb/ques.jpg,stim_fb/negf.jpg,stim_fb/posf.jpg,stim_03/d.jpg,stim_03/c.jpg,1,2,f,4,18,258,26,f,1,0.749794151194,03,01,60.0152630178,PLT_learning_3,N,2014_Feb_14_1540,P11,
stim_fb/ques.jpg,stim_fb/negf.jpg,stim_fb/posf.jpg,stim_03/a.jpg,stim_03/b.jpg,2,1,j,4,19,259,10,j,1,0.833130281989,03,01,60.0152630178,PLT_learning_3,N,2014_Feb_14_1540,P11,
stim_fb/ques.jpg,stim_fb/negf.jpg,stim_fb/posf.jpg,stim_03/a.jpg,stim_03/b.jpg,2,1,j,4,20,260,11,j,1,0.949739998421,03,01,60.0152630178,PLT_learning_3,N,2014_Feb_14_1540,P11,
stim_fb/ques.jpg,stim_fb/negf.jpg,stim_fb/posf.jpg,stim_03/a.jpg,stim_03/b.jpg,2,1,j,4,21,261,14,j,1,0.649837855964,03,01,60.0152630178,PLT_learning_3,N,2014_Feb_14_1540,P11,
stim_fb/ques.jpg,stim_fb/negf.jpg,stim_fb/posf.jpg,stim_03/f.jpg,stim_03/e.jpg,1,3,f,4,22,262,40,f,1,1.11633159325,03,01,60.0152630178,PLT_learning_3,N,2014_Feb_14_1540,P11,
stim_fb/ques.jpg,stim_fb/posf.jpg,stim_fb/negf.jpg,stim_03/f.jpg,stim_03/e.jpg,1,3,f,4,23,263,47,f,1,0.699804495438,03,01,60.0152630178,PLT_learning_3,N,2014_Feb_14_1540,P11,
stim_fb/ques.jpg,stim_fb/negf.jpg,stim_fb/posf.jpg,stim_03/b.jpg,stim_03/a.jpg,1,1,f,4,24,264,5,f,1,0.883066175945,03,01,60.0152630178,PLT_learning_3,N,2014_Feb_14_1540,P11,
stim_fb/ques.jpg,stim_fb/negf.jpg,stim_fb/posf.jpg,stim_03/f.jpg,stim_03/e.jpg,1,3,f,4,25,265,45,f,1,0.733092874892,03,01,60.0152630178,PLT_learning_3,N,2014_Feb_14_1540,P11,
stim_fb/ques.jpg,stim_fb/negf.jpg,stim_fb/posf.jpg,stim_03/e.jpg,stim_03/f.jpg,2,3,j,4,26,266,51,j,1,1.01637683786,03,01,60.0152630178,PLT_learning_3,N,2014_Feb_14_1540,P11,
stim_fb/ques.jpg,stim_fb/posf.jpg,stim_fb/negf.jpg,stim_03/f.jpg,stim_03/e.jpg,1,3,f,4,27,267,49,f,1,0.883088575693,03,01,60.0152630178,PLT_learning_3,N,2014_Feb_14_1540,P11,
stim_fb/ques.jpg,stim_fb/negf.jpg,stim_fb/posf.jpg,stim_03/e.jpg,stim_03/f.jpg,2,3,j,4,28,268,55,f,0,1.03303677928,03,01,60.0152630178,PLT_learning_3,N,2014_Feb_14_1540,P11,
stim_fb/ques.jpg,stim_fb/posf.jpg,stim_fb/negf.jpg,stim_03/d.jpg,stim_03/c.jpg,1,2,f,4,29,269,29,f,1,0.783120536234,03,01,60.0152630178,PLT_learning_3,N,2014_Feb_14_1540,P11,
stim_fb/ques.jpg,stim_fb/negf.jpg,stim_fb/posf.jpg,stim_03/d.jpg,stim_03/c.jpg,1,2,f,4,30,270,23,f,1,0.749733126318,03,01,60.0152630178,PLT_learning_3,N,2014_Feb_14_1540,P11,
stim_fb/ques.jpg,stim_fb/negf.jpg,stim_fb/posf.jpg,stim_03/d.jpg,stim_03/c.jpg,1,2,f,4,31,271,21,f,1,0.649844565663,03,01,60.0152630178,PLT_learning_3,N,2014_Feb_14_1540,P11,
stim_fb/ques.jpg,stim_fb/negf.jpg,stim_fb/posf.jpg,stim_03/f.jpg,stim_03/e.jpg,1,3,f,4,32,272,41,f,1,1.04969929813,03,01,60.0152630178,PLT_learning_3,N,2014_Feb_14_1540,P11,
stim_fb/ques.jpg,stim_fb/negf.jpg,stim_fb/posf.jpg,stim_03/a.jpg,stim_03/b.jpg,2,1,j,4,33,273,15,j,1,0.866422498994,03,01,60.0152630178,PLT_learning_3,N,2014_Feb_14_1540,P11,
stim_fb/ques.jpg,stim_fb/negf.jpg,stim_fb/posf.jpg,stim_03/c.jpg,stim_03/d.jpg,2,2,j,4,34,274,34,j,1,1.19968701706,03,01,60.0152630178,PLT_learning_3,N,2014_Feb_14_1540,P11,
stim_fb/ques.jpg,stim_fb/posf.jpg,stim_fb/negf.jpg,stim_03/b.jpg,stim_03/a.jpg,1,1,f,4,35,275,8,f,1,0.816450852058,03,01,60.0152630178,PLT_learning_3,N,2014_Feb_14_1540,P11,
stim_fb/ques.jpg,stim_fb/posf.jpg,stim_fb/negf.jpg,stim_03/c.jpg,stim_03/d.jpg,2,2,j,4,36,276,39,j,1,0.916415505088,03,01,60.0152630178,PLT_learning_3,N,2014_Feb_14_1540,P11,
stim_fb/ques.jpg,stim_fb/posf.jpg,stim_fb/negf.jpg,stim_03/b.jpg,stim_03/a.jpg,1,1,f,4,37,277,9,f,1,0.79978182201,03,01,60.0152630178,PLT_learning_3,N,2014_Feb_14_1540,P11,
stim_fb/ques.jpg,stim_fb/negf.jpg,stim_fb/posf.jpg,stim_03/f.jpg,stim_03/e.jpg,1,3,f,4,38,278,44,f,1,1.56618707007,03,01,60.0152630178,PLT_learning_3,N,2014_Feb_14_1540,P11,
stim_fb/ques.jpg,stim_fb/negf.jpg,stim_fb/posf.jpg,stim_03/c.jpg,stim_03/d.jpg,2,2,j,4,39,279,32,j,1,0.699811656259,03,01,60.0152630178,PLT_learning_3,N,2014_Feb_14_1540,P11,
stim_fb/ques.jpg,stim_fb/posf.jpg,stim_fb/negf.jpg,stim_03/d.jpg,stim_03/c.jpg,1,2,f,4,40,280,27,j,0,0.916410428454,03,01,60.0152630178,PLT_learning_3,N,2014_Feb_14_1540,P11,
stim_fb/ques.jpg,stim_fb/negf.jpg,stim_fb/posf.jpg,stim_03/c.jpg,stim_03/d.jpg,2,2,j,4,41,281,35,j,1,0.73316883193,03,01,60.0152630178,PLT_learning_3,N,2014_Feb_14_1540,P11,
stim_fb/ques.jpg,stim_fb/negf.jpg,stim_fb/posf.jpg,stim_03/e.jpg,stim_03/f.jpg,2,3,j,4,42,282,52,j,1,1.31627271271,03,01,60.0152630178,PLT_learning_3,N,2014_Feb_14_1540,P11,
stim_fb/ques.jpg,stim_fb/negf.jpg,stim_fb/posf.jpg,stim_03/a.jpg,stim_03/b.jpg,2,1,j,4,43,283,16,j,1,0.816439408578,03,01,60.0152630178,PLT_learning_3,N,2014_Feb_14_1540,P11,
stim_fb/ques.jpg,stim_fb/negf.jpg,stim_fb/posf.jpg,stim_03/b.jpg,stim_03/a.jpg,1,1,f,4,44,284,0,f,1,0.616508514565,03,01,60.0152630178,PLT_learning_3,N,2014_Feb_14_1540,P11,
stim_fb/ques.jpg,stim_fb/negf.jpg,stim_fb/posf.jpg,stim_03/e.jpg,stim_03/f.jpg,2,3,j,4,45,285,54,f,0,1.23297901151,03,01,60.0152630178,PLT_learning_3,N,2014_Feb_14_1540,P11,
stim_fb/ques.jpg,stim_fb/negf.jpg,stim_fb/posf.jpg,stim_03/b.jpg,stim_03/a.jpg,1,1,f,4,46,286,7,f,1,0.749794713593,03,01,60.0152630178,PLT_learning_3,N,2014_Feb_14_1540,P11,
stim_fb/ques.jpg,stim_fb/negf.jpg,stim_fb/posf.jpg,stim_03/c.jpg,stim_03/d.jpg,2,2,j,4,47,287,33,j,1,0.766476868306,03,01,60.0152630178,PLT_learning_3,N,2014_Feb_14_1540,P11,
stim_fb/ques.jpg,stim_fb/posf.jpg,stim_fb/negf.jpg,stim_03/f.jpg,stim_03/e.jpg,1,3,f,4,48,288,46,f,1,0.916384985132,03,01,60.0152630178,PLT_learning_3,N,2014_Feb_14_1540,P11,
stim_fb/ques.jpg,stim_fb/negf.jpg,stim_fb/posf.jpg,stim_03/a.jpg,stim_03/b.jpg,2,1,j,4,49,289,12,j,1,0.699811803626,03,01,60.0152630178,PLT_learning_3,N,2014_Feb_14_1540,P11,
stim_fb/ques.jpg,stim_fb/posf.jpg,stim_fb/negf.jpg,stim_03/e.jpg,stim_03/f.jpg,2,3,j,4,50,290,56,j,1,1.03306451431,03,01,60.0152630178,PLT_learning_3,N,2014_Feb_14_1540,P11,
stim_fb/ques.jpg,stim_fb/posf.jpg,stim_fb/negf.jpg,stim_03/a.jpg,stim_03/b.jpg,2,1,j,4,51,291,18,j,1,0.716468316522,03,01,60.0152630178,PLT_learning_3,N,2014_Feb_14_1540,P11,
stim_fb/ques.jpg,stim_fb/negf.jpg,stim_fb/posf.jpg,stim_03/c.jpg,stim_03/d.jpg,2,2,j,4,52,292,30,j,1,0.833075085619,03,01,60.0152630178,PLT_learning_3,N,2014_Feb_14_1540,P11,
stim_fb/ques.jpg,stim_fb/posf.jpg,stim_fb/negf.jpg,stim_03/e.jpg,stim_03/f.jpg,2,3,j,4,53,293,58,j,1,0.966361522238,03,01,60.0152630178,PLT_learning_3,N,2014_Feb_14_1540,P11,
stim_fb/ques.jpg,stim_fb/posf.jpg,stim_fb/negf.jpg,stim_03/e.jpg,stim_03/f.jpg,2,3,j,4,54,294,57,f,0,0.733149430645,03,01,60.0152630178,PLT_learning_3,N,2014_Feb_14_1540,P11,
stim_fb/ques.jpg,stim_fb/negf.jpg,stim_fb/posf.jpg,stim_03/d.jpg,stim_03/c.jpg,1,2,f,4,55,295,25,f,1,0.983061108333,03,01,60.0152630178,PLT_learning_3,N,2014_Feb_14_1540,P11,
stim_fb/ques.jpg,stim_fb/negf.jpg,stim_fb/posf.jpg,stim_03/d.jpg,stim_03/c.jpg,1,2,f,4,56,296,22,f,1,1.0163866994,03,01,60.0152630178,PLT_learning_3,N,2014_Feb_14_1540,P11,
stim_fb/ques.jpg,stim_fb/negf.jpg,stim_fb/posf.jpg,stim_03/c.jpg,stim_03/d.jpg,2,2,j,4,57,297,36,j,1,0.799785728732,03,01,60.0152630178,PLT_learning_3,N,2014_Feb_14_1540,P11,
stim_fb/ques.jpg,stim_fb/posf.jpg,stim_fb/negf.jpg,stim_03/d.jpg,stim_03/c.jpg,1,2,f,4,58,298,28,f,1,0.99970277027,03,01,60.0152630178,PLT_learning_3,N,2014_Feb_14_1540,P11,
stim_fb/ques.jpg,stim_fb/posf.jpg,stim_fb/negf.jpg,stim_03/e.jpg,stim_03/f.jpg,2,3,j,4,59,299,59,f,0,1.16633280076,03,01,60.0152630178,PLT_learning_3,N,2014_Feb_14_1540,P11,
stim_fb/ques.jpg,stim_fb/negf.jpg,stim_fb/posf.jpg,stim_03/e.jpg,stim_03/f.jpg,2,3,j,5,0,300,53,f,0,1.18299418578,03,01,60.0152630178,PLT_learning_3,N,2014_Feb_14_1540,P11,
stim_fb/ques.jpg,stim_fb/negf.jpg,stim_fb/posf.jpg,stim_03/d.jpg,stim_03/c.jpg,1,2,f,5,1,301,21,f,1,0.766452047534,03,01,60.0152630178,PLT_learning_3,N,2014_Feb_14_1540,P11,
stim_fb/ques.jpg,stim_fb/posf.jpg,stim_fb/negf.jpg,stim_03/f.jpg,stim_03/e.jpg,1,3,f,5,2,302,48,j,0,1.53287290143,03,01,60.0152630178,PLT_learning_3,N,2014_Feb_14_1540,P11,
stim_fb/ques.jpg,stim_fb/negf.jpg,stim_fb/posf.jpg,stim_03/b.jpg,stim_03/a.jpg,1,1,f,5,3,303,7,f,1,0.966392751961,03,01,60.0152630178,PLT_learning_3,N,2014_Feb_14_1540,P11,
stim_fb/ques.jpg,stim_fb/posf.jpg,stim_fb/negf.jpg,stim_03/b.jpg,stim_03/a.jpg,1,1,f,5,4,304,8,f,1,0.683166680075,03,01,60.0152630178,PLT_learning_3,N,2014_Feb_14_1540,P11,
stim_fb/ques.jpg,stim_fb/posf.jpg,stim_fb/negf.jpg,stim_03/f.jpg,stim_03/e.jpg,1,3,f,5,5,305,49,None,0,,03,01,60.0152630178,PLT_learning_3,N,2014_Feb_14_1540,P11,
stim_fb/ques.jpg,stim_fb/negf.jpg,stim_fb/posf.jpg,stim_03/b.jpg,stim_03/a.jpg,1,1,f,5,6,306,3,f,1,0.583188610655,03,01,60.0152630178,PLT_learning_3,N,2014_Feb_14_1540,P11,
stim_fb/ques.jpg,stim_fb/negf.jpg,stim_fb/posf.jpg,stim_03/d.jpg,stim_03/c.jpg,1,2,f,5,7,307,20,f,1,0.616511588215,03,01,60.0152630178,PLT_learning_3,N,2014_Feb_14_1540,P11,
stim_fb/ques.jpg,stim_fb/negf.jpg,stim_fb/posf.jpg,stim_03/f.jpg,stim_03/e.jpg,1,3,f,5,8,308,42,j,0,1.28299658275,03,01,60.0152630178,PLT_learning_3,N,2014_Feb_14_1540,P11,
stim_fb/ques.jpg,stim_fb/posf.jpg,stim_fb/negf.jpg,stim_03/e.jpg,stim_03/f.jpg,2,3,j,5,9,309,58,f,0,0.433244193487,03,01,60.0152630178,PLT_learning_3,N,2014_Feb_14_1540,P11,
stim_fb/ques.jpg,stim_fb/negf.jpg,stim_fb/posf.jpg,stim_03/e.jpg,stim_03/f.jpg,2,3,j,5,10,310,50,f,0,0.999712153622,03,01,60.0152630178,PLT_learning_3,N,2014_Feb_14_1540,P11,
stim_fb/ques.jpg,stim_fb/negf.jpg,stim_fb/posf.jpg,stim_03/c.jpg,stim_03/d.jpg,2,2,j,5,11,311,33,f,0,0.983054506904,03,01,60.0152630178,PLT_learning_3,N,2014_Feb_14_1540,P11,
stim_fb/ques.jpg,stim_fb/posf.jpg,stim_fb/negf.jpg,stim_03/b.jpg,stim_03/a.jpg,1,1,f,5,12,312,9,f,1,0.783085956173,03,01,60.0152630178,PLT_learning_3,N,2014_Feb_14_1540,P11,
stim_fb/ques.jpg,stim_fb/negf.jpg,stim_fb/posf.jpg,stim_03/a.jpg,stim_03/b.jpg,2,1,j,5,13,313,15,j,1,0.616488623061,03,01,60.0152630178,PLT_learning_3,N,2014_Feb_14_1540,P11,
stim_fb/ques.jpg,stim_fb/posf.jpg,stim_fb/negf.jpg,stim_03/a.jpg,stim_03/b.jpg,2,1,j,5,14,314,18,f,0,0.783110906268,03,01,60.0152630178,PLT_learning_3,N,2014_Feb_14_1540,P11,
stim_fb/ques.jpg,stim_fb/negf.jpg,stim_fb/posf.jpg,stim_03/b.jpg,stim_03/a.jpg,1,1,f,5,15,315,2,f,1,1.14967633899,03,01,60.0152630178,PLT_learning_3,N,2014_Feb_14_1540,P11,
stim_fb/ques.jpg,stim_fb/negf.jpg,stim_fb/posf.jpg,stim_03/a.jpg,stim_03/b.jpg,2,1,j,5,16,316,10,j,1,0.866422995229,03,01,60.0152630178,PLT_learning_3,N,2014_Feb_14_1540,P11,
stim_fb/ques.jpg,stim_fb/negf.jpg,stim_fb/posf.jpg,stim_03/c.jpg,stim_03/d.jpg,2,2,j,5,17,317,31,j,1,1.04967640215,03,01,60.0152630178,PLT_learning_3,N,2014_Feb_14_1540,P11,
stim_fb/ques.jpg,stim_fb/posf.jpg,stim_fb/negf.jpg,stim_03/e.jpg,stim_03/f.jpg,2,3,j,5,18,318,56,f,0,0.99972415048,03,01,60.0152630178,PLT_learning_3,N,2014_Feb_14_1540,P11,
stim_fb/ques.jpg,stim_fb/negf.jpg,stim_fb/posf.jpg,stim_03/a.jpg,stim_03/b.jpg,2,1,j,5,19,319,16,j,1,0.883089180197,03,01,60.0152630178,PLT_learning_3,N,2014_Feb_14_1540,P11,
stim_fb/ques.jpg,stim_fb/negf.jpg,stim_fb/posf.jpg,stim_03/c.jpg,stim_03/d.jpg,2,2,j,5,20,320,32,j,1,0.599841264948,03,01,60.0152630178,PLT_learning_3,N,2014_Feb_14_1540,P11,
stim_fb/ques.jpg,stim_fb/negf.jpg,stim_fb/posf.jpg,stim_03/b.jpg,stim_03/a.jpg,1,1,f,5,21,321,5,f,1,0.766419690004,03,01,60.0152630178,PLT_learning_3,N,2014_Feb_14_1540,P11,
stim_fb/ques.jpg,stim_fb/negf.jpg,stim_fb/posf.jpg,stim_03/c.jpg,stim_03/d.jpg,2,2,j,5,22,322,34,j,1,0.716471396187,03,01,60.0152630178,PLT_learning_3,N,2014_Feb_14_1540,P11,
stim_fb/ques.jpg,stim_fb/posf.jpg,stim_fb/negf.jpg,stim_03/f.jpg,stim_03/e.jpg,1,3,f,5,23,323,47,f,1,0.816397532359,03,01,60.0152630178,PLT_learning_3,N,2014_Feb_14_1540,P11,
stim_fb/ques.jpg,stim_fb/negf.jpg,stim_fb/posf.jpg,stim_03/e.jpg,stim_03/f.jpg,2,3,j,5,24,324,54,f,0,1.31628253817,03,01,60.0152630178,PLT_learning_3,N,2014_Feb_14_1540,P11,
stim_fb/ques.jpg,stim_fb/negf.jpg,stim_fb/posf.jpg,stim_03/c.jpg,stim_03/d.jpg,2,2,j,5,25,325,36,j,1,0.649808190134,03,01,60.0152630178,PLT_learning_3,N,2014_Feb_14_1540,P11,
stim_fb/ques.jpg,stim_fb/negf.jpg,stim_fb/posf.jpg,stim_03/d.jpg,stim_03/c.jpg,1,2,f,5,26,326,25,f,1,1.03303173272,03,01,60.0152630178,PLT_learning_3,N,2014_Feb_14_1540,P11,
stim_fb/ques.jpg,stim_fb/negf.jpg,stim_fb/posf.jpg,stim_03/b.jpg,stim_03/a.jpg,1,1,f,5,27,327,4,f,1,0.983044630324,03,01,60.0152630178,PLT_learning_3,N,2014_Feb_14_1540,P11,
stim_fb/ques.jpg,stim_fb/posf.jpg,stim_fb/negf.jpg,stim_03/d.jpg,stim_03/c.jpg,1,2,f,5,28,328,28,f,1,0.999716418236,03,01,60.0152630178,PLT_learning_3,N,2014_Feb_14_1540,P11,
stim_fb/ques.jpg,stim_fb/negf.jpg,stim_fb/posf.jpg,stim_03/f.jpg,stim_03/e.jpg,1,3,f,5,29,329,45,j,0,1.18297716041,03,01,60.0152630178,PLT_learning_3,N,2014_Feb_14_1540,P11,
stim_fb/ques.jpg,stim_fb/posf.jpg,stim_fb/negf.jpg,stim_03/a.jpg,stim_03/b.jpg,2,1,j,5,30,330,19,j,1,1.1163458758,03,01,60.0152630178,PLT_learning_3,N,2014_Feb_14_1540,P11,
stim_fb/ques.jpg,stim_fb/negf.jpg,stim_fb/posf.jpg,stim_03/a.jpg,stim_03/b.jpg,2,1,j,5,31,331,13,f,0,1.09967388639,03,01,60.0152630178,PLT_learning_3,N,2014_Feb_14_1540,P11,
stim_fb/ques.jpg,stim_fb/negf.jpg,stim_fb/posf.jpg,stim_03/e.jpg,stim_03/f.jpg,2,3,j,5,32,332,55,f,0,1.11635890723,03,01,60.0152630178,PLT_learning_3,N,2014_Feb_14_1540,P11,
stim_fb/ques.jpg,stim_fb/posf.jpg,stim_fb/negf.jpg,stim_03/e.jpg,stim_03/f.jpg,2,3,j,5,33,333,59,j,1,0.68316675827,03,01,60.0152630178,PLT_learning_3,N,2014_Feb_14_1540,P11,
stim_fb/ques.jpg,stim_fb/posf.jpg,stim_fb/negf.jpg,stim_03/e.jpg,stim_03/f.jpg,2,3,j,5,34,334,57,f,0,0.983110954387,03,01,60.0152630178,PLT_learning_3,N,2014_Feb_14_1540,P11,
stim_fb/ques.jpg,stim_fb/negf.jpg,stim_fb/posf.jpg,stim_03/f.jpg,stim_03/e.jpg,1,3,f,5,35,335,40,j,0,1.03303489058,03,01,60.0152630178,PLT_learning_3,N,2014_Feb_14_1540,P11,
stim_fb/ques.jpg,stim_fb/posf.jpg,stim_fb/negf.jpg,stim_03/d.jpg,stim_03/c.jpg,1,2,f,5,36,336,27,f,1,0.733178257388,03,01,60.0152630178,PLT_learning_3,N,2014_Feb_14_1540,P11,
stim_fb/ques.jpg,stim_fb/negf.jpg,stim_fb/posf.jpg,stim_03/b.jpg,stim_03/a.jpg,1,1,f,5,37,337,6,f,1,0.916416753194,03,01,60.0152630178,PLT_learning_3,N,2014_Feb_14_1540,P11,
stim_fb/ques.jpg,stim_fb/negf.jpg,stim_fb/posf.jpg,stim_03/f.jpg,stim_03/e.jpg,1,3,f,5,38,338,44,j,0,0.783119423465,03,01,60.0152630178,PLT_learning_3,N,2014_Feb_14_1540,P11,
stim_fb/ques.jpg,stim_fb/posf.jpg,stim_fb/negf.jpg,stim_03/c.jpg,stim_03/d.jpg,2,2,j,5,39,339,38,j,1,0.9830250125,03,01,60.0152630178,PLT_learning_3,N,2014_Feb_14_1540,P11,
stim_fb/ques.jpg,stim_fb/negf.jpg,stim_fb/posf.jpg,stim_03/f.jpg,stim_03/e.jpg,1,3,f,5,40,340,43,f,1,1.19965122499,03,01,60.0152630178,PLT_learning_3,N,2014_Feb_14_1540,P11,
stim_fb/ques.jpg,stim_fb/negf.jpg,stim_fb/posf.jpg,stim_03/b.jpg,stim_03/a.jpg,1,1,f,5,41,341,0,f,1,0.833110249132,03,01,60.0152630178,PLT_learning_3,N,2014_Feb_14_1540,P11,
stim_fb/ques.jpg,stim_fb/negf.jpg,stim_fb/posf.jpg,stim_03/c.jpg,stim_03/d.jpg,2,2,j,5,42,342,35,j,1,0.783140536009,03,01,60.0152630178,PLT_learning_3,N,2014_Feb_14_1540,P11,
stim_fb/ques.jpg,stim_fb/negf.jpg,stim_fb/posf.jpg,stim_03/c.jpg,stim_03/d.jpg,2,2,j,5,43,343,30,j,1,1.01637558674,03,01,60.0152630178,PLT_learning_3,N,2014_Feb_14_1540,P11,
stim_fb/ques.jpg,stim_fb/negf.jpg,stim_fb/posf.jpg,stim_03/d.jpg,stim_03/c.jpg,1,2,f,5,44,344,24,f,1,0.683145603621,03,01,60.0152630178,PLT_learning_3,N,2014_Feb_14_1540,P11,
stim_fb/ques.jpg,stim_fb/negf.jpg,stim_fb/posf.jpg,stim_03/f.jpg,stim_03/e.jpg,1,3,f,5,45,345,41,f,1,1.24957818972,03,01,60.0152630178,PLT_learning_3,N,2014_Feb_14_1540,P11,
stim_fb/ques.jpg,stim_fb/negf.jpg,stim_fb/posf.jpg,stim_03/e.jpg,stim_03/f.jpg,2,3,j,5,46,346,52,j,1,0.899806384139,03,01,60.0152630178,PLT_learning_3,N,2014_Feb_14_1540,P11,
stim_fb/ques.jpg,stim_fb/negf.jpg,stim_fb/posf.jpg,stim_03/d.jpg,stim_03/c.jpg,1,2,f,5,47,347,22,f,1,0.699811190099,03,01,60.0152630178,PLT_learning_3,N,2014_Feb_14_1540,P11,
stim_fb/ques.jpg,stim_fb/negf.jpg,stim_fb/posf.jpg,stim_03/e.jpg,stim_03/f.jpg,2,3,j,5,48,348,51,f,0,0.783110172441,03,01,60.0152630178,PLT_learning_3,N,2014_Feb_14_1540,P11,
stim_fb/ques.jpg,stim_fb/negf.jpg,stim_fb/posf.jpg,stim_03/a.jpg,stim_03/b.jpg,2,1,j,5,49,349,11,j,1,0.733107792018,03,01,60.0152630178,PLT_learning_3,N,2014_Feb_14_1540,P11,
stim_fb/ques.jpg,stim_fb/negf.jpg,stim_fb/posf.jpg,stim_03/a.jpg,stim_03/b.jpg,2,1,j,5,50,350,17,j,1,0.816438755954,03,01,60.0152630178,PLT_learning_3,N,2014_Feb_14_1540,P11,
stim_fb/ques.jpg,stim_fb/posf.jpg,stim_fb/negf.jpg,stim_03/d.jpg,stim_03/c.jpg,1,2,f,5,51,351,29,f,1,0.716454259538,03,01,60.0152630178,PLT_learning_3,N,2014_Feb_14_1540,P11,
stim_fb/ques.jpg,stim_fb/posf.jpg,stim_fb/negf.jpg,stim_03/f.jpg,stim_03/e.jpg,1,3,f,5,52,352,46,f,1,0.833112438582,03,01,60.0152630178,PLT_learning_3,N,2014_Feb_14_1540,P11,
stim_fb/ques.jpg,stim_fb/negf.jpg,stim_fb/posf.jpg,stim_03/d.jpg,stim_03/c.jpg,1,2,f,5,53,353,23,f,1,0.866437304842,03,01,60.0152630178,PLT_learning_3,N,2014_Feb_14_1540,P11,
stim_fb/ques.jpg,stim_fb/negf.jpg,stim_fb/posf.jpg,stim_03/a.jpg,stim_03/b.jpg,2,1,j,5,54,354,14,j,1,0.783155239603,03,01,60.0152630178,PLT_learning_3,N,2014_Feb_14_1540,P11,
stim_fb/ques.jpg,stim_fb/negf.jpg,stim_fb/posf.jpg,stim_03/b.jpg,stim_03/a.jpg,1,1,f,5,55,355,1,f,1,0.783100079323,03,01,60.0152630178,PLT_learning_3,N,2014_Feb_14_1540,P11,
stim_fb/ques.jpg,stim_fb/negf.jpg,stim_fb/posf.jpg,stim_03/d.jpg,stim_03/c.jpg,1,2,f,5,56,356,26,j,0,0.98306773683,03,01,60.0152630178,PLT_learning_3,N,2014_Feb_14_1540,P11,
stim_fb/ques.jpg,stim_fb/posf.jpg,stim_fb/negf.jpg,stim_03/c.jpg,stim_03/d.jpg,2,2,j,5,57,357,39,j,1,0.866429322978,03,01,60.0152630178,PLT_learning_3,N,2014_Feb_14_1540,P11,
stim_fb/ques.jpg,stim_fb/negf.jpg,stim_fb/posf.jpg,stim_03/a.jpg,stim_03/b.jpg,2,1,j,5,58,358,12,j,1,0.932864450401,03,01,60.0152630178,PLT_learning_3,N,2014_Feb_14_1540,P11,
stim_fb/ques.jpg,stim_fb/posf.jpg,stim_fb/negf.jpg,stim_03/c.jpg,stim_03/d.jpg,2,2,j,5,59,359,37,j,1,1.24958038518,03,01,60.0152630178,PLT_learning_3,N,2014_Feb_14_1540,P11,
