Fb3,Fb2,Fb1,Symbol2,Symbol1,PosCond,Pair,Correct,trials.thisRepN,trials.thisTrialN,trials.thisN,trials.thisIndex,Response.keys,Response.corr,Response.rt,Version,Session Number,frameRate,expName,StimCondition,date,Participant,
stim_fb/ques.jpg,stim_fb/posf.jpg,stim_fb/negf.jpg,stim_03/b.jpg,stim_03/a.jpg,1,1,f,0,0,0,9,f,1,1.23297400706,03,01,60.0191163693,PLT_learning_3,N,2014_Feb_17_1800,P12,
stim_fb/ques.jpg,stim_fb/negf.jpg,stim_fb/posf.jpg,stim_03/d.jpg,stim_03/c.jpg,1,2,f,0,1,1,26,f,1,1.63283122972,03,01,60.0191163693,PLT_learning_3,N,2014_Feb_17_1800,P12,
stim_fb/ques.jpg,stim_fb/negf.jpg,stim_fb/posf.jpg,stim_03/d.jpg,stim_03/c.jpg,1,2,f,0,2,2,22,f,1,0.816400975929,03,01,60.0191163693,PLT_learning_3,N,2014_Feb_17_1800,P12,
stim_fb/ques.jpg,stim_fb/negf.jpg,stim_fb/posf.jpg,stim_03/c.jpg,stim_03/d.jpg,2,2,j,0,3,3,33,j,1,0.933071419495,03,01,60.0191163693,PLT_learning_3,N,2014_Feb_17_1800,P12,
stim_fb/ques.jpg,stim_fb/negf.jpg,stim_fb/posf.jpg,stim_03/c.jpg,stim_03/d.jpg,2,2,j,0,4,4,35,j,1,0.799795987263,03,01,60.0191163693,PLT_learning_3,N,2014_Feb_17_1800,P12,
stim_fb/ques.jpg,stim_fb/posf.jpg,stim_fb/negf.jpg,stim_03/a.jpg,stim_03/b.jpg,2,1,j,0,5,5,19,None,0,,03,01,60.0191163693,PLT_learning_3,N,2014_Feb_17_1800,P12,
stim_fb/ques.jpg,stim_fb/posf.jpg,stim_fb/negf.jpg,stim_03/c.jpg,stim_03/d.jpg,2,2,j,0,6,6,37,j,1,0.699819653162,03,01,60.0191163693,PLT_learning_3,N,2014_Feb_17_1800,P12,
stim_fb/ques.jpg,stim_fb/negf.jpg,stim_fb/posf.jpg,stim_03/a.jpg,stim_03/b.jpg,2,1,j,0,7,7,15,j,1,0.966400613527,03,01,60.0191163693,PLT_learning_3,N,2014_Feb_17_1800,P12,
stim_fb/ques.jpg,stim_fb/negf.jpg,stim_fb/posf.jpg,stim_03/f.jpg,stim_03/e.jpg,1,3,f,0,8,8,44,f,1,1.2328538821,03,01,60.0191163693,PLT_learning_3,N,2014_Feb_17_1800,P12,
stim_fb/ques.jpg,stim_fb/posf.jpg,stim_fb/negf.jpg,stim_03/f.jpg,stim_03/e.jpg,1,3,f,0,9,9,48,f,1,0.966379224294,03,01,60.0191163693,PLT_learning_3,N,2014_Feb_17_1800,P12,
stim_fb/ques.jpg,stim_fb/negf.jpg,stim_fb/posf.jpg,stim_03/e.jpg,stim_03/f.jpg,2,3,j,0,10,10,53,j,1,0.916465107536,03,01,60.0191163693,PLT_learning_3,N,2014_Feb_17_1800,P12,
stim_fb/ques.jpg,stim_fb/posf.jpg,stim_fb/negf.jpg,stim_03/b.jpg,stim_03/a.jpg,1,1,f,0,11,11,8,j,0,0.883037346195,03,01,60.0191163693,PLT_learning_3,N,2014_Feb_17_1800,P12,
stim_fb/ques.jpg,stim_fb/negf.jpg,stim_fb/posf.jpg,stim_03/b.jpg,stim_03/a.jpg,1,1,f,0,12,12,2,j,0,1.01637074168,03,01,60.0191163693,PLT_learning_3,N,2014_Feb_17_1800,P12,
stim_fb/ques.jpg,stim_fb/negf.jpg,stim_fb/posf.jpg,stim_03/f.jpg,stim_03/e.jpg,1,3,f,0,13,13,41,f,1,1.19966260531,03,01,60.0191163693,PLT_learning_3,N,2014_Feb_17_1800,P12,
stim_fb/ques.jpg,stim_fb/negf.jpg,stim_fb/posf.jpg,stim_03/a.jpg,stim_03/b.jpg,2,1,j,0,14,14,17,j,1,1.08305980609,03,01,60.0191163693,PLT_learning_3,N,2014_Feb_17_1800,P12,
stim_fb/ques.jpg,stim_fb/posf.jpg,stim_fb/negf.jpg,stim_03/f.jpg,stim_03/e.jpg,1,3,f,0,15,15,49,f,1,1.11632621888,03,01,60.0191163693,PLT_learning_3,N,2014_Feb_17_1800,P12,
stim_fb/ques.jpg,stim_fb/negf.jpg,stim_fb/posf.jpg,stim_03/b.jpg,stim_03/a.jpg,1,1,f,0,16,16,4,j,0,1.03307996075,03,01,60.0191163693,PLT_learning_3,N,2014_Feb_17_1800,P12,
stim_fb/ques.jpg,stim_fb/negf.jpg,stim_fb/posf.jpg,stim_03/e.jpg,stim_03/f.jpg,2,3,j,0,17,17,50,j,1,1.2163230129,03,01,60.0191163693,PLT_learning_3,N,2014_Feb_17_1800,P12,
stim_fb/ques.jpg,stim_fb/negf.jpg,stim_fb/posf.jpg,stim_03/a.jpg,stim_03/b.jpg,2,1,j,0,18,18,10,f,0,1.04970339132,03,01,60.0191163693,PLT_learning_3,N,2014_Feb_17_1800,P12,
stim_fb/ques.jpg,stim_fb/negf.jpg,stim_fb/posf.jpg,stim_03/a.jpg,stim_03/b.jpg,2,1,j,0,19,19,13,f,0,0.949734311267,03,01,60.0191163693,PLT_learning_3,N,2014_Feb_17_1800,P12,
stim_fb/ques.jpg,stim_fb/negf.jpg,stim_fb/posf.jpg,stim_03/b.jpg,stim_03/a.jpg,1,1,f,0,20,20,1,f,1,0.916453823453,03,01,60.0191163693,PLT_learning_3,N,2014_Feb_17_1800,P12,
stim_fb/ques.jpg,stim_fb/posf.jpg,stim_fb/negf.jpg,stim_03/e.jpg,stim_03/f.jpg,2,3,j,0,21,21,58,j,1,0.983022648617,03,01,60.0191163693,PLT_learning_3,N,2014_Feb_17_1800,P12,
stim_fb/ques.jpg,stim_fb/negf.jpg,stim_fb/posf.jpg,stim_03/b.jpg,stim_03/a.jpg,1,1,f,0,22,22,5,j,0,1.13299185047,03,01,60.0191163693,PLT_learning_3,N,2014_Feb_17_1800,P12,
stim_fb/ques.jpg,stim_fb/negf.jpg,stim_fb/posf.jpg,stim_03/d.jpg,stim_03/c.jpg,1,2,f,0,23,23,21,f,1,0.616544971297,03,01,60.0191163693,PLT_learning_3,N,2014_Feb_17_1800,P12,
stim_fb/ques.jpg,stim_fb/negf.jpg,stim_fb/posf.jpg,stim_03/c.jpg,stim_03/d.jpg,2,2,j,0,24,24,34,j,1,0.733168756743,03,01,60.0191163693,PLT_learning_3,N,2014_Feb_17_1800,P12,
stim_fb/ques.jpg,stim_fb/negf.jpg,stim_fb/posf.jpg,stim_03/c.jpg,stim_03/d.jpg,2,2,j,0,25,25,31,j,1,0.59984544836,03,01,60.0191163693,PLT_learning_3,N,2014_Feb_17_1800,P12,
stim_fb/ques.jpg,stim_fb/negf.jpg,stim_fb/posf.jpg,stim_03/b.jpg,stim_03/a.jpg,1,1,f,0,26,26,0,j,0,1.03306867366,03,01,60.0191163693,PLT_learning_3,N,2014_Feb_17_1800,P12,
stim_fb/ques.jpg,stim_fb/posf.jpg,stim_fb/negf.jpg,stim_03/e.jpg,stim_03/f.jpg,2,3,j,0,27,27,56,f,0,0.816437092815,03,01,60.0191163693,PLT_learning_3,N,2014_Feb_17_1800,P12,
stim_fb/ques.jpg,stim_fb/posf.jpg,stim_fb/negf.jpg,stim_03/c.jpg,stim_03/d.jpg,2,2,j,0,28,28,39,j,1,0.749776909283,03,01,60.0191163693,PLT_learning_3,N,2014_Feb_17_1800,P12,
stim_fb/ques.jpg,stim_fb/negf.jpg,stim_fb/posf.jpg,stim_03/a.jpg,stim_03/b.jpg,2,1,j,0,29,29,11,j,1,0.883089529066,03,01,60.0191163693,PLT_learning_3,N,2014_Feb_17_1800,P12,
stim_fb/ques.jpg,stim_fb/negf.jpg,stim_fb/posf.jpg,stim_03/e.jpg,stim_03/f.jpg,2,3,j,0,30,30,51,f,0,0.699819460683,03,01,60.0191163693,PLT_learning_3,N,2014_Feb_17_1800,P12,
stim_fb/ques.jpg,stim_fb/negf.jpg,stim_fb/posf.jpg,stim_03/a.jpg,stim_03/b.jpg,2,1,j,0,31,31,16,f,0,0.716463312068,03,01,60.0191163693,PLT_learning_3,N,2014_Feb_17_1800,P12,
stim_fb/ques.jpg,stim_fb/negf.jpg,stim_fb/posf.jpg,stim_03/c.jpg,stim_03/d.jpg,2,2,j,0,32,32,32,j,1,0.799762962072,03,01,60.0191163693,PLT_learning_3,N,2014_Feb_17_1800,P12,
stim_fb/ques.jpg,stim_fb/negf.jpg,stim_fb/posf.jpg,stim_03/e.jpg,stim_03/f.jpg,2,3,j,0,33,33,54,f,0,0.949680158494,03,01,60.0191163693,PLT_learning_3,N,2014_Feb_17_1800,P12,
stim_fb/ques.jpg,stim_fb/negf.jpg,stim_fb/posf.jpg,stim_03/e.jpg,stim_03/f.jpg,2,3,j,0,34,34,55,f,0,0.949706043917,03,01,60.0191163693,PLT_learning_3,N,2014_Feb_17_1800,P12,
stim_fb/ques.jpg,stim_fb/negf.jpg,stim_fb/posf.jpg,stim_03/d.jpg,stim_03/c.jpg,1,2,f,0,35,35,20,f,1,0.866449912219,03,01,60.0191163693,PLT_learning_3,N,2014_Feb_17_1800,P12,
stim_fb/ques.jpg,stim_fb/negf.jpg,stim_fb/posf.jpg,stim_03/f.jpg,stim_03/e.jpg,1,3,f,0,36,36,45,j,0,0.816447847581,03,01,60.0191163693,PLT_learning_3,N,2014_Feb_17_1800,P12,
stim_fb/ques.jpg,stim_fb/posf.jpg,stim_fb/negf.jpg,stim_03/d.jpg,stim_03/c.jpg,1,2,f,0,37,37,28,f,1,0.699762709443,03,01,60.0191163693,PLT_learning_3,N,2014_Feb_17_1800,P12,
stim_fb/ques.jpg,stim_fb/negf.jpg,stim_fb/posf.jpg,stim_03/d.jpg,stim_03/c.jpg,1,2,f,0,38,38,24,j,0,0.849772055202,03,01,60.0191163693,PLT_learning_3,N,2014_Feb_17_1800,P12,
stim_fb/ques.jpg,stim_fb/posf.jpg,stim_fb/negf.jpg,stim_03/f.jpg,stim_03/e.jpg,1,3,f,0,39,39,47,j,0,1.04970918674,03,01,60.0191163693,PLT_learning_3,N,2014_Feb_17_1800,P12,
stim_fb/ques.jpg,stim_fb/posf.jpg,stim_fb/negf.jpg,stim_03/d.jpg,stim_03/c.jpg,1,2,f,0,40,40,29,f,1,0.916415604335,03,01,60.0191163693,PLT_learning_3,N,2014_Feb_17_1800,P12,
stim_fb/ques.jpg,stim_fb/negf.jpg,stim_fb/posf.jpg,stim_03/f.jpg,stim_03/e.jpg,1,3,f,0,41,41,42,j,0,0.799751250926,03,01,60.0191163693,PLT_learning_3,N,2014_Feb_17_1800,P12,
stim_fb/ques.jpg,stim_fb/negf.jpg,stim_fb/posf.jpg,stim_03/d.jpg,stim_03/c.jpg,1,2,f,0,42,42,25,f,1,0.983039093544,03,01,60.0191163693,PLT_learning_3,N,2014_Feb_17_1800,P12,
stim_fb/ques.jpg,stim_fb/negf.jpg,stim_fb/posf.jpg,stim_03/b.jpg,stim_03/a.jpg,1,1,f,0,43,43,7,f,1,0.999730391011,03,01,60.0191163693,PLT_learning_3,N,2014_Feb_17_1800,P12,
stim_fb/ques.jpg,stim_fb/negf.jpg,stim_fb/posf.jpg,stim_03/e.jpg,stim_03/f.jpg,2,3,j,0,44,44,52,j,1,1.08303355376,03,01,60.0191163693,PLT_learning_3,N,2014_Feb_17_1800,P12,
stim_fb/ques.jpg,stim_fb/negf.jpg,stim_fb/posf.jpg,stim_03/d.jpg,stim_03/c.jpg,1,2,f,0,45,45,23,j,0,0.999727915851,03,01,60.0191163693,PLT_learning_3,N,2014_Feb_17_1800,P12,
stim_fb/ques.jpg,stim_fb/negf.jpg,stim_fb/posf.jpg,stim_03/f.jpg,stim_03/e.jpg,1,3,f,0,46,46,40,j,0,1.43290989951,03,01,60.0191163693,PLT_learning_3,N,2014_Feb_17_1800,P12,
stim_fb/ques.jpg,stim_fb/posf.jpg,stim_fb/negf.jpg,stim_03/c.jpg,stim_03/d.jpg,2,2,j,0,47,47,38,j,1,0.816435146972,03,01,60.0191163693,PLT_learning_3,N,2014_Feb_17_1800,P12,
stim_fb/ques.jpg,stim_fb/negf.jpg,stim_fb/posf.jpg,stim_03/b.jpg,stim_03/a.jpg,1,1,f,0,48,48,3,j,0,1.09967555554,03,01,60.0191163693,PLT_learning_3,N,2014_Feb_17_1800,P12,
stim_fb/ques.jpg,stim_fb/negf.jpg,stim_fb/posf.jpg,stim_03/c.jpg,stim_03/d.jpg,2,2,j,0,49,49,36,j,1,1.14965786702,03,01,60.0191163693,PLT_learning_3,N,2014_Feb_17_1800,P12,
stim_fb/ques.jpg,stim_fb/negf.jpg,stim_fb/posf.jpg,stim_03/b.jpg,stim_03/a.jpg,1,1,f,0,50,50,6,f,1,0.916419165197,03,01,60.0191163693,PLT_learning_3,N,2014_Feb_17_1800,P12,
stim_fb/ques.jpg,stim_fb/posf.jpg,stim_fb/negf.jpg,stim_03/e.jpg,stim_03/f.jpg,2,3,j,0,51,51,57,f,0,1.26629496359,03,01,60.0191163693,PLT_learning_3,N,2014_Feb_17_1800,P12,
stim_fb/ques.jpg,stim_fb/negf.jpg,stim_fb/posf.jpg,stim_03/a.jpg,stim_03/b.jpg,2,1,j,0,52,52,14,j,1,0.766452606925,03,01,60.0191163693,PLT_learning_3,N,2014_Feb_17_1800,P12,
stim_fb/ques.jpg,stim_fb/posf.jpg,stim_fb/negf.jpg,stim_03/d.jpg,stim_03/c.jpg,1,2,f,0,53,53,27,j,0,0.749757667395,03,01,60.0191163693,PLT_learning_3,N,2014_Feb_17_1800,P12,
stim_fb/ques.jpg,stim_fb/posf.jpg,stim_fb/negf.jpg,stim_03/e.jpg,stim_03/f.jpg,2,3,j,0,54,54,59,f,0,0.883109225084,03,01,60.0191163693,PLT_learning_3,N,2014_Feb_17_1800,P12,
stim_fb/ques.jpg,stim_fb/posf.jpg,stim_fb/negf.jpg,stim_03/f.jpg,stim_03/e.jpg,1,3,f,0,55,55,46,f,1,0.899727109845,03,01,60.0191163693,PLT_learning_3,N,2014_Feb_17_1800,P12,
stim_fb/ques.jpg,stim_fb/posf.jpg,stim_fb/negf.jpg,stim_03/a.jpg,stim_03/b.jpg,2,1,j,0,56,56,18,j,1,0.833069224031,03,01,60.0191163693,PLT_learning_3,N,2014_Feb_17_1800,P12,
stim_fb/ques.jpg,stim_fb/negf.jpg,stim_fb/posf.jpg,stim_03/a.jpg,stim_03/b.jpg,2,1,j,0,57,57,12,j,1,0.999710042368,03,01,60.0191163693,PLT_learning_3,N,2014_Feb_17_1800,P12,
stim_fb/ques.jpg,stim_fb/negf.jpg,stim_fb/posf.jpg,stim_03/f.jpg,stim_03/e.jpg,1,3,f,0,58,58,43,j,0,0.966366493611,03,01,60.0191163693,PLT_learning_3,N,2014_Feb_17_1800,P12,
stim_fb/ques.jpg,stim_fb/negf.jpg,stim_fb/posf.jpg,stim_03/c.jpg,stim_03/d.jpg,2,2,j,0,59,59,30,j,1,1.03305084228,03,01,60.0191163693,PLT_learning_3,N,2014_Feb_17_1800,P12,
stim_fb/ques.jpg,stim_fb/posf.jpg,stim_fb/negf.jpg,stim_03/c.jpg,stim_03/d.jpg,2,2,j,1,0,60,39,j,1,0.79985423623,03,01,60.0191163693,PLT_learning_3,N,2014_Feb_17_1800,P12,
stim_fb/ques.jpg,stim_fb/negf.jpg,stim_fb/posf.jpg,stim_03/d.jpg,stim_03/c.jpg,1,2,f,1,1,61,25,f,1,0.783130978222,03,01,60.0191163693,PLT_learning_3,N,2014_Feb_17_1800,P12,
stim_fb/ques.jpg,stim_fb/posf.jpg,stim_fb/negf.jpg,stim_03/c.jpg,stim_03/d.jpg,2,2,j,1,2,62,38,f,0,0.916412247982,03,01,60.0191163693,PLT_learning_3,N,2014_Feb_17_1800,P12,
stim_fb/ques.jpg,stim_fb/negf.jpg,stim_fb/posf.jpg,stim_03/b.jpg,stim_03/a.jpg,1,1,f,1,3,63,5,f,1,0.883055649748,03,01,60.0191163693,PLT_learning_3,N,2014_Feb_17_1800,P12,
stim_fb/ques.jpg,stim_fb/negf.jpg,stim_fb/posf.jpg,stim_03/c.jpg,stim_03/d.jpg,2,2,j,1,4,64,36,j,1,1.13307727808,03,01,60.0191163693,PLT_learning_3,N,2014_Feb_17_1800,P12,
stim_fb/ques.jpg,stim_fb/posf.jpg,stim_fb/negf.jpg,stim_03/c.jpg,stim_03/d.jpg,2,2,j,1,5,65,37,f,0,0.849770864238,03,01,60.0191163693,PLT_learning_3,N,2014_Feb_17_1800,P12,
stim_fb/ques.jpg,stim_fb/negf.jpg,stim_fb/posf.jpg,stim_03/c.jpg,stim_03/d.jpg,2,2,j,1,6,66,34,j,1,1.09968842156,03,01,60.0191163693,PLT_learning_3,N,2014_Feb_17_1800,P12,
stim_fb/ques.jpg,stim_fb/negf.jpg,stim_fb/posf.jpg,stim_03/c.jpg,stim_03/d.jpg,2,2,j,1,7,67,32,f,0,0.81645748657,03,01,60.0191163693,PLT_learning_3,N,2014_Feb_17_1800,P12,
stim_fb/ques.jpg,stim_fb/negf.jpg,stim_fb/posf.jpg,stim_03/a.jpg,stim_03/b.jpg,2,1,j,1,8,68,17,j,1,1.21633851648,03,01,60.0191163693,PLT_learning_3,N,2014_Feb_17_1800,P12,
stim_fb/ques.jpg,stim_fb/negf.jpg,stim_fb/posf.jpg,stim_03/f.jpg,stim_03/e.jpg,1,3,f,1,9,69,43,j,0,0.916253768567,03,01,60.0191163693,PLT_learning_3,N,2014_Feb_17_1800,P12,
stim_fb/ques.jpg,stim_fb/negf.jpg,stim_fb/posf.jpg,stim_03/b.jpg,stim_03/a.jpg,1,1,f,1,10,70,0,f,1,1.24963257407,03,01,60.0191163693,PLT_learning_3,N,2014_Feb_17_1800,P12,
stim_fb/ques.jpg,stim_fb/negf.jpg,stim_fb/posf.jpg,stim_03/f.jpg,stim_03/e.jpg,1,3,f,1,11,71,42,j,0,1.06635461405,03,01,60.0191163693,PLT_learning_3,N,2014_Feb_17_1800,P12,
stim_fb/ques.jpg,stim_fb/negf.jpg,stim_fb/posf.jpg,stim_03/a.jpg,stim_03/b.jpg,2,1,j,1,12,72,10,f,0,0.783120205411,03,01,60.0191163693,PLT_learning_3,N,2014_Feb_17_1800,P12,
stim_fb/ques.jpg,stim_fb/posf.jpg,stim_fb/negf.jpg,stim_03/a.jpg,stim_03/b.jpg,2,1,j,1,13,73,19,j,1,0.93308535618,03,01,60.0191163693,PLT_learning_3,N,2014_Feb_17_1800,P12,
stim_fb/ques.jpg,stim_fb/negf.jpg,stim_fb/posf.jpg,stim_03/d.jpg,stim_03/c.jpg,1,2,f,1,14,74,20,f,1,0.766441596523,03,01,60.0191163693,PLT_learning_3,N,2014_Feb_17_1800,P12,
stim_fb/ques.jpg,stim_fb/negf.jpg,stim_fb/posf.jpg,stim_03/f.jpg,stim_03/e.jpg,1,3,f,1,15,75,40,f,1,0.783096852291,03,01,60.0191163693,PLT_learning_3,N,2014_Feb_17_1800,P12,
stim_fb/ques.jpg,stim_fb/negf.jpg,stim_fb/posf.jpg,stim_03/f.jpg,stim_03/e.jpg,1,3,f,1,16,76,44,f,1,1.34963574997,03,01,60.0191163693,PLT_learning_3,N,2014_Feb_17_1800,P12,
stim_fb/ques.jpg,stim_fb/negf.jpg,stim_fb/posf.jpg,stim_03/e.jpg,stim_03/f.jpg,2,3,j,1,17,77,50,f,0,1.26630451536,03,01,60.0191163693,PLT_learning_3,N,2014_Feb_17_1800,P12,
stim_fb/ques.jpg,stim_fb/negf.jpg,stim_fb/posf.jpg,stim_03/d.jpg,stim_03/c.jpg,1,2,f,1,18,78,26,f,1,0.966405711214,03,01,60.0191163693,PLT_learning_3,N,2014_Feb_17_1800,P12,
stim_fb/ques.jpg,stim_fb/posf.jpg,stim_fb/negf.jpg,stim_03/f.jpg,stim_03/e.jpg,1,3,f,1,19,79,47,f,1,0.949730455672,03,01,60.0191163693,PLT_learning_3,N,2014_Feb_17_1800,P12,
stim_fb/ques.jpg,stim_fb/negf.jpg,stim_fb/posf.jpg,stim_03/d.jpg,stim_03/c.jpg,1,2,f,1,20,80,22,f,1,0.699808723962,03,01,60.0191163693,PLT_learning_3,N,2014_Feb_17_1800,P12,
stim_fb/ques.jpg,stim_fb/negf.jpg,stim_fb/posf.jpg,stim_03/d.jpg,stim_03/c.jpg,1,2,f,1,21,81,21,f,1,0.733107166461,03,01,60.0191163693,PLT_learning_3,N,2014_Feb_17_1800,P12,
stim_fb/ques.jpg,stim_fb/negf.jpg,stim_fb/posf.jpg,stim_03/e.jpg,stim_03/f.jpg,2,3,j,1,22,82,54,j,1,0.816426786164,03,01,60.0191163693,PLT_learning_3,N,2014_Feb_17_1800,P12,
stim_fb/ques.jpg,stim_fb/negf.jpg,stim_fb/posf.jpg,stim_03/e.jpg,stim_03/f.jpg,2,3,j,1,23,83,52,j,1,0.916419529103,03,01,60.0191163693,PLT_learning_3,N,2014_Feb_17_1800,P12,
stim_fb/ques.jpg,stim_fb/negf.jpg,stim_fb/posf.jpg,stim_03/f.jpg,stim_03/e.jpg,1,3,f,1,24,84,41,None,0,,03,01,60.0191163693,PLT_learning_3,N,2014_Feb_17_1800,P12,
stim_fb/ques.jpg,stim_fb/negf.jpg,stim_fb/posf.jpg,stim_03/a.jpg,stim_03/b.jpg,2,1,j,1,25,85,16,j,1,0.89975236971,03,01,60.0191163693,PLT_learning_3,N,2014_Feb_17_1800,P12,
stim_fb/ques.jpg,stim_fb/posf.jpg,stim_fb/negf.jpg,stim_03/f.jpg,stim_03/e.jpg,1,3,f,1,26,86,48,f,1,0.966355528321,03,01,60.0191163693,PLT_learning_3,N,2014_Feb_17_1800,P12,
stim_fb/ques.jpg,stim_fb/posf.jpg,stim_fb/negf.jpg,stim_03/e.jpg,stim_03/f.jpg,2,3,j,1,27,87,58,j,1,1.01638651895,03,01,60.0191163693,PLT_learning_3,N,2014_Feb_17_1800,P12,
stim_fb/ques.jpg,stim_fb/negf.jpg,stim_fb/posf.jpg,stim_03/e.jpg,stim_03/f.jpg,2,3,j,1,28,88,53,f,0,1.13305207235,03,01,60.0191163693,PLT_learning_3,N,2014_Feb_17_1800,P12,
stim_fb/ques.jpg,stim_fb/posf.jpg,stim_fb/negf.jpg,stim_03/e.jpg,stim_03/f.jpg,2,3,j,1,29,89,56,f,0,0.733145045732,03,01,60.0191163693,PLT_learning_3,N,2014_Feb_17_1800,P12,
stim_fb/ques.jpg,stim_fb/posf.jpg,stim_fb/negf.jpg,stim_03/e.jpg,stim_03/f.jpg,2,3,j,1,30,90,59,j,1,1.14964959643,03,01,60.0191163693,PLT_learning_3,N,2014_Feb_17_1800,P12,
stim_fb/ques.jpg,stim_fb/negf.jpg,stim_fb/posf.jpg,stim_03/d.jpg,stim_03/c.jpg,1,2,f,1,31,91,24,f,1,1.04968525919,03,01,60.0191163693,PLT_learning_3,N,2014_Feb_17_1800,P12,
stim_fb/ques.jpg,stim_fb/posf.jpg,stim_fb/negf.jpg,stim_03/d.jpg,stim_03/c.jpg,1,2,f,1,32,92,28,j,0,0.999704785284,03,01,60.0191163693,PLT_learning_3,N,2014_Feb_17_1800,P12,
stim_fb/ques.jpg,stim_fb/posf.jpg,stim_fb/negf.jpg,stim_03/a.jpg,stim_03/b.jpg,2,1,j,1,33,93,18,j,1,1.18296230043,03,01,60.0191163693,PLT_learning_3,N,2014_Feb_17_1800,P12,
stim_fb/ques.jpg,stim_fb/negf.jpg,stim_fb/posf.jpg,stim_03/a.jpg,stim_03/b.jpg,2,1,j,1,34,94,15,j,1,0.73314464273,03,01,60.0191163693,PLT_learning_3,N,2014_Feb_17_1800,P12,
stim_fb/ques.jpg,stim_fb/posf.jpg,stim_fb/negf.jpg,stim_03/b.jpg,stim_03/a.jpg,1,1,f,1,35,95,8,f,1,1.13290141239,03,01,60.0191163693,PLT_learning_3,N,2014_Feb_17_1800,P12,
stim_fb/ques.jpg,stim_fb/negf.jpg,stim_fb/posf.jpg,stim_03/a.jpg,stim_03/b.jpg,2,1,j,1,36,96,13,f,0,1.04953642177,03,01,60.0191163693,PLT_learning_3,N,2014_Feb_17_1800,P12,
stim_fb/ques.jpg,stim_fb/negf.jpg,stim_fb/posf.jpg,stim_03/c.jpg,stim_03/d.jpg,2,2,j,1,37,97,33,j,1,0.699818056187,03,01,60.0191163693,PLT_learning_3,N,2014_Feb_17_1800,P12,
stim_fb/ques.jpg,stim_fb/posf.jpg,stim_fb/negf.jpg,stim_03/f.jpg,stim_03/e.jpg,1,3,f,1,38,98,46,j,0,0.683155522306,03,01,60.0191163693,PLT_learning_3,N,2014_Feb_17_1800,P12,
stim_fb/ques.jpg,stim_fb/negf.jpg,stim_fb/posf.jpg,stim_03/a.jpg,stim_03/b.jpg,2,1,j,1,39,99,14,f,0,0.849729445157,03,01,60.0191163693,PLT_learning_3,N,2014_Feb_17_1800,P12,
stim_fb/ques.jpg,stim_fb/negf.jpg,stim_fb/posf.jpg,stim_03/c.jpg,stim_03/d.jpg,2,2,j,1,40,100,30,j,1,0.833145605125,03,01,60.0191163693,PLT_learning_3,N,2014_Feb_17_1800,P12,
stim_fb/ques.jpg,stim_fb/negf.jpg,stim_fb/posf.jpg,stim_03/b.jpg,stim_03/a.jpg,1,1,f,1,41,101,6,j,0,1.06635169679,03,01,60.0191163693,PLT_learning_3,N,2014_Feb_17_1800,P12,
stim_fb/ques.jpg,stim_fb/posf.jpg,stim_fb/negf.jpg,stim_03/b.jpg,stim_03/a.jpg,1,1,f,1,42,102,9,j,0,0.683219759176,03,01,60.0191163693,PLT_learning_3,N,2014_Feb_17_1800,P12,
stim_fb/ques.jpg,stim_fb/negf.jpg,stim_fb/posf.jpg,stim_03/a.jpg,stim_03/b.jpg,2,1,j,1,43,103,12,f,0,1.04969250422,03,01,60.0191163693,PLT_learning_3,N,2014_Feb_17_1800,P12,
stim_fb/ques.jpg,stim_fb/posf.jpg,stim_fb/negf.jpg,stim_03/d.jpg,stim_03/c.jpg,1,2,f,1,44,104,27,j,0,1.18298309117,03,01,60.0191163693,PLT_learning_3,N,2014_Feb_17_1800,P12,
stim_fb/ques.jpg,stim_fb/negf.jpg,stim_fb/posf.jpg,stim_03/e.jpg,stim_03/f.jpg,2,3,j,1,45,105,51,f,0,0.966419690003,03,01,60.0191163693,PLT_learning_3,N,2014_Feb_17_1800,P12,
stim_fb/ques.jpg,stim_fb/negf.jpg,stim_fb/posf.jpg,stim_03/a.jpg,stim_03/b.jpg,2,1,j,1,46,106,11,j,1,0.766457400857,03,01,60.0191163693,PLT_learning_3,N,2014_Feb_17_1800,P12,
stim_fb/ques.jpg,stim_fb/negf.jpg,stim_fb/posf.jpg,stim_03/e.jpg,stim_03/f.jpg,2,3,j,1,47,107,55,j,1,0.849811197618,03,01,60.0191163693,PLT_learning_3,N,2014_Feb_17_1800,P12,
stim_fb/ques.jpg,stim_fb/negf.jpg,stim_fb/posf.jpg,stim_03/c.jpg,stim_03/d.jpg,2,2,j,1,48,108,35,j,1,0.716475814183,03,01,60.0191163693,PLT_learning_3,N,2014_Feb_17_1800,P12,
stim_fb/ques.jpg,stim_fb/posf.jpg,stim_fb/negf.jpg,stim_03/f.jpg,stim_03/e.jpg,1,3,f,1,49,109,49,j,0,0.816460927132,03,01,60.0191163693,PLT_learning_3,N,2014_Feb_17_1800,P12,
stim_fb/ques.jpg,stim_fb/negf.jpg,stim_fb/posf.jpg,stim_03/b.jpg,stim_03/a.jpg,1,1,f,1,50,110,2,f,1,0.883096386131,03,01,60.0191163693,PLT_learning_3,N,2014_Feb_17_1800,P12,
stim_fb/ques.jpg,stim_fb/negf.jpg,stim_fb/posf.jpg,stim_03/f.jpg,stim_03/e.jpg,1,3,f,1,51,111,45,f,1,0.583156135833,03,01,60.0191163693,PLT_learning_3,N,2014_Feb_17_1800,P12,
stim_fb/ques.jpg,stim_fb/negf.jpg,stim_fb/posf.jpg,stim_03/c.jpg,stim_03/d.jpg,2,2,j,1,52,112,31,j,1,0.766425942565,03,01,60.0191163693,PLT_learning_3,N,2014_Feb_17_1800,P12,
stim_fb/ques.jpg,stim_fb/negf.jpg,stim_fb/posf.jpg,stim_03/b.jpg,stim_03/a.jpg,1,1,f,1,53,113,4,j,0,0.883073899167,03,01,60.0191163693,PLT_learning_3,N,2014_Feb_17_1800,P12,
stim_fb/ques.jpg,stim_fb/negf.jpg,stim_fb/posf.jpg,stim_03/b.jpg,stim_03/a.jpg,1,1,f,1,54,114,3,f,1,0.933056685827,03,01,60.0191163693,PLT_learning_3,N,2014_Feb_17_1800,P12,
stim_fb/ques.jpg,stim_fb/posf.jpg,stim_fb/negf.jpg,stim_03/e.jpg,stim_03/f.jpg,2,3,j,1,55,115,57,f,0,0.916358507235,03,01,60.0191163693,PLT_learning_3,N,2014_Feb_17_1800,P12,
stim_fb/ques.jpg,stim_fb/posf.jpg,stim_fb/negf.jpg,stim_03/d.jpg,stim_03/c.jpg,1,2,f,1,56,116,29,f,1,0.533162254561,03,01,60.0191163693,PLT_learning_3,N,2014_Feb_17_1800,P12,
stim_fb/ques.jpg,stim_fb/negf.jpg,stim_fb/posf.jpg,stim_03/b.jpg,stim_03/a.jpg,1,1,f,1,57,117,1,f,1,1.06635006974,03,01,60.0191163693,PLT_learning_3,N,2014_Feb_17_1800,P12,
stim_fb/ques.jpg,stim_fb/negf.jpg,stim_fb/posf.jpg,stim_03/d.jpg,stim_03/c.jpg,1,2,f,1,58,118,23,f,1,0.499890004248,03,01,60.0191163693,PLT_learning_3,N,2014_Feb_17_1800,P12,
stim_fb/ques.jpg,stim_fb/negf.jpg,stim_fb/posf.jpg,stim_03/b.jpg,stim_03/a.jpg,1,1,f,1,59,119,7,j,0,0.499895601177,03,01,60.0191163693,PLT_learning_3,N,2014_Feb_17_1800,P12,
stim_fb/ques.jpg,stim_fb/negf.jpg,stim_fb/posf.jpg,stim_03/c.jpg,stim_03/d.jpg,2,2,j,2,0,120,32,j,1,0.666500573302,03,01,60.0191163693,PLT_learning_3,N,2014_Feb_17_1800,P12,
stim_fb/ques.jpg,stim_fb/negf.jpg,stim_fb/posf.jpg,stim_03/a.jpg,stim_03/b.jpg,2,1,j,2,1,121,13,j,1,0.883071132281,03,01,60.0191163693,PLT_learning_3,N,2014_Feb_17_1800,P12,
stim_fb/ques.jpg,stim_fb/negf.jpg,stim_fb/posf.jpg,stim_03/c.jpg,stim_03/d.jpg,2,2,j,2,2,122,35,j,1,0.599840070977,03,01,60.0191163693,PLT_learning_3,N,2014_Feb_17_1800,P12,
stim_fb/ques.jpg,stim_fb/negf.jpg,stim_fb/posf.jpg,stim_03/b.jpg,stim_03/a.jpg,1,1,f,2,3,123,5,f,1,0.983061096303,03,01,60.0191163693,PLT_learning_3,N,2014_Feb_17_1800,P12,
stim_fb/ques.jpg,stim_fb/negf.jpg,stim_fb/posf.jpg,stim_03/e.jpg,stim_03/f.jpg,2,3,j,2,4,124,54,f,0,0.933047696455,03,01,60.0191163693,PLT_learning_3,N,2014_Feb_17_1800,P12,
stim_fb/ques.jpg,stim_fb/posf.jpg,stim_fb/negf.jpg,stim_03/a.jpg,stim_03/b.jpg,2,1,j,2,5,125,19,j,1,0.716464115066,03,01,60.0191163693,PLT_learning_3,N,2014_Feb_17_1800,P12,
stim_fb/ques.jpg,stim_fb/negf.jpg,stim_fb/posf.jpg,stim_03/c.jpg,stim_03/d.jpg,2,2,j,2,6,126,33,j,1,0.633172122119,03,01,60.0191163693,PLT_learning_3,N,2014_Feb_17_1800,P12,
stim_fb/ques.jpg,stim_fb/posf.jpg,stim_fb/negf.jpg,stim_03/e.jpg,stim_03/f.jpg,2,3,j,2,7,127,59,j,1,1.1163275542,03,01,60.0191163693,PLT_learning_3,N,2014_Feb_17_1800,P12,
stim_fb/ques.jpg,stim_fb/negf.jpg,stim_fb/posf.jpg,stim_03/d.jpg,stim_03/c.jpg,1,2,f,2,8,128,24,f,1,0.799796351169,03,01,60.0191163693,PLT_learning_3,N,2014_Feb_17_1800,P12,
stim_fb/ques.jpg,stim_fb/negf.jpg,stim_fb/posf.jpg,stim_03/a.jpg,stim_03/b.jpg,2,1,j,2,9,129,11,j,1,0.883090981681,03,01,60.0191163693,PLT_learning_3,N,2014_Feb_17_1800,P12,
stim_fb/ques.jpg,stim_fb/posf.jpg,stim_fb/negf.jpg,stim_03/d.jpg,stim_03/c.jpg,1,2,f,2,10,130,27,f,1,0.566691304985,03,01,60.0191163693,PLT_learning_3,N,2014_Feb_17_1800,P12,
stim_fb/ques.jpg,stim_fb/posf.jpg,stim_fb/negf.jpg,stim_03/e.jpg,stim_03/f.jpg,2,3,j,2,11,131,56,f,0,0.933040740142,03,01,60.0191163693,PLT_learning_3,N,2014_Feb_17_1800,P12,
stim_fb/ques.jpg,stim_fb/negf.jpg,stim_fb/posf.jpg,stim_03/b.jpg,stim_03/a.jpg,1,1,f,2,12,132,6,f,1,0.849631737988,03,01,60.0191163693,PLT_learning_3,N,2014_Feb_17_1800,P12,
stim_fb/ques.jpg,stim_fb/negf.jpg,stim_fb/posf.jpg,stim_03/a.jpg,stim_03/b.jpg,2,1,j,2,13,133,16,j,1,0.783127026387,03,01,60.0191163693,PLT_learning_3,N,2014_Feb_17_1800,P12,
stim_fb/ques.jpg,stim_fb/posf.jpg,stim_fb/negf.jpg,stim_03/a.jpg,stim_03/b.jpg,2,1,j,2,14,134,18,j,1,0.933087154656,03,01,60.0191163693,PLT_learning_3,N,2014_Feb_17_1800,P12,
stim_fb/ques.jpg,stim_fb/negf.jpg,stim_fb/posf.jpg,stim_03/f.jpg,stim_03/e.jpg,1,3,f,2,15,135,45,j,0,1.08302143059,03,01,60.0191163693,PLT_learning_3,N,2014_Feb_17_1800,P12,
stim_fb/ques.jpg,stim_fb/posf.jpg,stim_fb/negf.jpg,stim_03/b.jpg,stim_03/a.jpg,1,1,f,2,16,136,9,f,1,1.06632946546,03,01,60.0191163693,PLT_learning_3,N,2014_Feb_17_1800,P12,
stim_fb/ques.jpg,stim_fb/posf.jpg,stim_fb/negf.jpg,stim_03/e.jpg,stim_03/f.jpg,2,3,j,2,17,137,58,j,1,1.0330293117,03,01,60.0191163693,PLT_learning_3,N,2014_Feb_17_1800,P12,
stim_fb/ques.jpg,stim_fb/posf.jpg,stim_fb/negf.jpg,stim_03/c.jpg,stim_03/d.jpg,2,2,j,2,18,138,39,j,1,0.849788746744,03,01,60.0191163693,PLT_learning_3,N,2014_Feb_17_1800,P12,
stim_fb/ques.jpg,stim_fb/negf.jpg,stim_fb/posf.jpg,stim_03/e.jpg,stim_03/f.jpg,2,3,j,2,19,139,55,j,1,0.899744914155,03,01,60.0191163693,PLT_learning_3,N,2014_Feb_17_1800,P12,
stim_fb/ques.jpg,stim_fb/negf.jpg,stim_fb/posf.jpg,stim_03/b.jpg,stim_03/a.jpg,1,1,f,2,20,140,1,j,0,1.11635628771,03,01,60.0191163693,PLT_learning_3,N,2014_Feb_17_1800,P12,
stim_fb/ques.jpg,stim_fb/negf.jpg,stim_fb/posf.jpg,stim_03/b.jpg,stim_03/a.jpg,1,1,f,2,21,141,2,f,1,0.949704368748,03,01,60.0191163693,PLT_learning_3,N,2014_Feb_17_1800,P12,
stim_fb/ques.jpg,stim_fb/negf.jpg,stim_fb/posf.jpg,stim_03/e.jpg,stim_03/f.jpg,2,3,j,2,22,142,52,f,0,0.816447062627,03,01,60.0191163693,PLT_learning_3,N,2014_Feb_17_1800,P12,
stim_fb/ques.jpg,stim_fb/negf.jpg,stim_fb/posf.jpg,stim_03/a.jpg,stim_03/b.jpg,2,1,j,2,23,143,15,j,1,0.849792563242,03,01,60.0191163693,PLT_learning_3,N,2014_Feb_17_1800,P12,
stim_fb/ques.jpg,stim_fb/posf.jpg,stim_fb/negf.jpg,stim_03/f.jpg,stim_03/e.jpg,1,3,f,2,24,144,46,j,0,0.949703018387,03,01,60.0191163693,PLT_learning_3,N,2014_Feb_17_1800,P12,
stim_fb/ques.jpg,stim_fb/negf.jpg,stim_fb/posf.jpg,stim_03/f.jpg,stim_03/e.jpg,1,3,f,2,25,145,40,j,0,0.916428413213,03,01,60.0191163693,PLT_learning_3,N,2014_Feb_17_1800,P12,
stim_fb/ques.jpg,stim_fb/posf.jpg,stim_fb/negf.jpg,stim_03/f.jpg,stim_03/e.jpg,1,3,f,2,26,146,47,j,0,1.54953114965,03,01,60.0191163693,PLT_learning_3,N,2014_Feb_17_1800,P12,
stim_fb/ques.jpg,stim_fb/negf.jpg,stim_fb/posf.jpg,stim_03/e.jpg,stim_03/f.jpg,2,3,j,2,27,147,53,j,1,0.983080422401,03,01,60.0191163693,PLT_learning_3,N,2014_Feb_17_1800,P12,
stim_fb/ques.jpg,stim_fb/negf.jpg,stim_fb/posf.jpg,stim_03/d.jpg,stim_03/c.jpg,1,2,f,2,28,148,26,f,1,0.88308370056,03,01,60.0191163693,PLT_learning_3,N,2014_Feb_17_1800,P12,
stim_fb/ques.jpg,stim_fb/negf.jpg,stim_fb/posf.jpg,stim_03/d.jpg,stim_03/c.jpg,1,2,f,2,29,149,21,j,0,0.99977616493,03,01,60.0191163693,PLT_learning_3,N,2014_Feb_17_1800,P12,
stim_fb/ques.jpg,stim_fb/negf.jpg,stim_fb/posf.jpg,stim_03/b.jpg,stim_03/a.jpg,1,1,f,2,30,150,7,j,0,1.18298810465,03,01,60.0191163693,PLT_learning_3,N,2014_Feb_17_1800,P12,
stim_fb/ques.jpg,stim_fb/negf.jpg,stim_fb/posf.jpg,stim_03/f.jpg,stim_03/e.jpg,1,3,f,2,31,151,43,j,0,1.06635697793,03,01,60.0191163693,PLT_learning_3,N,2014_Feb_17_1800,P12,
stim_fb/ques.jpg,stim_fb/posf.jpg,stim_fb/negf.jpg,stim_03/c.jpg,stim_03/d.jpg,2,2,j,2,32,152,37,j,1,0.799771316865,03,01,60.0191163693,PLT_learning_3,N,2014_Feb_17_1800,P12,
stim_fb/ques.jpg,stim_fb/negf.jpg,stim_fb/posf.jpg,stim_03/a.jpg,stim_03/b.jpg,2,1,j,2,33,153,14,j,1,0.633142305914,03,01,60.0191163693,PLT_learning_3,N,2014_Feb_17_1800,P12,
stim_fb/ques.jpg,stim_fb/negf.jpg,stim_fb/posf.jpg,stim_03/b.jpg,stim_03/a.jpg,1,1,f,2,34,154,4,f,1,0.666487812544,03,01,60.0191163693,PLT_learning_3,N,2014_Feb_17_1800,P12,
stim_fb/ques.jpg,stim_fb/posf.jpg,stim_fb/negf.jpg,stim_03/f.jpg,stim_03/e.jpg,1,3,f,2,35,155,49,j,0,0.949723333947,03,01,60.0191163693,PLT_learning_3,N,2014_Feb_17_1800,P12,
stim_fb/ques.jpg,stim_fb/negf.jpg,stim_fb/posf.jpg,stim_03/a.jpg,stim_03/b.jpg,2,1,j,2,36,156,17,f,0,1.18299211964,03,01,60.0191163693,PLT_learning_3,N,2014_Feb_17_1800,P12,
stim_fb/ques.jpg,stim_fb/posf.jpg,stim_fb/negf.jpg,stim_03/e.jpg,stim_03/f.jpg,2,3,j,2,37,157,57,f,0,0.899794781262,03,01,60.0191163693,PLT_learning_3,N,2014_Feb_17_1800,P12,
stim_fb/ques.jpg,stim_fb/negf.jpg,stim_fb/posf.jpg,stim_03/d.jpg,stim_03/c.jpg,1,2,f,2,38,158,25,f,1,0.916413787814,03,01,60.0191163693,PLT_learning_3,N,2014_Feb_17_1800,P12,
stim_fb/ques.jpg,stim_fb/negf.jpg,stim_fb/posf.jpg,stim_03/e.jpg,stim_03/f.jpg,2,3,j,2,39,159,50,f,0,0.899730496273,03,01,60.0191163693,PLT_learning_3,N,2014_Feb_17_1800,P12,
stim_fb/ques.jpg,stim_fb/negf.jpg,stim_fb/posf.jpg,stim_03/c.jpg,stim_03/d.jpg,2,2,j,2,40,160,34,j,1,0.999735359376,03,01,60.0191163693,PLT_learning_3,N,2014_Feb_17_1800,P12,
stim_fb/ques.jpg,stim_fb/negf.jpg,stim_fb/posf.jpg,stim_03/f.jpg,stim_03/e.jpg,1,3,f,2,41,161,42,f,1,0.76643040868,03,01,60.0191163693,PLT_learning_3,N,2014_Feb_17_1800,P12,
stim_fb/ques.jpg,stim_fb/negf.jpg,stim_fb/posf.jpg,stim_03/a.jpg,stim_03/b.jpg,2,1,j,2,42,162,12,f,0,1.06632540235,03,01,60.0191163693,PLT_learning_3,N,2014_Feb_17_1800,P12,
stim_fb/ques.jpg,stim_fb/negf.jpg,stim_fb/posf.jpg,stim_03/a.jpg,stim_03/b.jpg,2,1,j,2,43,163,10,j,1,0.999729521847,03,01,60.0191163693,PLT_learning_3,N,2014_Feb_17_1800,P12,
stim_fb/ques.jpg,stim_fb/negf.jpg,stim_fb/posf.jpg,stim_03/b.jpg,stim_03/a.jpg,1,1,f,2,44,164,0,j,0,1.23295841024,03,01,60.0191163693,PLT_learning_3,N,2014_Feb_17_1800,P12,
stim_fb/ques.jpg,stim_fb/negf.jpg,stim_fb/posf.jpg,stim_03/b.jpg,stim_03/a.jpg,1,1,f,2,45,165,3,f,1,1.63283424623,03,01,60.0191163693,PLT_learning_3,N,2014_Feb_17_1800,P12,
stim_fb/ques.jpg,stim_fb/negf.jpg,stim_fb/posf.jpg,stim_03/c.jpg,stim_03/d.jpg,2,2,j,2,46,166,31,f,0,1.23297832581,03,01,60.0191163693,PLT_learning_3,N,2014_Feb_17_1800,P12,
stim_fb/ques.jpg,stim_fb/negf.jpg,stim_fb/posf.jpg,stim_03/f.jpg,stim_03/e.jpg,1,3,f,2,47,167,44,f,1,1.08301337353,03,01,60.0191163693,PLT_learning_3,N,2014_Feb_17_1800,P12,
stim_fb/ques.jpg,stim_fb/negf.jpg,stim_fb/posf.jpg,stim_03/d.jpg,stim_03/c.jpg,1,2,f,2,48,168,20,j,0,1.29959281963,03,01,60.0191163693,PLT_learning_3,N,2014_Feb_17_1800,P12,
stim_fb/ques.jpg,stim_fb/negf.jpg,stim_fb/posf.jpg,stim_03/c.jpg,stim_03/d.jpg,2,2,j,2,49,169,36,f,0,1.43290705443,03,01,60.0191163693,PLT_learning_3,N,2014_Feb_17_1800,P12,
stim_fb/ques.jpg,stim_fb/posf.jpg,stim_fb/negf.jpg,stim_03/c.jpg,stim_03/d.jpg,2,2,j,2,50,170,38,f,0,1.13297863859,03,01,60.0191163693,PLT_learning_3,N,2014_Feb_17_1800,P12,
stim_fb/ques.jpg,stim_fb/posf.jpg,stim_fb/negf.jpg,stim_03/d.jpg,stim_03/c.jpg,1,2,f,2,51,171,29,j,0,0.933066270681,03,01,60.0191163693,PLT_learning_3,N,2014_Feb_17_1800,P12,
stim_fb/ques.jpg,stim_fb/negf.jpg,stim_fb/posf.jpg,stim_03/f.jpg,stim_03/e.jpg,1,3,f,2,52,172,41,j,0,0.916400536836,03,01,60.0191163693,PLT_learning_3,N,2014_Feb_17_1800,P12,
stim_fb/ques.jpg,stim_fb/negf.jpg,stim_fb/posf.jpg,stim_03/d.jpg,stim_03/c.jpg,1,2,f,2,53,173,23,j,0,0.983057042214,03,01,60.0191163693,PLT_learning_3,N,2014_Feb_17_1800,P12,
stim_fb/ques.jpg,stim_fb/posf.jpg,stim_fb/negf.jpg,stim_03/d.jpg,stim_03/c.jpg,1,2,f,2,54,174,28,j,0,0.983045580689,03,01,60.0191163693,PLT_learning_3,N,2014_Feb_17_1800,P12,
stim_fb/ques.jpg,stim_fb/negf.jpg,stim_fb/posf.jpg,stim_03/e.jpg,stim_03/f.jpg,2,3,j,2,55,175,51,f,0,0.966405759334,03,01,60.0191163693,PLT_learning_3,N,2014_Feb_17_1800,P12,
stim_fb/ques.jpg,stim_fb/posf.jpg,stim_fb/negf.jpg,stim_03/b.jpg,stim_03/a.jpg,1,1,f,2,56,176,8,f,1,1.14967499765,03,01,60.0191163693,PLT_learning_3,N,2014_Feb_17_1800,P12,
stim_fb/ques.jpg,stim_fb/negf.jpg,stim_fb/posf.jpg,stim_03/c.jpg,stim_03/d.jpg,2,2,j,2,57,177,30,j,1,0.633191770018,03,01,60.0191163693,PLT_learning_3,N,2014_Feb_17_1800,P12,
stim_fb/ques.jpg,stim_fb/negf.jpg,stim_fb/posf.jpg,stim_03/d.jpg,stim_03/c.jpg,1,2,f,2,58,178,22,f,1,0.983066025571,03,01,60.0191163693,PLT_learning_3,N,2014_Feb_17_1800,P12,
stim_fb/ques.jpg,stim_fb/posf.jpg,stim_fb/negf.jpg,stim_03/f.jpg,stim_03/e.jpg,1,3,f,2,59,179,48,j,0,0.966421001267,03,01,60.0191163693,PLT_learning_3,N,2014_Feb_17_1800,P12,
stim_fb/ques.jpg,stim_fb/negf.jpg,stim_fb/posf.jpg,stim_03/d.jpg,stim_03/c.jpg,1,2,f,3,0,180,24,f,1,0.633146648722,03,01,60.0191163693,PLT_learning_3,N,2014_Feb_17_1800,P12,
stim_fb/ques.jpg,stim_fb/negf.jpg,stim_fb/posf.jpg,stim_03/a.jpg,stim_03/b.jpg,2,1,j,3,1,181,12,j,1,0.766500973297,03,01,60.0191163693,PLT_learning_3,N,2014_Feb_17_1800,P12,
stim_fb/ques.jpg,stim_fb/negf.jpg,stim_fb/posf.jpg,stim_03/a.jpg,stim_03/b.jpg,2,1,j,3,2,182,14,j,1,0.799793030906,03,01,60.0191163693,PLT_learning_3,N,2014_Feb_17_1800,P12,
stim_fb/ques.jpg,stim_fb/posf.jpg,stim_fb/negf.jpg,stim_03/d.jpg,stim_03/c.jpg,1,2,f,3,3,183,27,f,1,0.59978465506,03,01,60.0191163693,PLT_learning_3,N,2014_Feb_17_1800,P12,
stim_fb/ques.jpg,stim_fb/posf.jpg,stim_fb/negf.jpg,stim_03/d.jpg,stim_03/c.jpg,1,2,f,3,4,184,28,f,1,0.8164543648,03,01,60.0191163693,PLT_learning_3,N,2014_Feb_17_1800,P12,
stim_fb/ques.jpg,stim_fb/posf.jpg,stim_fb/negf.jpg,stim_03/e.jpg,stim_03/f.jpg,2,3,j,3,5,185,56,f,0,0.933015453209,03,01,60.0191163693,PLT_learning_3,N,2014_Feb_17_1800,P12,
stim_fb/ques.jpg,stim_fb/negf.jpg,stim_fb/posf.jpg,stim_03/a.jpg,stim_03/b.jpg,2,1,j,3,6,186,17,f,0,1.34960660444,03,01,60.0191163693,PLT_learning_3,N,2014_Feb_17_1800,P12,
stim_fb/ques.jpg,stim_fb/negf.jpg,stim_fb/posf.jpg,stim_03/e.jpg,stim_03/f.jpg,2,3,j,3,7,187,53,f,0,0.733137445818,03,01,60.0191163693,PLT_learning_3,N,2014_Feb_17_1800,P12,
stim_fb/ques.jpg,stim_fb/negf.jpg,stim_fb/posf.jpg,stim_03/d.jpg,stim_03/c.jpg,1,2,f,3,8,188,26,f,1,0.699818793021,03,01,60.0191163693,PLT_learning_3,N,2014_Feb_17_1800,P12,
stim_fb/ques.jpg,stim_fb/negf.jpg,stim_fb/posf.jpg,stim_03/e.jpg,stim_03/f.jpg,2,3,j,3,9,189,51,f,0,0.699805686402,03,01,60.0191163693,PLT_learning_3,N,2014_Feb_17_1800,P12,
stim_fb/ques.jpg,stim_fb/negf.jpg,stim_fb/posf.jpg,stim_03/a.jpg,stim_03/b.jpg,2,1,j,3,10,190,15,f,0,0.949737421007,03,01,60.0191163693,PLT_learning_3,N,2014_Feb_17_1800,P12,
stim_fb/ques.jpg,stim_fb/posf.jpg,stim_fb/negf.jpg,stim_03/b.jpg,stim_03/a.jpg,1,1,f,3,11,191,9,j,0,1.29964573332,03,01,60.0191163693,PLT_learning_3,N,2014_Feb_17_1800,P12,
stim_fb/ques.jpg,stim_fb/posf.jpg,stim_fb/negf.jpg,stim_03/c.jpg,stim_03/d.jpg,2,2,j,3,12,192,38,j,1,0.949729869212,03,01,60.0191163693,PLT_learning_3,N,2014_Feb_17_1800,P12,
stim_fb/ques.jpg,stim_fb/negf.jpg,stim_fb/posf.jpg,stim_03/e.jpg,stim_03/f.jpg,2,3,j,3,13,193,55,f,0,0.866434697353,03,01,60.0191163693,PLT_learning_3,N,2014_Feb_17_1800,P12,
stim_fb/ques.jpg,stim_fb/negf.jpg,stim_fb/posf.jpg,stim_03/a.jpg,stim_03/b.jpg,2,1,j,3,14,194,10,f,0,0.266595504562,03,01,60.0191163693,PLT_learning_3,N,2014_Feb_17_1800,P12,
stim_fb/ques.jpg,stim_fb/posf.jpg,stim_fb/negf.jpg,stim_03/b.jpg,stim_03/a.jpg,1,1,f,3,15,195,8,f,1,0.633132829329,03,01,60.0191163693,PLT_learning_3,N,2014_Feb_17_1800,P12,
stim_fb/ques.jpg,stim_fb/negf.jpg,stim_fb/posf.jpg,stim_03/b.jpg,stim_03/a.jpg,1,1,f,3,16,196,1,f,1,0.999724171532,03,01,60.0191163693,PLT_learning_3,N,2014_Feb_17_1800,P12,
stim_fb/ques.jpg,stim_fb/negf.jpg,stim_fb/posf.jpg,stim_03/f.jpg,stim_03/e.jpg,1,3,f,3,17,197,45,j,0,0.816313346842,03,01,60.0191163693,PLT_learning_3,N,2014_Feb_17_1800,P12,
stim_fb/ques.jpg,stim_fb/posf.jpg,stim_fb/negf.jpg,stim_03/f.jpg,stim_03/e.jpg,1,3,f,3,18,198,46,j,0,1.06634498408,03,01,60.0191163693,PLT_learning_3,N,2014_Feb_17_1800,P12,
stim_fb/ques.jpg,stim_fb/posf.jpg,stim_fb/negf.jpg,stim_03/f.jpg,stim_03/e.jpg,1,3,f,3,19,199,47,f,1,0.899748616369,03,01,60.0191163693,PLT_learning_3,N,2014_Feb_17_1800,P12,
stim_fb/ques.jpg,stim_fb/negf.jpg,stim_fb/posf.jpg,stim_03/f.jpg,stim_03/e.jpg,1,3,f,3,20,200,43,f,1,0.783085929106,03,01,60.0191163693,PLT_learning_3,N,2014_Feb_17_1800,P12,
stim_fb/ques.jpg,stim_fb/negf.jpg,stim_fb/posf.jpg,stim_03/e.jpg,stim_03/f.jpg,2,3,j,3,21,201,54,j,1,1.16633321278,03,01,60.0191163693,PLT_learning_3,N,2014_Feb_17_1800,P12,
stim_fb/ques.jpg,stim_fb/negf.jpg,stim_fb/posf.jpg,stim_03/b.jpg,stim_03/a.jpg,1,1,f,3,22,202,4,j,0,1.2329745845,03,01,60.0191163693,PLT_learning_3,N,2014_Feb_17_1800,P12,
stim_fb/ques.jpg,stim_fb/negf.jpg,stim_fb/posf.jpg,stim_03/d.jpg,stim_03/c.jpg,1,2,f,3,23,203,23,f,1,0.74975266294,03,01,60.0191163693,PLT_learning_3,N,2014_Feb_17_1800,P12,
stim_fb/ques.jpg,stim_fb/negf.jpg,stim_fb/posf.jpg,stim_03/c.jpg,stim_03/d.jpg,2,2,j,3,24,204,31,j,1,1.24963597253,03,01,60.0191163693,PLT_learning_3,N,2014_Feb_17_1800,P12,
stim_fb/ques.jpg,stim_fb/negf.jpg,stim_fb/posf.jpg,stim_03/f.jpg,stim_03/e.jpg,1,3,f,3,25,205,42,j,0,0.933093464359,03,01,60.0191163693,PLT_learning_3,N,2014_Feb_17_1800,P12,
stim_fb/ques.jpg,stim_fb/posf.jpg,stim_fb/negf.jpg,stim_03/e.jpg,stim_03/f.jpg,2,3,j,3,26,206,59,j,1,0.949713045341,03,01,60.0191163693,PLT_learning_3,N,2014_Feb_17_1800,P12,
stim_fb/ques.jpg,stim_fb/negf.jpg,stim_fb/posf.jpg,stim_03/b.jpg,stim_03/a.jpg,1,1,f,3,27,207,0,j,0,1.34960930215,03,01,60.0191163693,PLT_learning_3,N,2014_Feb_17_1800,P12,
stim_fb/ques.jpg,stim_fb/negf.jpg,stim_fb/posf.jpg,stim_03/c.jpg,stim_03/d.jpg,2,2,j,3,28,208,30,j,1,0.783191891821,03,01,60.0191163693,PLT_learning_3,N,2014_Feb_17_1800,P12,
stim_fb/ques.jpg,stim_fb/posf.jpg,stim_fb/negf.jpg,stim_03/c.jpg,stim_03/d.jpg,2,2,j,3,29,209,37,j,1,0.949734287207,03,01,60.0191163693,PLT_learning_3,N,2014_Feb_17_1800,P12,
stim_fb/ques.jpg,stim_fb/negf.jpg,stim_fb/posf.jpg,stim_03/c.jpg,stim_03/d.jpg,2,2,j,3,30,210,32,j,1,0.983065718808,03,01,60.0191163693,PLT_learning_3,N,2014_Feb_17_1800,P12,
stim_fb/ques.jpg,stim_fb/negf.jpg,stim_fb/posf.jpg,stim_03/f.jpg,stim_03/e.jpg,1,3,f,3,31,211,40,f,1,1.21631966858,03,01,60.0191163693,PLT_learning_3,N,2014_Feb_17_1800,P12,
stim_fb/ques.jpg,stim_fb/negf.jpg,stim_fb/posf.jpg,stim_03/b.jpg,stim_03/a.jpg,1,1,f,3,32,212,6,f,1,0.931882620873,03,01,60.0191163693,PLT_learning_3,N,2014_Feb_17_1800,P12,
stim_fb/ques.jpg,stim_fb/negf.jpg,stim_fb/posf.jpg,stim_03/d.jpg,stim_03/c.jpg,1,2,f,3,33,213,22,f,1,1.13300421123,03,01,60.0191163693,PLT_learning_3,N,2014_Feb_17_1800,P12,
stim_fb/ques.jpg,stim_fb/posf.jpg,stim_fb/negf.jpg,stim_03/f.jpg,stim_03/e.jpg,1,3,f,3,34,214,49,f,1,0.76649350872,03,01,60.0191163693,PLT_learning_3,N,2014_Feb_17_1800,P12,
stim_fb/ques.jpg,stim_fb/posf.jpg,stim_fb/negf.jpg,stim_03/d.jpg,stim_03/c.jpg,1,2,f,3,35,215,29,f,1,0.699810952508,03,01,60.0191163693,PLT_learning_3,N,2014_Feb_17_1800,P12,
stim_fb/ques.jpg,stim_fb/posf.jpg,stim_fb/negf.jpg,stim_03/a.jpg,stim_03/b.jpg,2,1,j,3,36,216,18,j,1,1.11635183363,03,01,60.0191163693,PLT_learning_3,N,2014_Feb_17_1800,P12,
stim_fb/ques.jpg,stim_fb/posf.jpg,stim_fb/negf.jpg,stim_03/e.jpg,stim_03/f.jpg,2,3,j,3,37,217,57,j,1,0.866405205956,03,01,60.0191163693,PLT_learning_3,N,2014_Feb_17_1800,P12,
stim_fb/ques.jpg,stim_fb/negf.jpg,stim_fb/posf.jpg,stim_03/c.jpg,stim_03/d.jpg,2,2,j,3,38,218,33,j,1,0.816494006458,03,01,60.0191163693,PLT_learning_3,N,2014_Feb_17_1800,P12,
stim_fb/ques.jpg,stim_fb/negf.jpg,stim_fb/posf.jpg,stim_03/e.jpg,stim_03/f.jpg,2,3,j,3,39,219,50,f,0,0.933048141562,03,01,60.0191163693,PLT_learning_3,N,2014_Feb_17_1800,P12,
stim_fb/ques.jpg,stim_fb/posf.jpg,stim_fb/negf.jpg,stim_03/e.jpg,stim_03/f.jpg,2,3,j,3,40,220,58,f,0,0.783104945433,03,01,60.0191163693,PLT_learning_3,N,2014_Feb_17_1800,P12,
stim_fb/ques.jpg,stim_fb/negf.jpg,stim_fb/posf.jpg,stim_03/f.jpg,stim_03/e.jpg,1,3,f,3,41,221,41,j,0,1.18303201092,03,01,60.0191163693,PLT_learning_3,N,2014_Feb_17_1800,P12,
stim_fb/ques.jpg,stim_fb/negf.jpg,stim_fb/posf.jpg,stim_03/c.jpg,stim_03/d.jpg,2,2,j,3,42,222,34,j,1,0.816397670703,03,01,60.0191163693,PLT_learning_3,N,2014_Feb_17_1800,P12,
stim_fb/ques.jpg,stim_fb/negf.jpg,stim_fb/posf.jpg,stim_03/d.jpg,stim_03/c.jpg,1,2,f,3,43,223,20,j,0,1.28302553881,03,01,60.0191163693,PLT_learning_3,N,2014_Feb_17_1800,P12,
stim_fb/ques.jpg,stim_fb/negf.jpg,stim_fb/posf.jpg,stim_03/e.jpg,stim_03/f.jpg,2,3,j,3,44,224,52,f,0,1.18300188494,03,01,60.0191163693,PLT_learning_3,N,2014_Feb_17_1800,P12,
stim_fb/ques.jpg,stim_fb/posf.jpg,stim_fb/negf.jpg,stim_03/f.jpg,stim_03/e.jpg,1,3,f,3,45,225,48,j,0,1.36626733683,03,01,60.0191163693,PLT_learning_3,N,2014_Feb_17_1800,P12,
stim_fb/ques.jpg,stim_fb/negf.jpg,stim_fb/posf.jpg,stim_03/d.jpg,stim_03/c.jpg,1,2,f,3,46,226,25,f,1,1.41619315572,03,01,60.0191163693,PLT_learning_3,N,2014_Feb_17_1800,P12,
stim_fb/ques.jpg,stim_fb/negf.jpg,stim_fb/posf.jpg,stim_03/b.jpg,stim_03/a.jpg,1,1,f,3,47,227,3,j,0,1.28296013504,03,01,60.0191163693,PLT_learning_3,N,2014_Feb_17_1800,P12,
stim_fb/ques.jpg,stim_fb/negf.jpg,stim_fb/posf.jpg,stim_03/b.jpg,stim_03/a.jpg,1,1,f,3,48,228,7,j,0,1.38297105221,03,01,60.0191163693,PLT_learning_3,N,2014_Feb_17_1800,P12,
stim_fb/ques.jpg,stim_fb/negf.jpg,stim_fb/posf.jpg,stim_03/c.jpg,stim_03/d.jpg,2,2,j,3,49,229,35,j,1,0.883061899302,03,01,60.0191163693,PLT_learning_3,N,2014_Feb_17_1800,P12,
stim_fb/ques.jpg,stim_fb/negf.jpg,stim_fb/posf.jpg,stim_03/d.jpg,stim_03/c.jpg,1,2,f,3,50,230,21,f,1,1.2496444386,03,01,60.0191163693,PLT_learning_3,N,2014_Feb_17_1800,P12,
stim_fb/ques.jpg,stim_fb/posf.jpg,stim_fb/negf.jpg,stim_03/a.jpg,stim_03/b.jpg,2,1,j,3,51,231,19,j,1,1.39957732808,03,01,60.0191163693,PLT_learning_3,N,2014_Feb_17_1800,P12,
stim_fb/ques.jpg,stim_fb/negf.jpg,stim_fb/posf.jpg,stim_03/a.jpg,stim_03/b.jpg,2,1,j,3,52,232,16,j,1,1.43288501558,03,01,60.0191163693,PLT_learning_3,N,2014_Feb_17_1800,P12,
stim_fb/ques.jpg,stim_fb/negf.jpg,stim_fb/posf.jpg,stim_03/b.jpg,stim_03/a.jpg,1,1,f,3,53,233,2,f,1,1.2829698853,03,01,60.0191163693,PLT_learning_3,N,2014_Feb_17_1800,P12,
stim_fb/ques.jpg,stim_fb/negf.jpg,stim_fb/posf.jpg,stim_03/f.jpg,stim_03/e.jpg,1,3,f,3,54,234,44,j,0,1.1329849122,03,01,60.0191163693,PLT_learning_3,N,2014_Feb_17_1800,P12,
stim_fb/ques.jpg,stim_fb/negf.jpg,stim_fb/posf.jpg,stim_03/a.jpg,stim_03/b.jpg,2,1,j,3,55,235,11,j,1,1.48290586196,03,01,60.0191163693,PLT_learning_3,N,2014_Feb_17_1800,P12,
stim_fb/ques.jpg,stim_fb/negf.jpg,stim_fb/posf.jpg,stim_03/b.jpg,stim_03/a.jpg,1,1,f,3,56,236,5,f,1,0.583146123916,03,01,60.0191163693,PLT_learning_3,N,2014_Feb_17_1800,P12,
stim_fb/ques.jpg,stim_fb/posf.jpg,stim_fb/negf.jpg,stim_03/c.jpg,stim_03/d.jpg,2,2,j,3,57,237,39,j,1,0.983063246655,03,01,60.0191163693,PLT_learning_3,N,2014_Feb_17_1800,P12,
stim_fb/ques.jpg,stim_fb/negf.jpg,stim_fb/posf.jpg,stim_03/a.jpg,stim_03/b.jpg,2,1,j,3,58,238,13,j,1,0.966467424803,03,01,60.0191163693,PLT_learning_3,N,2014_Feb_17_1800,P12,
stim_fb/ques.jpg,stim_fb/negf.jpg,stim_fb/posf.jpg,stim_03/c.jpg,stim_03/d.jpg,2,2,j,3,59,239,36,j,1,0.816445170919,03,01,60.0191163693,PLT_learning_3,N,2014_Feb_17_1800,P12,
stim_fb/ques.jpg,stim_fb/posf.jpg,stim_fb/negf.jpg,stim_03/b.jpg,stim_03/a.jpg,1,1,f,4,0,240,9,f,1,0.933090062894,03,01,60.0191163693,PLT_learning_3,N,2014_Feb_17_1800,P12,
stim_fb/ques.jpg,stim_fb/posf.jpg,stim_fb/negf.jpg,stim_03/a.jpg,stim_03/b.jpg,2,1,j,4,1,241,18,j,1,1.5328846998,03,01,60.0191163693,PLT_learning_3,N,2014_Feb_17_1800,P12,
stim_fb/ques.jpg,stim_fb/negf.jpg,stim_fb/posf.jpg,stim_03/b.jpg,stim_03/a.jpg,1,1,f,4,2,242,4,f,1,1.43291116867,03,01,60.0191163693,PLT_learning_3,N,2014_Feb_17_1800,P12,
stim_fb/ques.jpg,stim_fb/negf.jpg,stim_fb/posf.jpg,stim_03/a.jpg,stim_03/b.jpg,2,1,j,4,3,243,10,j,1,1.3662626602,03,01,60.0191163693,PLT_learning_3,N,2014_Feb_17_1800,P12,
stim_fb/ques.jpg,stim_fb/negf.jpg,stim_fb/posf.jpg,stim_03/f.jpg,stim_03/e.jpg,1,3,f,4,4,244,40,j,0,1.23297246723,03,01,60.0191163693,PLT_learning_3,N,2014_Feb_17_1800,P12,
stim_fb/ques.jpg,stim_fb/negf.jpg,stim_fb/posf.jpg,stim_03/b.jpg,stim_03/a.jpg,1,1,f,4,5,245,2,f,1,1.2996278057,03,01,60.0191163693,PLT_learning_3,N,2014_Feb_17_1800,P12,
stim_fb/ques.jpg,stim_fb/negf.jpg,stim_fb/posf.jpg,stim_03/f.jpg,stim_03/e.jpg,1,3,f,4,6,246,42,j,0,1.18299518426,03,01,60.0191163693,PLT_learning_3,N,2014_Feb_17_1800,P12,
stim_fb/ques.jpg,stim_fb/negf.jpg,stim_fb/posf.jpg,stim_03/a.jpg,stim_03/b.jpg,2,1,j,4,7,247,15,j,1,1.08304416416,03,01,60.0191163693,PLT_learning_3,N,2014_Feb_17_1800,P12,
stim_fb/ques.jpg,stim_fb/negf.jpg,stim_fb/posf.jpg,stim_03/d.jpg,stim_03/c.jpg,1,2,f,4,8,248,20,f,1,0.816450208456,03,01,60.0191163693,PLT_learning_3,N,2014_Feb_17_1800,P12,
stim_fb/ques.jpg,stim_fb/negf.jpg,stim_fb/posf.jpg,stim_03/b.jpg,stim_03/a.jpg,1,1,f,4,9,249,6,f,1,1.16631718289,03,01,60.0191163693,PLT_learning_3,N,2014_Feb_17_1800,P12,
stim_fb/ques.jpg,stim_fb/posf.jpg,stim_fb/negf.jpg,stim_03/f.jpg,stim_03/e.jpg,1,3,f,4,10,250,46,f,1,0.88308773059,03,01,60.0191163693,PLT_learning_3,N,2014_Feb_17_1800,P12,
stim_fb/ques.jpg,stim_fb/negf.jpg,stim_fb/posf.jpg,stim_03/e.jpg,stim_03/f.jpg,2,3,j,4,11,251,54,f,0,1.59947283301,03,01,60.0191163693,PLT_learning_3,N,2014_Feb_17_1800,P12,
stim_fb/ques.jpg,stim_fb/posf.jpg,stim_fb/negf.jpg,stim_03/e.jpg,stim_03/f.jpg,2,3,j,4,12,252,56,f,0,0.799739458578,03,01,60.0191163693,PLT_learning_3,N,2014_Feb_17_1800,P12,
stim_fb/ques.jpg,stim_fb/negf.jpg,stim_fb/posf.jpg,stim_03/a.jpg,stim_03/b.jpg,2,1,j,4,13,253,13,j,1,1.26629537562,03,01,60.0191163693,PLT_learning_3,N,2014_Feb_17_1800,P12,
stim_fb/ques.jpg,stim_fb/negf.jpg,stim_fb/posf.jpg,stim_03/f.jpg,stim_03/e.jpg,1,3,f,4,14,254,43,j,0,1.06638934749,03,01,60.0191163693,PLT_learning_3,N,2014_Feb_17_1800,P12,
stim_fb/ques.jpg,stim_fb/posf.jpg,stim_fb/negf.jpg,stim_03/f.jpg,stim_03/e.jpg,1,3,f,4,15,255,49,j,0,1.13299337526,03,01,60.0191163693,PLT_learning_3,N,2014_Feb_17_1800,P12,
stim_fb/ques.jpg,stim_fb/posf.jpg,stim_fb/negf.jpg,stim_03/e.jpg,stim_03/f.jpg,2,3,j,4,16,256,59,j,1,1.23295976963,03,01,60.0191163693,PLT_learning_3,N,2014_Feb_17_1800,P12,
stim_fb/ques.jpg,stim_fb/negf.jpg,stim_fb/posf.jpg,stim_03/b.jpg,stim_03/a.jpg,1,1,f,4,17,257,0,f,1,1.29965754371,03,01,60.0191163693,PLT_learning_3,N,2014_Feb_17_1800,P12,
stim_fb/ques.jpg,stim_fb/negf.jpg,stim_fb/posf.jpg,stim_03/f.jpg,stim_03/e.jpg,1,3,f,4,18,258,44,j,0,1.11630982508,03,01,60.0191163693,PLT_learning_3,N,2014_Feb_17_1800,P12,
stim_fb/ques.jpg,stim_fb/negf.jpg,stim_fb/posf.jpg,stim_03/b.jpg,stim_03/a.jpg,1,1,f,4,19,259,1,f,1,1.09971256866,03,01,60.0191163693,PLT_learning_3,N,2014_Feb_17_1800,P12,
stim_fb/ques.jpg,stim_fb/negf.jpg,stim_fb/posf.jpg,stim_03/e.jpg,stim_03/f.jpg,2,3,j,4,20,260,51,j,1,1.28298126863,03,01,60.0191163693,PLT_learning_3,N,2014_Feb_17_1800,P12,
stim_fb/ques.jpg,stim_fb/posf.jpg,stim_fb/negf.jpg,stim_03/e.jpg,stim_03/f.jpg,2,3,j,4,21,261,58,f,0,1.21630636346,03,01,60.0191163693,PLT_learning_3,N,2014_Feb_17_1800,P12,
stim_fb/ques.jpg,stim_fb/negf.jpg,stim_fb/posf.jpg,stim_03/d.jpg,stim_03/c.jpg,1,2,f,4,22,262,24,f,1,1.01637479878,03,01,60.0191163693,PLT_learning_3,N,2014_Feb_17_1800,P12,
stim_fb/ques.jpg,stim_fb/negf.jpg,stim_fb/posf.jpg,stim_03/a.jpg,stim_03/b.jpg,2,1,j,4,23,263,17,j,1,1.11631786408,03,01,60.0191163693,PLT_learning_3,N,2014_Feb_17_1800,P12,
stim_fb/ques.jpg,stim_fb/posf.jpg,stim_fb/negf.jpg,stim_03/d.jpg,stim_03/c.jpg,1,2,f,4,24,264,28,j,0,1.11635380353,03,01,60.0191163693,PLT_learning_3,N,2014_Feb_17_1800,P12,
stim_fb/ques.jpg,stim_fb/negf.jpg,stim_fb/posf.jpg,stim_03/d.jpg,stim_03/c.jpg,1,2,f,4,25,265,26,f,1,1.0163636771,03,01,60.0191163693,PLT_learning_3,N,2014_Feb_17_1800,P12,
stim_fb/ques.jpg,stim_fb/posf.jpg,stim_fb/negf.jpg,stim_03/f.jpg,stim_03/e.jpg,1,3,f,4,26,266,48,f,1,1.08302914779,03,01,60.0191163693,PLT_learning_3,N,2014_Feb_17_1800,P12,
stim_fb/ques.jpg,stim_fb/negf.jpg,stim_fb/posf.jpg,stim_03/c.jpg,stim_03/d.jpg,2,2,j,4,27,267,34,j,1,0.899739208956,03,01,60.0191163693,PLT_learning_3,N,2014_Feb_17_1800,P12,
stim_fb/ques.jpg,stim_fb/negf.jpg,stim_fb/posf.jpg,stim_03/e.jpg,stim_03/f.jpg,2,3,j,4,28,268,52,j,1,0.999733485713,03,01,60.0191163693,PLT_learning_3,N,2014_Feb_17_1800,P12,
stim_fb/ques.jpg,stim_fb/negf.jpg,stim_fb/posf.jpg,stim_03/a.jpg,stim_03/b.jpg,2,1,j,4,29,269,16,j,1,0.916401027056,03,01,60.0191163693,PLT_learning_3,N,2014_Feb_17_1800,P12,
stim_fb/ques.jpg,stim_fb/posf.jpg,stim_fb/negf.jpg,stim_03/d.jpg,stim_03/c.jpg,1,2,f,4,30,270,29,j,0,1.18295295617,03,01,60.0191163693,PLT_learning_3,N,2014_Feb_17_1800,P12,
stim_fb/ques.jpg,stim_fb/negf.jpg,stim_fb/posf.jpg,stim_03/c.jpg,stim_03/d.jpg,2,2,j,4,31,271,30,j,1,0.983037565742,03,01,60.0191163693,PLT_learning_3,N,2014_Feb_17_1800,P12,
stim_fb/ques.jpg,stim_fb/negf.jpg,stim_fb/posf.jpg,stim_03/a.jpg,stim_03/b.jpg,2,1,j,4,32,272,14,j,1,1.68284367018,03,01,60.0191163693,PLT_learning_3,N,2014_Feb_17_1800,P12,
stim_fb/ques.jpg,stim_fb/negf.jpg,stim_fb/posf.jpg,stim_03/e.jpg,stim_03/f.jpg,2,3,j,4,33,273,53,j,1,1.1330287072,03,01,60.0191163693,PLT_learning_3,N,2014_Feb_17_1800,P12,
stim_fb/ques.jpg,stim_fb/posf.jpg,stim_fb/negf.jpg,stim_03/c.jpg,stim_03/d.jpg,2,2,j,4,34,274,39,j,1,1.33298072879,03,01,60.0191163693,PLT_learning_3,N,2014_Feb_17_1800,P12,
stim_fb/ques.jpg,stim_fb/negf.jpg,stim_fb/posf.jpg,stim_03/d.jpg,stim_03/c.jpg,1,2,f,4,35,275,25,f,1,0.749795763206,03,01,60.0191163693,PLT_learning_3,N,2014_Feb_17_1800,P12,
stim_fb/ques.jpg,stim_fb/negf.jpg,stim_fb/posf.jpg,stim_03/d.jpg,stim_03/c.jpg,1,2,f,4,36,276,21,j,0,0.966390893336,03,01,60.0191163693,PLT_learning_3,N,2014_Feb_17_1800,P12,
stim_fb/ques.jpg,stim_fb/negf.jpg,stim_fb/posf.jpg,stim_03/c.jpg,stim_03/d.jpg,2,2,j,4,37,277,35,j,1,0.766427741041,03,01,60.0191163693,PLT_learning_3,N,2014_Feb_17_1800,P12,
stim_fb/ques.jpg,stim_fb/negf.jpg,stim_fb/posf.jpg,stim_03/f.jpg,stim_03/e.jpg,1,3,f,4,38,278,45,f,1,1.11633397518,03,01,60.0191163693,PLT_learning_3,N,2014_Feb_17_1800,P12,
stim_fb/ques.jpg,stim_fb/negf.jpg,stim_fb/posf.jpg,stim_03/c.jpg,stim_03/d.jpg,2,2,j,4,39,279,36,j,1,1.34959096852,03,01,60.0191163693,PLT_learning_3,N,2014_Feb_17_1800,P12,
stim_fb/ques.jpg,stim_fb/posf.jpg,stim_fb/negf.jpg,stim_03/d.jpg,stim_03/c.jpg,1,2,f,4,40,280,27,j,0,1.33289817634,03,01,60.0191163693,PLT_learning_3,N,2014_Feb_17_1800,P12,
stim_fb/ques.jpg,stim_fb/posf.jpg,stim_fb/negf.jpg,stim_03/f.jpg,stim_03/e.jpg,1,3,f,4,41,281,47,f,1,1.26624326793,03,01,60.0191163693,PLT_learning_3,N,2014_Feb_17_1800,P12,
stim_fb/ques.jpg,stim_fb/negf.jpg,stim_fb/posf.jpg,stim_03/d.jpg,stim_03/c.jpg,1,2,f,4,42,282,23,f,1,0.716472560084,03,01,60.0191163693,PLT_learning_3,N,2014_Feb_17_1800,P12,
stim_fb/ques.jpg,stim_fb/negf.jpg,stim_fb/posf.jpg,stim_03/b.jpg,stim_03/a.jpg,1,1,f,4,43,283,3,f,1,0.94871754078,03,01,60.0191163693,PLT_learning_3,N,2014_Feb_17_1800,P12,
stim_fb/ques.jpg,stim_fb/negf.jpg,stim_fb/posf.jpg,stim_03/f.jpg,stim_03/e.jpg,1,3,f,4,44,284,41,f,1,1.31627598786,03,01,60.0191163693,PLT_learning_3,N,2014_Feb_17_1800,P12,
stim_fb/ques.jpg,stim_fb/negf.jpg,stim_fb/posf.jpg,stim_03/c.jpg,stim_03/d.jpg,2,2,j,4,45,285,32,f,0,0.883089234332,03,01,60.0191163693,PLT_learning_3,N,2014_Feb_17_1800,P12,
stim_fb/ques.jpg,stim_fb/negf.jpg,stim_fb/posf.jpg,stim_03/e.jpg,stim_03/f.jpg,2,3,j,4,46,286,50,j,1,0.949735463134,03,01,60.0191163693,PLT_learning_3,N,2014_Feb_17_1800,P12,
stim_fb/ques.jpg,stim_fb/negf.jpg,stim_fb/posf.jpg,stim_03/b.jpg,stim_03/a.jpg,1,1,f,4,47,287,7,f,1,0.98305586328,03,01,60.0191163693,PLT_learning_3,N,2014_Feb_17_1800,P12,
stim_fb/ques.jpg,stim_fb/negf.jpg,stim_fb/posf.jpg,stim_03/c.jpg,stim_03/d.jpg,2,2,j,4,48,288,31,j,1,0.966392818126,03,01,60.0191163693,PLT_learning_3,N,2014_Feb_17_1800,P12,
stim_fb/ques.jpg,stim_fb/posf.jpg,stim_fb/negf.jpg,stim_03/b.jpg,stim_03/a.jpg,1,1,f,4,49,289,8,f,1,1.01638385732,03,01,60.0191163693,PLT_learning_3,N,2014_Feb_17_1800,P12,
stim_fb/ques.jpg,stim_fb/negf.jpg,stim_fb/posf.jpg,stim_03/d.jpg,stim_03/c.jpg,1,2,f,4,50,290,22,f,1,0.883082539671,03,01,60.0191163693,PLT_learning_3,N,2014_Feb_17_1800,P12,
stim_fb/ques.jpg,stim_fb/negf.jpg,stim_fb/posf.jpg,stim_03/a.jpg,stim_03/b.jpg,2,1,j,4,51,291,12,j,1,0.849824328297,03,01,60.0191163693,PLT_learning_3,N,2014_Feb_17_1800,P12,
stim_fb/ques.jpg,stim_fb/negf.jpg,stim_fb/posf.jpg,stim_03/e.jpg,stim_03/f.jpg,2,3,j,4,52,292,55,j,1,1.0830274245,03,01,60.0191163693,PLT_learning_3,N,2014_Feb_17_1800,P12,
stim_fb/ques.jpg,stim_fb/posf.jpg,stim_fb/negf.jpg,stim_03/a.jpg,stim_03/b.jpg,2,1,j,4,53,293,19,f,0,0.866465328587,03,01,60.0191163693,PLT_learning_3,N,2014_Feb_17_1800,P12,
stim_fb/ques.jpg,stim_fb/negf.jpg,stim_fb/posf.jpg,stim_03/b.jpg,stim_03/a.jpg,1,1,f,4,54,294,5,j,0,1.29961571862,03,01,60.0191163693,PLT_learning_3,N,2014_Feb_17_1800,P12,
stim_fb/ques.jpg,stim_fb/negf.jpg,stim_fb/posf.jpg,stim_03/c.jpg,stim_03/d.jpg,2,2,j,4,55,295,33,j,1,1.01633763529,03,01,60.0191163693,PLT_learning_3,N,2014_Feb_17_1800,P12,
stim_fb/ques.jpg,stim_fb/posf.jpg,stim_fb/negf.jpg,stim_03/c.jpg,stim_03/d.jpg,2,2,j,4,56,296,37,f,0,0.999724421153,03,01,60.0191163693,PLT_learning_3,N,2014_Feb_17_1800,P12,
stim_fb/ques.jpg,stim_fb/posf.jpg,stim_fb/negf.jpg,stim_03/c.jpg,stim_03/d.jpg,2,2,j,4,57,297,38,j,1,1.49957103942,03,01,60.0191163693,PLT_learning_3,N,2014_Feb_17_1800,P12,
stim_fb/ques.jpg,stim_fb/posf.jpg,stim_fb/negf.jpg,stim_03/e.jpg,stim_03/f.jpg,2,3,j,4,58,298,57,j,1,1.1496693105,03,01,60.0191163693,PLT_learning_3,N,2014_Feb_17_1800,P12,
stim_fb/ques.jpg,stim_fb/negf.jpg,stim_fb/posf.jpg,stim_03/a.jpg,stim_03/b.jpg,2,1,j,4,59,299,11,j,1,1.16631099649,03,01,60.0191163693,PLT_learning_3,N,2014_Feb_17_1800,P12,
stim_fb/ques.jpg,stim_fb/negf.jpg,stim_fb/posf.jpg,stim_03/b.jpg,stim_03/a.jpg,1,1,f,5,0,300,0,f,1,0.94965823393,03,01,60.0191163693,PLT_learning_3,N,2014_Feb_17_1800,P12,
stim_fb/ques.jpg,stim_fb/negf.jpg,stim_fb/posf.jpg,stim_03/d.jpg,stim_03/c.jpg,1,2,f,5,1,301,26,f,1,0.749809173581,03,01,60.0191163693,PLT_learning_3,N,2014_Feb_17_1800,P12,
stim_fb/ques.jpg,stim_fb/posf.jpg,stim_fb/negf.jpg,stim_03/d.jpg,stim_03/c.jpg,1,2,f,5,2,302,27,j,0,0.866435070281,03,01,60.0191163693,PLT_learning_3,N,2014_Feb_17_1800,P12,
stim_fb/ques.jpg,stim_fb/posf.jpg,stim_fb/negf.jpg,stim_03/d.jpg,stim_03/c.jpg,1,2,f,5,3,303,28,f,1,1.09970198832,03,01,60.0191163693,PLT_learning_3,N,2014_Feb_17_1800,P12,
stim_fb/ques.jpg,stim_fb/negf.jpg,stim_fb/posf.jpg,stim_03/a.jpg,stim_03/b.jpg,2,1,j,5,4,304,13,j,1,0.850082926884,03,01,60.0191163693,PLT_learning_3,N,2014_Feb_17_1800,P12,
stim_fb/ques.jpg,stim_fb/negf.jpg,stim_fb/posf.jpg,stim_03/f.jpg,stim_03/e.jpg,1,3,f,5,5,305,42,j,0,1.19961452766,03,01,60.0191163693,PLT_learning_3,N,2014_Feb_17_1800,P12,
stim_fb/ques.jpg,stim_fb/posf.jpg,stim_fb/negf.jpg,stim_03/a.jpg,stim_03/b.jpg,2,1,j,5,6,306,18,j,1,0.799769013131,03,01,60.0191163693,PLT_learning_3,N,2014_Feb_17_1800,P12,
stim_fb/ques.jpg,stim_fb/negf.jpg,stim_fb/posf.jpg,stim_03/a.jpg,stim_03/b.jpg,2,1,j,5,7,307,16,j,1,0.899757711003,03,01,60.0191163693,PLT_learning_3,N,2014_Feb_17_1800,P12,
stim_fb/ques.jpg,stim_fb/posf.jpg,stim_fb/negf.jpg,stim_03/e.jpg,stim_03/f.jpg,2,3,j,5,8,308,56,j,1,0.966378030323,03,01,60.0191163693,PLT_learning_3,N,2014_Feb_17_1800,P12,
stim_fb/ques.jpg,stim_fb/negf.jpg,stim_fb/posf.jpg,stim_03/f.jpg,stim_03/e.jpg,1,3,f,5,9,309,41,f,1,1.03305812641,03,01,60.0191163693,PLT_learning_3,N,2014_Feb_17_1800,P12,
stim_fb/ques.jpg,stim_fb/negf.jpg,stim_fb/posf.jpg,stim_03/b.jpg,stim_03/a.jpg,1,1,f,5,10,310,1,f,1,0.86642686887,03,01,60.0191163693,PLT_learning_3,N,2014_Feb_17_1800,P12,
stim_fb/ques.jpg,stim_fb/negf.jpg,stim_fb/posf.jpg,stim_03/c.jpg,stim_03/d.jpg,2,2,j,5,11,311,30,j,1,0.883137005222,03,01,60.0191163693,PLT_learning_3,N,2014_Feb_17_1800,P12,
stim_fb/ques.jpg,stim_fb/negf.jpg,stim_fb/posf.jpg,stim_03/b.jpg,stim_03/a.jpg,1,1,f,5,12,312,7,f,1,0.99971607839,03,01,60.0191163693,PLT_learning_3,N,2014_Feb_17_1800,P12,
stim_fb/ques.jpg,stim_fb/negf.jpg,stim_fb/posf.jpg,stim_03/a.jpg,stim_03/b.jpg,2,1,j,5,13,313,10,j,1,1.382925564,03,01,60.0191163693,PLT_learning_3,N,2014_Feb_17_1800,P12,
stim_fb/ques.jpg,stim_fb/negf.jpg,stim_fb/posf.jpg,stim_03/a.jpg,stim_03/b.jpg,2,1,j,5,14,314,14,f,0,1.04971329797,03,01,60.0191163693,PLT_learning_3,N,2014_Feb_17_1800,P12,
stim_fb/ques.jpg,stim_fb/negf.jpg,stim_fb/posf.jpg,stim_03/d.jpg,stim_03/c.jpg,1,2,f,5,15,315,24,f,1,0.783129053432,03,01,60.0191163693,PLT_learning_3,N,2014_Feb_17_1800,P12,
stim_fb/ques.jpg,stim_fb/negf.jpg,stim_fb/posf.jpg,stim_03/e.jpg,stim_03/f.jpg,2,3,j,5,16,316,55,j,1,0.983079081063,03,01,60.0191163693,PLT_learning_3,N,2014_Feb_17_1800,P12,
stim_fb/ques.jpg,stim_fb/posf.jpg,stim_fb/negf.jpg,stim_03/e.jpg,stim_03/f.jpg,2,3,j,5,17,317,57,f,0,1.46611765732,03,01,60.0191163693,PLT_learning_3,N,2014_Feb_17_1800,P12,
stim_fb/ques.jpg,stim_fb/negf.jpg,stim_fb/posf.jpg,stim_03/d.jpg,stim_03/c.jpg,1,2,f,5,18,318,25,f,1,0.833065963918,03,01,60.0191163693,PLT_learning_3,N,2014_Feb_17_1800,P12,
stim_fb/ques.jpg,stim_fb/negf.jpg,stim_fb/posf.jpg,stim_03/c.jpg,stim_03/d.jpg,2,2,j,5,19,319,34,j,1,1.39957173716,03,01,60.0191163693,PLT_learning_3,N,2014_Feb_17_1800,P12,
stim_fb/ques.jpg,stim_fb/negf.jpg,stim_fb/posf.jpg,stim_03/a.jpg,stim_03/b.jpg,2,1,j,5,20,320,11,j,1,1.09972226178,03,01,60.0191163693,PLT_learning_3,N,2014_Feb_17_1800,P12,
stim_fb/ques.jpg,stim_fb/negf.jpg,stim_fb/posf.jpg,stim_03/c.jpg,stim_03/d.jpg,2,2,j,5,21,321,31,f,0,1.33288552986,03,01,60.0191163693,PLT_learning_3,N,2014_Feb_17_1800,P12,
stim_fb/ques.jpg,stim_fb/negf.jpg,stim_fb/posf.jpg,stim_03/a.jpg,stim_03/b.jpg,2,1,j,5,22,322,15,j,1,0.849778626557,03,01,60.0191163693,PLT_learning_3,N,2014_Feb_17_1800,P12,
stim_fb/ques.jpg,stim_fb/posf.jpg,stim_fb/negf.jpg,stim_03/f.jpg,stim_03/e.jpg,1,3,f,5,23,323,46,f,1,1.2496386131,03,01,60.0191163693,PLT_learning_3,N,2014_Feb_17_1800,P12,
stim_fb/ques.jpg,stim_fb/posf.jpg,stim_fb/negf.jpg,stim_03/d.jpg,stim_03/c.jpg,1,2,f,5,24,324,29,f,1,1.13300192253,03,01,60.0191163693,PLT_learning_3,N,2014_Feb_17_1800,P12,
stim_fb/ques.jpg,stim_fb/negf.jpg,stim_fb/posf.jpg,stim_03/b.jpg,stim_03/a.jpg,1,1,f,5,25,325,5,f,1,0.899772333395,03,01,60.0191163693,PLT_learning_3,N,2014_Feb_17_1800,P12,
stim_fb/ques.jpg,stim_fb/negf.jpg,stim_fb/posf.jpg,stim_03/c.jpg,stim_03/d.jpg,2,2,j,5,26,326,33,j,1,0.933117349804,03,01,60.0191163693,PLT_learning_3,N,2014_Feb_17_1800,P12,
stim_fb/ques.jpg,stim_fb/negf.jpg,stim_fb/posf.jpg,stim_03/a.jpg,stim_03/b.jpg,2,1,j,5,27,327,12,f,0,1.44958632497,03,01,60.0191163693,PLT_learning_3,N,2014_Feb_17_1800,P12,
stim_fb/ques.jpg,stim_fb/negf.jpg,stim_fb/posf.jpg,stim_03/f.jpg,stim_03/e.jpg,1,3,f,5,28,328,40,f,1,1.39943295376,03,01,60.0191163693,PLT_learning_3,N,2014_Feb_17_1800,P12,
stim_fb/ques.jpg,stim_fb/negf.jpg,stim_fb/posf.jpg,stim_03/e.jpg,stim_03/f.jpg,2,3,j,5,29,329,51,f,0,1.53285851363,03,01,60.0191163693,PLT_learning_3,N,2014_Feb_17_1800,P12,
stim_fb/ques.jpg,stim_fb/negf.jpg,stim_fb/posf.jpg,stim_03/a.jpg,stim_03/b.jpg,2,1,j,5,30,330,17,j,1,0.89976026135,03,01,60.0191163693,PLT_learning_3,N,2014_Feb_17_1800,P12,
stim_fb/ques.jpg,stim_fb/negf.jpg,stim_fb/posf.jpg,stim_03/c.jpg,stim_03/d.jpg,2,2,j,5,31,331,35,j,1,0.94972630835,03,01,60.0191163693,PLT_learning_3,N,2014_Feb_17_1800,P12,
stim_fb/ques.jpg,stim_fb/negf.jpg,stim_fb/posf.jpg,stim_03/f.jpg,stim_03/e.jpg,1,3,f,5,32,332,44,f,1,1.33292171592,03,01,60.0191163693,PLT_learning_3,N,2014_Feb_17_1800,P12,
stim_fb/ques.jpg,stim_fb/posf.jpg,stim_fb/negf.jpg,stim_03/f.jpg,stim_03/e.jpg,1,3,f,5,33,333,49,f,1,1.1663321361,03,01,60.0191163693,PLT_learning_3,N,2014_Feb_17_1800,P12,
stim_fb/ques.jpg,stim_fb/negf.jpg,stim_fb/posf.jpg,stim_03/d.jpg,stim_03/c.jpg,1,2,f,5,34,334,23,f,1,0.733082441927,03,01,60.0191163693,PLT_learning_3,N,2014_Feb_17_1800,P12,
stim_fb/ques.jpg,stim_fb/negf.jpg,stim_fb/posf.jpg,stim_03/e.jpg,stim_03/f.jpg,2,3,j,5,35,335,50,j,1,1.21630917245,03,01,60.0191163693,PLT_learning_3,N,2014_Feb_17_1800,P12,
stim_fb/ques.jpg,stim_fb/posf.jpg,stim_fb/negf.jpg,stim_03/f.jpg,stim_03/e.jpg,1,3,f,5,36,336,47,j,0,1.36628495167,03,01,60.0191163693,PLT_learning_3,N,2014_Feb_17_1800,P12,
stim_fb/ques.jpg,stim_fb/negf.jpg,stim_fb/posf.jpg,stim_03/b.jpg,stim_03/a.jpg,1,1,f,5,37,337,6,f,1,1.13300843675,03,01,60.0191163693,PLT_learning_3,N,2014_Feb_17_1800,P12,
stim_fb/ques.jpg,stim_fb/negf.jpg,stim_fb/posf.jpg,stim_03/e.jpg,stim_03/f.jpg,2,3,j,5,38,338,54,f,0,1.38293331729,03,01,60.0191163693,PLT_learning_3,N,2014_Feb_17_1800,P12,
stim_fb/ques.jpg,stim_fb/posf.jpg,stim_fb/negf.jpg,stim_03/c.jpg,stim_03/d.jpg,2,2,j,5,39,339,37,j,1,0.766510031842,03,01,60.0191163693,PLT_learning_3,N,2014_Feb_17_1800,P12,
stim_fb/ques.jpg,stim_fb/negf.jpg,stim_fb/posf.jpg,stim_03/d.jpg,stim_03/c.jpg,1,2,f,5,40,340,21,f,1,0.666490792961,03,01,60.0191163693,PLT_learning_3,N,2014_Feb_17_1800,P12,
stim_fb/ques.jpg,stim_fb/negf.jpg,stim_fb/posf.jpg,stim_03/e.jpg,stim_03/f.jpg,2,3,j,5,41,341,53,j,1,1.19964435288,03,01,60.0191163693,PLT_learning_3,N,2014_Feb_17_1800,P12,
stim_fb/ques.jpg,stim_fb/negf.jpg,stim_fb/posf.jpg,stim_03/c.jpg,stim_03/d.jpg,2,2,j,5,42,342,36,j,1,1.016388549,03,01,60.0191163693,PLT_learning_3,N,2014_Feb_17_1800,P12,
stim_fb/ques.jpg,stim_fb/posf.jpg,stim_fb/negf.jpg,stim_03/e.jpg,stim_03/f.jpg,2,3,j,5,43,343,58,f,0,1.11634110593,03,01,60.0191163693,PLT_learning_3,N,2014_Feb_17_1800,P12,
stim_fb/ques.jpg,stim_fb/posf.jpg,stim_fb/negf.jpg,stim_03/c.jpg,stim_03/d.jpg,2,2,j,5,44,344,38,j,1,1.5328819269,03,01,60.0191163693,PLT_learning_3,N,2014_Feb_17_1800,P12,
stim_fb/ques.jpg,stim_fb/negf.jpg,stim_fb/posf.jpg,stim_03/f.jpg,stim_03/e.jpg,1,3,f,5,45,345,43,f,1,1.14961332917,03,01,60.0191163693,PLT_learning_3,N,2014_Feb_17_1800,P12,
stim_fb/ques.jpg,stim_fb/posf.jpg,stim_fb/negf.jpg,stim_03/b.jpg,stim_03/a.jpg,1,1,f,5,46,346,8,f,1,0.999689600493,03,01,60.0191163693,PLT_learning_3,N,2014_Feb_17_1800,P12,
stim_fb/ques.jpg,stim_fb/negf.jpg,stim_fb/posf.jpg,stim_03/b.jpg,stim_03/a.jpg,1,1,f,5,47,347,4,f,1,0.899752014827,03,01,60.0191163693,PLT_learning_3,N,2014_Feb_17_1800,P12,
stim_fb/ques.jpg,stim_fb/negf.jpg,stim_fb/posf.jpg,stim_03/b.jpg,stim_03/a.jpg,1,1,f,5,48,348,3,j,0,1.14966797217,03,01,60.0191163693,PLT_learning_3,N,2014_Feb_17_1800,P12,
stim_fb/ques.jpg,stim_fb/posf.jpg,stim_fb/negf.jpg,stim_03/f.jpg,stim_03/e.jpg,1,3,f,5,49,349,48,f,1,1.08298248366,03,01,60.0191163693,PLT_learning_3,N,2014_Feb_17_1800,P12,
stim_fb/ques.jpg,stim_fb/negf.jpg,stim_fb/posf.jpg,stim_03/f.jpg,stim_03/e.jpg,1,3,f,5,50,350,45,f,1,0.866469590193,03,01,60.0191163693,PLT_learning_3,N,2014_Feb_17_1800,P12,
stim_fb/ques.jpg,stim_fb/negf.jpg,stim_fb/posf.jpg,stim_03/d.jpg,stim_03/c.jpg,1,2,f,5,51,351,22,f,1,0.79976237862,03,01,60.0191163693,PLT_learning_3,N,2014_Feb_17_1800,P12,
stim_fb/ques.jpg,stim_fb/negf.jpg,stim_fb/posf.jpg,stim_03/c.jpg,stim_03/d.jpg,2,2,j,5,52,352,32,j,1,0.683170956719,03,01,60.0191163693,PLT_learning_3,N,2014_Feb_17_1800,P12,
stim_fb/ques.jpg,stim_fb/negf.jpg,stim_fb/posf.jpg,stim_03/b.jpg,stim_03/a.jpg,1,1,f,5,53,353,2,f,1,0.98305940309,03,01,60.0191163693,PLT_learning_3,N,2014_Feb_17_1800,P12,
stim_fb/ques.jpg,stim_fb/posf.jpg,stim_fb/negf.jpg,stim_03/e.jpg,stim_03/f.jpg,2,3,j,5,54,354,59,j,1,0.916426070382,03,01,60.0191163693,PLT_learning_3,N,2014_Feb_17_1800,P12,
stim_fb/ques.jpg,stim_fb/posf.jpg,stim_fb/negf.jpg,stim_03/a.jpg,stim_03/b.jpg,2,1,j,5,55,355,19,j,1,0.783111817536,03,01,60.0191163693,PLT_learning_3,N,2014_Feb_17_1800,P12,
stim_fb/ques.jpg,stim_fb/negf.jpg,stim_fb/posf.jpg,stim_03/e.jpg,stim_03/f.jpg,2,3,j,5,56,356,52,j,1,0.84977460555,03,01,60.0191163693,PLT_learning_3,N,2014_Feb_17_1800,P12,
stim_fb/ques.jpg,stim_fb/negf.jpg,stim_fb/posf.jpg,stim_03/d.jpg,stim_03/c.jpg,1,2,f,5,57,357,20,f,1,0.767454030218,03,01,60.0191163693,PLT_learning_3,N,2014_Feb_17_1800,P12,
stim_fb/ques.jpg,stim_fb/posf.jpg,stim_fb/negf.jpg,stim_03/c.jpg,stim_03/d.jpg,2,2,j,5,58,358,39,f,0,1.08305937903,03,01,60.0191163693,PLT_learning_3,N,2014_Feb_17_1800,P12,
stim_fb/ques.jpg,stim_fb/posf.jpg,stim_fb/negf.jpg,stim_03/b.jpg,stim_03/a.jpg,1,1,f,5,59,359,9,None,0,,03,01,60.0191163693,PLT_learning_3,N,2014_Feb_17_1800,P12,
