Fb3,Fb2,Fb1,Symbol2,Symbol1,PosCond,Pair,Correct,trials.thisRepN,trials.thisTrialN,trials.thisN,trials.thisIndex,Response.keys,Response.corr,Response.rt,Version,Session Number,frameRate,expName,StimCondition,date,Participant,
stim_fb/ques.jpg,stim_fb/posf.jpg,stim_fb/negf.jpg,stim_01/d.jpg,stim_01/c.jpg,1,2,f,0,0,0,27,f,1,1.53289083206,01,01,60.0230189743,PLT_learning_01,N,2014_Feb_18_1511,P13,
stim_fb/ques.jpg,stim_fb/posf.jpg,stim_fb/negf.jpg,stim_01/a.jpg,stim_01/b.jpg,2,1,j,0,1,1,19,f,0,1.34959417149,01,01,60.0230189743,PLT_learning_01,N,2014_Feb_18_1511,P13,
stim_fb/ques.jpg,stim_fb/negf.jpg,stim_fb/posf.jpg,stim_01/b.jpg,stim_01/a.jpg,1,1,f,0,2,2,2,f,1,1.11631119348,01,01,60.0230189743,PLT_learning_01,N,2014_Feb_18_1511,P13,
stim_fb/ques.jpg,stim_fb/negf.jpg,stim_fb/posf.jpg,stim_01/b.jpg,stim_01/a.jpg,1,1,f,0,3,3,4,f,1,0.733140934501,01,01,60.0230189743,PLT_learning_01,N,2014_Feb_18_1511,P13,
stim_fb/ques.jpg,stim_fb/negf.jpg,stim_fb/posf.jpg,stim_01/a.jpg,stim_01/b.jpg,2,1,j,0,4,4,15,j,1,1.08303355376,01,01,60.0230189743,PLT_learning_01,N,2014_Feb_18_1511,P13,
stim_fb/ques.jpg,stim_fb/negf.jpg,stim_fb/posf.jpg,stim_01/f.jpg,stim_01/e.jpg,1,3,f,0,5,5,41,f,1,1.28296682067,01,01,60.0230189743,PLT_learning_01,N,2014_Feb_18_1511,P13,
stim_fb/ques.jpg,stim_fb/posf.jpg,stim_fb/negf.jpg,stim_01/b.jpg,stim_01/a.jpg,1,1,f,0,6,6,8,f,1,0.849785925723,01,01,60.0230189743,PLT_learning_01,N,2014_Feb_18_1511,P13,
stim_fb/ques.jpg,stim_fb/negf.jpg,stim_fb/posf.jpg,stim_01/a.jpg,stim_01/b.jpg,2,1,j,0,7,7,16,j,1,0.699849352075,01,01,60.0230189743,PLT_learning_01,N,2014_Feb_18_1511,P13,
stim_fb/ques.jpg,stim_fb/negf.jpg,stim_fb/posf.jpg,stim_01/e.jpg,stim_01/f.jpg,2,3,j,0,8,8,51,j,1,1.43301163671,01,01,60.0230189743,PLT_learning_01,N,2014_Feb_18_1511,P13,
stim_fb/ques.jpg,stim_fb/posf.jpg,stim_fb/negf.jpg,stim_01/b.jpg,stim_01/a.jpg,1,1,f,0,9,9,9,f,1,0.86642886584,01,01,60.0230189743,PLT_learning_01,N,2014_Feb_18_1511,P13,
stim_fb/ques.jpg,stim_fb/posf.jpg,stim_fb/negf.jpg,stim_01/e.jpg,stim_01/f.jpg,2,3,j,0,10,10,58,j,1,1.33302937185,01,01,60.0230189743,PLT_learning_01,N,2014_Feb_18_1511,P13,
stim_fb/ques.jpg,stim_fb/negf.jpg,stim_fb/posf.jpg,stim_01/d.jpg,stim_01/c.jpg,1,2,f,0,11,11,22,f,1,1.59953488645,01,01,60.0230189743,PLT_learning_01,N,2014_Feb_18_1511,P13,
stim_fb/ques.jpg,stim_fb/negf.jpg,stim_fb/posf.jpg,stim_01/c.jpg,stim_01/d.jpg,2,2,j,0,12,12,31,j,1,1.56620208043,01,01,60.0230189743,PLT_learning_01,N,2014_Feb_18_1511,P13,
stim_fb/ques.jpg,stim_fb/posf.jpg,stim_fb/negf.jpg,stim_01/f.jpg,stim_01/e.jpg,1,3,f,0,13,13,48,f,1,1.26629943271,01,01,60.0230189743,PLT_learning_01,N,2014_Feb_18_1511,P13,
stim_fb/ques.jpg,stim_fb/negf.jpg,stim_fb/posf.jpg,stim_01/d.jpg,stim_01/c.jpg,1,2,f,0,14,14,26,f,1,1.54953392255,01,01,60.0230189743,PLT_learning_01,N,2014_Feb_18_1511,P13,
stim_fb/ques.jpg,stim_fb/negf.jpg,stim_fb/posf.jpg,stim_01/e.jpg,stim_01/f.jpg,2,3,j,0,15,15,55,j,1,1.63284563558,01,01,60.0230189743,PLT_learning_01,N,2014_Feb_18_1511,P13,
stim_fb/ques.jpg,stim_fb/posf.jpg,stim_fb/negf.jpg,stim_01/c.jpg,stim_01/d.jpg,2,2,j,0,16,16,39,j,1,1.24965937677,01,01,60.0230189743,PLT_learning_01,N,2014_Feb_18_1511,P13,
stim_fb/ques.jpg,stim_fb/negf.jpg,stim_fb/posf.jpg,stim_01/f.jpg,stim_01/e.jpg,1,3,f,0,17,17,44,None,0,,01,01,60.0230189743,PLT_learning_01,N,2014_Feb_18_1511,P13,
stim_fb/ques.jpg,stim_fb/negf.jpg,stim_fb/posf.jpg,stim_01/e.jpg,stim_01/f.jpg,2,3,j,0,18,18,50,j,1,0.899751040402,01,01,60.0230189743,PLT_learning_01,N,2014_Feb_18_1511,P13,
stim_fb/ques.jpg,stim_fb/negf.jpg,stim_fb/posf.jpg,stim_01/d.jpg,stim_01/c.jpg,1,2,f,0,19,19,24,f,1,0.783115348323,01,01,60.0230189743,PLT_learning_01,N,2014_Feb_18_1511,P13,
stim_fb/ques.jpg,stim_fb/negf.jpg,stim_fb/posf.jpg,stim_01/d.jpg,stim_01/c.jpg,1,2,f,0,20,20,25,f,1,0.799786646015,01,01,60.0230189743,PLT_learning_01,N,2014_Feb_18_1511,P13,
stim_fb/ques.jpg,stim_fb/posf.jpg,stim_fb/negf.jpg,stim_01/d.jpg,stim_01/c.jpg,1,2,f,0,21,21,28,f,1,0.899687753898,01,01,60.0230189743,PLT_learning_01,N,2014_Feb_18_1511,P13,
stim_fb/ques.jpg,stim_fb/negf.jpg,stim_fb/posf.jpg,stim_01/f.jpg,stim_01/e.jpg,1,3,f,0,22,22,40,f,1,0.916396485754,01,01,60.0230189743,PLT_learning_01,N,2014_Feb_18_1511,P13,
stim_fb/ques.jpg,stim_fb/posf.jpg,stim_fb/negf.jpg,stim_01/f.jpg,stim_01/e.jpg,1,3,f,0,23,23,46,f,1,0.816437901828,01,01,60.0230189743,PLT_learning_01,N,2014_Feb_18_1511,P13,
stim_fb/ques.jpg,stim_fb/negf.jpg,stim_fb/posf.jpg,stim_01/c.jpg,stim_01/d.jpg,2,2,j,0,24,24,35,j,1,0.966401551862,01,01,60.0230189743,PLT_learning_01,N,2014_Feb_18_1511,P13,
stim_fb/ques.jpg,stim_fb/negf.jpg,stim_fb/posf.jpg,stim_01/a.jpg,stim_01/b.jpg,2,1,j,0,25,25,12,j,1,1.08303957775,01,01,60.0230189743,PLT_learning_01,N,2014_Feb_18_1511,P13,
stim_fb/ques.jpg,stim_fb/negf.jpg,stim_fb/posf.jpg,stim_01/f.jpg,stim_01/e.jpg,1,3,f,0,26,26,43,f,1,1.09968864712,01,01,60.0230189743,PLT_learning_01,N,2014_Feb_18_1511,P13,
stim_fb/ques.jpg,stim_fb/negf.jpg,stim_fb/posf.jpg,stim_01/c.jpg,stim_01/d.jpg,2,2,j,0,27,27,36,j,1,1.33293691876,01,01,60.0230189743,PLT_learning_01,N,2014_Feb_18_1511,P13,
stim_fb/ques.jpg,stim_fb/posf.jpg,stim_fb/negf.jpg,stim_01/e.jpg,stim_01/f.jpg,2,3,j,0,28,28,59,j,1,1.29960607061,01,01,60.0230189743,PLT_learning_01,N,2014_Feb_18_1511,P13,
stim_fb/ques.jpg,stim_fb/negf.jpg,stim_fb/posf.jpg,stim_01/e.jpg,stim_01/f.jpg,2,3,j,0,29,29,54,f,0,0.733149788536,01,01,60.0230189743,PLT_learning_01,N,2014_Feb_18_1511,P13,
stim_fb/ques.jpg,stim_fb/posf.jpg,stim_fb/negf.jpg,stim_01/a.jpg,stim_01/b.jpg,2,1,j,0,30,30,18,j,1,0.849744022436,01,01,60.0230189743,PLT_learning_01,N,2014_Feb_18_1511,P13,
stim_fb/ques.jpg,stim_fb/posf.jpg,stim_fb/negf.jpg,stim_01/e.jpg,stim_01/f.jpg,2,3,j,0,31,31,57,j,1,1.23297404315,01,01,60.0230189743,PLT_learning_01,N,2014_Feb_18_1511,P13,
stim_fb/ques.jpg,stim_fb/negf.jpg,stim_fb/posf.jpg,stim_01/b.jpg,stim_01/a.jpg,1,1,f,0,32,32,6,f,1,0.716491050101,01,01,60.0230189743,PLT_learning_01,N,2014_Feb_18_1511,P13,
stim_fb/ques.jpg,stim_fb/negf.jpg,stim_fb/posf.jpg,stim_01/e.jpg,stim_01/f.jpg,2,3,j,0,33,33,53,f,0,1.54952241591,01,01,60.0230189743,PLT_learning_01,N,2014_Feb_18_1511,P13,
stim_fb/ques.jpg,stim_fb/negf.jpg,stim_fb/posf.jpg,stim_01/a.jpg,stim_01/b.jpg,2,1,j,0,34,34,10,j,1,0.716488968921,01,01,60.0230189743,PLT_learning_01,N,2014_Feb_18_1511,P13,
stim_fb/ques.jpg,stim_fb/negf.jpg,stim_fb/posf.jpg,stim_01/c.jpg,stim_01/d.jpg,2,2,j,0,35,35,30,j,1,1.01639059108,01,01,60.0230189743,PLT_learning_01,N,2014_Feb_18_1511,P13,
stim_fb/ques.jpg,stim_fb/negf.jpg,stim_fb/posf.jpg,stim_01/b.jpg,stim_01/a.jpg,1,1,f,0,36,36,7,f,1,0.833073629997,01,01,60.0230189743,PLT_learning_01,N,2014_Feb_18_1511,P13,
stim_fb/ques.jpg,stim_fb/negf.jpg,stim_fb/posf.jpg,stim_01/c.jpg,stim_01/d.jpg,2,2,j,0,37,37,34,j,1,0.63320814878,01,01,60.0230189743,PLT_learning_01,N,2014_Feb_18_1511,P13,
stim_fb/ques.jpg,stim_fb/negf.jpg,stim_fb/posf.jpg,stim_01/b.jpg,stim_01/a.jpg,1,1,f,0,38,38,5,f,1,0.733147650215,01,01,60.0230189743,PLT_learning_01,N,2014_Feb_18_1511,P13,
stim_fb/ques.jpg,stim_fb/negf.jpg,stim_fb/posf.jpg,stim_01/b.jpg,stim_01/a.jpg,1,1,f,0,39,39,1,f,1,0.766445004004,01,01,60.0230189743,PLT_learning_01,N,2014_Feb_18_1511,P13,
stim_fb/ques.jpg,stim_fb/negf.jpg,stim_fb/posf.jpg,stim_01/a.jpg,stim_01/b.jpg,2,1,j,0,40,40,14,j,1,0.849745968279,01,01,60.0230189743,PLT_learning_01,N,2014_Feb_18_1511,P13,
stim_fb/ques.jpg,stim_fb/posf.jpg,stim_fb/negf.jpg,stim_01/c.jpg,stim_01/d.jpg,2,2,j,0,41,41,38,j,1,0.816452611437,01,01,60.0230189743,PLT_learning_01,N,2014_Feb_18_1511,P13,
stim_fb/ques.jpg,stim_fb/negf.jpg,stim_fb/posf.jpg,stim_01/e.jpg,stim_01/f.jpg,2,3,j,0,42,42,52,j,1,1.26630863261,01,01,60.0230189743,PLT_learning_01,N,2014_Feb_18_1511,P13,
stim_fb/ques.jpg,stim_fb/posf.jpg,stim_fb/negf.jpg,stim_01/d.jpg,stim_01/c.jpg,1,2,f,0,43,43,29,f,1,1.08302069375,01,01,60.0230189743,PLT_learning_01,N,2014_Feb_18_1511,P13,
stim_fb/ques.jpg,stim_fb/posf.jpg,stim_fb/negf.jpg,stim_01/e.jpg,stim_01/f.jpg,2,3,j,0,44,44,56,j,1,1.46623889806,01,01,60.0230189743,PLT_learning_01,N,2014_Feb_18_1511,P13,
stim_fb/ques.jpg,stim_fb/posf.jpg,stim_fb/negf.jpg,stim_01/f.jpg,stim_01/e.jpg,1,3,f,0,45,45,47,f,1,1.41624313109,01,01,60.0230189743,PLT_learning_01,N,2014_Feb_18_1511,P13,
stim_fb/ques.jpg,stim_fb/negf.jpg,stim_fb/posf.jpg,stim_01/c.jpg,stim_01/d.jpg,2,2,j,0,46,46,32,j,1,0.833086065947,01,01,60.0230189743,PLT_learning_01,N,2014_Feb_18_1511,P13,
stim_fb/ques.jpg,stim_fb/posf.jpg,stim_fb/negf.jpg,stim_01/f.jpg,stim_01/e.jpg,1,3,f,0,47,47,49,j,0,0.849760987658,01,01,60.0230189743,PLT_learning_01,N,2014_Feb_18_1511,P13,
stim_fb/ques.jpg,stim_fb/negf.jpg,stim_fb/posf.jpg,stim_01/d.jpg,stim_01/c.jpg,1,2,f,0,48,48,23,f,1,0.799781506224,01,01,60.0230189743,PLT_learning_01,N,2014_Feb_18_1511,P13,
stim_fb/ques.jpg,stim_fb/negf.jpg,stim_fb/posf.jpg,stim_01/d.jpg,stim_01/c.jpg,1,2,f,0,49,49,20,f,1,0.766427521494,01,01,60.0230189743,PLT_learning_01,N,2014_Feb_18_1511,P13,
stim_fb/ques.jpg,stim_fb/negf.jpg,stim_fb/posf.jpg,stim_01/a.jpg,stim_01/b.jpg,2,1,j,0,50,50,17,j,1,0.733178013782,01,01,60.0230189743,PLT_learning_01,N,2014_Feb_18_1511,P13,
stim_fb/ques.jpg,stim_fb/posf.jpg,stim_fb/negf.jpg,stim_01/c.jpg,stim_01/d.jpg,2,2,j,0,51,51,37,j,1,0.783113721274,01,01,60.0230189743,PLT_learning_01,N,2014_Feb_18_1511,P13,
stim_fb/ques.jpg,stim_fb/negf.jpg,stim_fb/posf.jpg,stim_01/b.jpg,stim_01/a.jpg,1,1,f,0,52,52,0,f,1,0.716491104236,01,01,60.0230189743,PLT_learning_01,N,2014_Feb_18_1511,P13,
stim_fb/ques.jpg,stim_fb/negf.jpg,stim_fb/posf.jpg,stim_01/f.jpg,stim_01/e.jpg,1,3,f,0,53,53,45,j,0,1.21630235448,01,01,60.0230189743,PLT_learning_01,N,2014_Feb_18_1511,P13,
stim_fb/ques.jpg,stim_fb/negf.jpg,stim_fb/posf.jpg,stim_01/c.jpg,stim_01/d.jpg,2,2,j,0,54,54,33,j,1,0.849763378608,01,01,60.0230189743,PLT_learning_01,N,2014_Feb_18_1511,P13,
stim_fb/ques.jpg,stim_fb/negf.jpg,stim_fb/posf.jpg,stim_01/a.jpg,stim_01/b.jpg,2,1,j,0,55,55,13,j,1,0.616492574896,01,01,60.0230189743,PLT_learning_01,N,2014_Feb_18_1511,P13,
stim_fb/ques.jpg,stim_fb/negf.jpg,stim_fb/posf.jpg,stim_01/a.jpg,stim_01/b.jpg,2,1,j,0,56,56,11,j,1,0.633164314688,01,01,60.0230189743,PLT_learning_01,N,2014_Feb_18_1511,P13,
stim_fb/ques.jpg,stim_fb/negf.jpg,stim_fb/posf.jpg,stim_01/d.jpg,stim_01/c.jpg,1,2,f,0,57,57,21,f,1,0.799794291042,01,01,60.0230189743,PLT_learning_01,N,2014_Feb_18_1511,P13,
stim_fb/ques.jpg,stim_fb/negf.jpg,stim_fb/posf.jpg,stim_01/b.jpg,stim_01/a.jpg,1,1,f,0,58,58,3,f,1,0.799780110751,01,01,60.0230189743,PLT_learning_01,N,2014_Feb_18_1511,P13,
stim_fb/ques.jpg,stim_fb/negf.jpg,stim_fb/posf.jpg,stim_01/f.jpg,stim_01/e.jpg,1,3,f,0,59,59,42,j,0,1.39957911753,01,01,60.0230189743,PLT_learning_01,N,2014_Feb_18_1511,P13,
stim_fb/ques.jpg,stim_fb/negf.jpg,stim_fb/posf.jpg,stim_01/d.jpg,stim_01/c.jpg,1,2,f,1,0,60,26,f,1,1.09967962166,01,01,60.0230189743,PLT_learning_01,N,2014_Feb_18_1511,P13,
stim_fb/ques.jpg,stim_fb/negf.jpg,stim_fb/posf.jpg,stim_01/a.jpg,stim_01/b.jpg,2,1,j,1,1,61,11,j,1,0.716479468277,01,01,60.0230189743,PLT_learning_01,N,2014_Feb_18_1511,P13,
stim_fb/ques.jpg,stim_fb/posf.jpg,stim_fb/negf.jpg,stim_01/d.jpg,stim_01/c.jpg,1,2,f,1,2,62,28,f,1,0.966421398255,01,01,60.0230189743,PLT_learning_01,N,2014_Feb_18_1511,P13,
stim_fb/ques.jpg,stim_fb/posf.jpg,stim_fb/negf.jpg,stim_01/e.jpg,stim_01/f.jpg,2,3,j,1,3,63,56,f,0,1.31628444491,01,01,60.0230189743,PLT_learning_01,N,2014_Feb_18_1511,P13,
stim_fb/ques.jpg,stim_fb/negf.jpg,stim_fb/posf.jpg,stim_01/a.jpg,stim_01/b.jpg,2,1,j,1,4,64,16,j,1,0.699816702819,01,01,60.0230189743,PLT_learning_01,N,2014_Feb_18_1511,P13,
stim_fb/ques.jpg,stim_fb/negf.jpg,stim_fb/posf.jpg,stim_01/c.jpg,stim_01/d.jpg,2,2,j,1,5,65,32,j,1,1.13303057785,01,01,60.0230189743,PLT_learning_01,N,2014_Feb_18_1511,P13,
stim_fb/ques.jpg,stim_fb/negf.jpg,stim_fb/posf.jpg,stim_01/c.jpg,stim_01/d.jpg,2,2,j,1,6,66,34,j,1,0.649873569847,01,01,60.0230189743,PLT_learning_01,N,2014_Feb_18_1511,P13,
stim_fb/ques.jpg,stim_fb/posf.jpg,stim_fb/negf.jpg,stim_01/a.jpg,stim_01/b.jpg,2,1,j,1,7,67,18,j,1,0.666554434348,01,01,60.0230189743,PLT_learning_01,N,2014_Feb_18_1511,P13,
stim_fb/ques.jpg,stim_fb/posf.jpg,stim_fb/negf.jpg,stim_01/a.jpg,stim_01/b.jpg,2,1,j,1,8,68,19,j,1,0.766453957286,01,01,60.0230189743,PLT_learning_01,N,2014_Feb_18_1511,P13,
stim_fb/ques.jpg,stim_fb/negf.jpg,stim_fb/posf.jpg,stim_01/e.jpg,stim_01/f.jpg,2,3,j,1,9,69,51,j,1,1.23297402511,01,01,60.0230189743,PLT_learning_01,N,2014_Feb_18_1511,P13,
stim_fb/ques.jpg,stim_fb/posf.jpg,stim_fb/negf.jpg,stim_01/c.jpg,stim_01/d.jpg,2,2,j,1,10,70,39,j,1,0.649787856528,01,01,60.0230189743,PLT_learning_01,N,2014_Feb_18_1511,P13,
stim_fb/ques.jpg,stim_fb/negf.jpg,stim_fb/posf.jpg,stim_01/f.jpg,stim_01/e.jpg,1,3,f,1,11,71,43,f,1,1.51624258975,01,01,60.0230189743,PLT_learning_01,N,2014_Feb_18_1511,P13,
stim_fb/ques.jpg,stim_fb/posf.jpg,stim_fb/negf.jpg,stim_01/e.jpg,stim_01/f.jpg,2,3,j,1,12,72,58,j,1,1.06636354327,01,01,60.0230189743,PLT_learning_01,N,2014_Feb_18_1511,P13,
stim_fb/ques.jpg,stim_fb/negf.jpg,stim_fb/posf.jpg,stim_01/c.jpg,stim_01/d.jpg,2,2,j,1,13,73,31,j,1,0.666482026143,01,01,60.0230189743,PLT_learning_01,N,2014_Feb_18_1511,P13,
stim_fb/ques.jpg,stim_fb/posf.jpg,stim_fb/negf.jpg,stim_01/d.jpg,stim_01/c.jpg,1,2,f,1,14,74,27,f,1,0.833128119608,01,01,60.0230189743,PLT_learning_01,N,2014_Feb_18_1511,P13,
stim_fb/ques.jpg,stim_fb/negf.jpg,stim_fb/posf.jpg,stim_01/e.jpg,stim_01/f.jpg,2,3,j,1,15,75,55,j,1,1.04970088608,01,01,60.0230189743,PLT_learning_01,N,2014_Feb_18_1511,P13,
stim_fb/ques.jpg,stim_fb/negf.jpg,stim_fb/posf.jpg,stim_01/a.jpg,stim_01/b.jpg,2,1,j,1,16,76,13,j,1,0.716358414003,01,01,60.0230189743,PLT_learning_01,N,2014_Feb_18_1511,P13,
stim_fb/ques.jpg,stim_fb/negf.jpg,stim_fb/posf.jpg,stim_01/d.jpg,stim_01/c.jpg,1,2,f,1,17,77,25,f,1,0.666329925602,01,01,60.0230189743,PLT_learning_01,N,2014_Feb_18_1511,P13,
stim_fb/ques.jpg,stim_fb/posf.jpg,stim_fb/negf.jpg,stim_01/d.jpg,stim_01/c.jpg,1,2,f,1,18,78,29,f,1,0.616516553573,01,01,60.0230189743,PLT_learning_01,N,2014_Feb_18_1511,P13,
stim_fb/ques.jpg,stim_fb/negf.jpg,stim_fb/posf.jpg,stim_01/d.jpg,stim_01/c.jpg,1,2,f,1,19,79,24,f,1,0.649832484596,01,01,60.0230189743,PLT_learning_01,N,2014_Feb_18_1511,P13,
stim_fb/ques.jpg,stim_fb/posf.jpg,stim_fb/negf.jpg,stim_01/e.jpg,stim_01/f.jpg,2,3,j,1,20,80,57,j,1,0.899762168096,01,01,60.0230189743,PLT_learning_01,N,2014_Feb_18_1511,P13,
stim_fb/ques.jpg,stim_fb/posf.jpg,stim_fb/negf.jpg,stim_01/e.jpg,stim_01/f.jpg,2,3,j,1,21,81,59,j,1,0.733098835727,01,01,60.0230189743,PLT_learning_01,N,2014_Feb_18_1511,P13,
stim_fb/ques.jpg,stim_fb/negf.jpg,stim_fb/posf.jpg,stim_01/e.jpg,stim_01/f.jpg,2,3,j,1,22,82,54,j,1,0.633159108732,01,01,60.0230189743,PLT_learning_01,N,2014_Feb_18_1511,P13,
stim_fb/ques.jpg,stim_fb/negf.jpg,stim_fb/posf.jpg,stim_01/a.jpg,stim_01/b.jpg,2,1,j,1,23,83,17,j,1,0.716482686285,01,01,60.0230189743,PLT_learning_01,N,2014_Feb_18_1511,P13,
stim_fb/ques.jpg,stim_fb/posf.jpg,stim_fb/negf.jpg,stim_01/f.jpg,stim_01/e.jpg,1,3,f,1,24,84,49,f,1,1.28294891411,01,01,60.0230189743,PLT_learning_01,N,2014_Feb_18_1511,P13,
stim_fb/ques.jpg,stim_fb/negf.jpg,stim_fb/posf.jpg,stim_01/b.jpg,stim_01/a.jpg,1,1,f,1,25,85,6,j,0,0.699817114845,01,01,60.0230189743,PLT_learning_01,N,2014_Feb_18_1511,P13,
stim_fb/ques.jpg,stim_fb/negf.jpg,stim_fb/posf.jpg,stim_01/f.jpg,stim_01/e.jpg,1,3,f,1,26,86,42,j,0,1.28294605399,01,01,60.0230189743,PLT_learning_01,N,2014_Feb_18_1511,P13,
stim_fb/ques.jpg,stim_fb/posf.jpg,stim_fb/negf.jpg,stim_01/f.jpg,stim_01/e.jpg,1,3,f,1,27,87,48,f,1,0.73313411954,01,01,60.0230189743,PLT_learning_01,N,2014_Feb_18_1511,P13,
stim_fb/ques.jpg,stim_fb/negf.jpg,stim_fb/posf.jpg,stim_01/c.jpg,stim_01/d.jpg,2,2,j,1,28,88,33,j,1,0.76647017966,01,01,60.0230189743,PLT_learning_01,N,2014_Feb_18_1511,P13,
stim_fb/ques.jpg,stim_fb/negf.jpg,stim_fb/posf.jpg,stim_01/e.jpg,stim_01/f.jpg,2,3,j,1,29,89,52,j,1,0.69982606512,01,01,60.0230189743,PLT_learning_01,N,2014_Feb_18_1511,P13,
stim_fb/ques.jpg,stim_fb/negf.jpg,stim_fb/posf.jpg,stim_01/b.jpg,stim_01/a.jpg,1,1,f,1,30,90,3,f,1,1.13298471671,01,01,60.0230189743,PLT_learning_01,N,2014_Feb_18_1511,P13,
stim_fb/ques.jpg,stim_fb/negf.jpg,stim_fb/posf.jpg,stim_01/b.jpg,stim_01/a.jpg,1,1,f,1,31,91,4,f,1,0.549867942843,01,01,60.0230189743,PLT_learning_01,N,2014_Feb_18_1511,P13,
stim_fb/ques.jpg,stim_fb/posf.jpg,stim_fb/negf.jpg,stim_01/c.jpg,stim_01/d.jpg,2,2,j,1,32,92,38,j,1,0.766456685075,01,01,60.0230189743,PLT_learning_01,N,2014_Feb_18_1511,P13,
stim_fb/ques.jpg,stim_fb/negf.jpg,stim_fb/posf.jpg,stim_01/d.jpg,stim_01/c.jpg,1,2,f,1,33,93,20,f,1,0.716519687372,01,01,60.0230189743,PLT_learning_01,N,2014_Feb_18_1511,P13,
stim_fb/ques.jpg,stim_fb/negf.jpg,stim_fb/posf.jpg,stim_01/b.jpg,stim_01/a.jpg,1,1,f,1,34,94,0,f,1,0.833105413097,01,01,60.0230189743,PLT_learning_01,N,2014_Feb_18_1511,P13,
stim_fb/ques.jpg,stim_fb/negf.jpg,stim_fb/posf.jpg,stim_01/f.jpg,stim_01/e.jpg,1,3,f,1,35,95,40,j,0,1.28297346421,01,01,60.0230189743,PLT_learning_01,N,2014_Feb_18_1511,P13,
stim_fb/ques.jpg,stim_fb/posf.jpg,stim_fb/negf.jpg,stim_01/f.jpg,stim_01/e.jpg,1,3,f,1,36,96,46,f,1,0.599857318902,01,01,60.0230189743,PLT_learning_01,N,2014_Feb_18_1511,P13,
stim_fb/ques.jpg,stim_fb/negf.jpg,stim_fb/posf.jpg,stim_01/f.jpg,stim_01/e.jpg,1,3,f,1,37,97,44,f,1,0.466562208697,01,01,60.0230189743,PLT_learning_01,N,2014_Feb_18_1511,P13,
stim_fb/ques.jpg,stim_fb/negf.jpg,stim_fb/posf.jpg,stim_01/e.jpg,stim_01/f.jpg,2,3,j,1,38,98,53,j,1,1.16633007898,01,01,60.0230189743,PLT_learning_01,N,2014_Feb_18_1511,P13,
stim_fb/ques.jpg,stim_fb/negf.jpg,stim_fb/posf.jpg,stim_01/d.jpg,stim_01/c.jpg,1,2,f,1,39,99,22,f,1,1.03303150716,01,01,60.0230189743,PLT_learning_01,N,2014_Feb_18_1511,P13,
stim_fb/ques.jpg,stim_fb/negf.jpg,stim_fb/posf.jpg,stim_01/f.jpg,stim_01/e.jpg,1,3,f,1,40,100,45,f,1,1.33295089755,01,01,60.0230189743,PLT_learning_01,N,2014_Feb_18_1511,P13,
stim_fb/ques.jpg,stim_fb/posf.jpg,stim_fb/negf.jpg,stim_01/c.jpg,stim_01/d.jpg,2,2,j,1,41,101,37,j,1,0.766476498385,01,01,60.0230189743,PLT_learning_01,N,2014_Feb_18_1511,P13,
stim_fb/ques.jpg,stim_fb/negf.jpg,stim_fb/posf.jpg,stim_01/a.jpg,stim_01/b.jpg,2,1,j,1,42,102,12,j,1,0.783128689526,01,01,60.0230189743,PLT_learning_01,N,2014_Feb_18_1511,P13,
stim_fb/ques.jpg,stim_fb/negf.jpg,stim_fb/posf.jpg,stim_01/e.jpg,stim_01/f.jpg,2,3,j,1,43,103,50,j,1,1.04976674699,01,01,60.0230189743,PLT_learning_01,N,2014_Feb_18_1511,P13,
stim_fb/ques.jpg,stim_fb/negf.jpg,stim_fb/posf.jpg,stim_01/d.jpg,stim_01/c.jpg,1,2,f,1,44,104,21,f,1,0.799750478002,01,01,60.0230189743,PLT_learning_01,N,2014_Feb_18_1511,P13,
stim_fb/ques.jpg,stim_fb/negf.jpg,stim_fb/posf.jpg,stim_01/f.jpg,stim_01/e.jpg,1,3,f,1,45,105,41,f,1,1.2996069127,01,01,60.0230189743,PLT_learning_01,N,2014_Feb_18_1511,P13,
stim_fb/ques.jpg,stim_fb/posf.jpg,stim_fb/negf.jpg,stim_01/b.jpg,stim_01/a.jpg,1,1,f,1,46,106,8,f,1,1.09963064176,01,01,60.0230189743,PLT_learning_01,N,2014_Feb_18_1511,P13,
stim_fb/ques.jpg,stim_fb/posf.jpg,stim_fb/negf.jpg,stim_01/f.jpg,stim_01/e.jpg,1,3,f,1,47,107,47,f,1,0.916439910828,01,01,60.0230189743,PLT_learning_01,N,2014_Feb_18_1511,P13,
stim_fb/ques.jpg,stim_fb/negf.jpg,stim_fb/posf.jpg,stim_01/c.jpg,stim_01/d.jpg,2,2,j,1,48,108,35,j,1,0.783160403454,01,01,60.0230189743,PLT_learning_01,N,2014_Feb_18_1511,P13,
stim_fb/ques.jpg,stim_fb/negf.jpg,stim_fb/posf.jpg,stim_01/b.jpg,stim_01/a.jpg,1,1,f,1,49,109,2,f,1,1.21632351214,01,01,60.0230189743,PLT_learning_01,N,2014_Feb_18_1511,P13,
stim_fb/ques.jpg,stim_fb/negf.jpg,stim_fb/posf.jpg,stim_01/b.jpg,stim_01/a.jpg,1,1,f,1,50,110,5,f,1,0.749808463814,01,01,60.0230189743,PLT_learning_01,N,2014_Feb_18_1511,P13,
stim_fb/ques.jpg,stim_fb/negf.jpg,stim_fb/posf.jpg,stim_01/a.jpg,stim_01/b.jpg,2,1,j,1,51,111,10,j,1,0.583192421138,01,01,60.0230189743,PLT_learning_01,N,2014_Feb_18_1511,P13,
stim_fb/ques.jpg,stim_fb/negf.jpg,stim_fb/posf.jpg,stim_01/d.jpg,stim_01/c.jpg,1,2,f,1,52,112,23,f,1,0.516541669079,01,01,60.0230189743,PLT_learning_01,N,2014_Feb_18_1511,P13,
stim_fb/ques.jpg,stim_fb/negf.jpg,stim_fb/posf.jpg,stim_01/c.jpg,stim_01/d.jpg,2,2,j,1,53,113,36,j,1,0.749787164806,01,01,60.0230189743,PLT_learning_01,N,2014_Feb_18_1511,P13,
stim_fb/ques.jpg,stim_fb/negf.jpg,stim_fb/posf.jpg,stim_01/b.jpg,stim_01/a.jpg,1,1,f,1,54,114,1,f,1,0.499926882028,01,01,60.0230189743,PLT_learning_01,N,2014_Feb_18_1511,P13,
stim_fb/ques.jpg,stim_fb/negf.jpg,stim_fb/posf.jpg,stim_01/a.jpg,stim_01/b.jpg,2,1,j,1,55,115,15,j,1,0.683166087601,01,01,60.0230189743,PLT_learning_01,N,2014_Feb_18_1511,P13,
stim_fb/ques.jpg,stim_fb/posf.jpg,stim_fb/negf.jpg,stim_01/b.jpg,stim_01/a.jpg,1,1,f,1,56,116,9,f,1,0.716433907888,01,01,60.0230189743,PLT_learning_01,N,2014_Feb_18_1511,P13,
stim_fb/ques.jpg,stim_fb/negf.jpg,stim_fb/posf.jpg,stim_01/b.jpg,stim_01/a.jpg,1,1,f,1,57,117,7,f,1,1.04970122893,01,01,60.0230189743,PLT_learning_01,N,2014_Feb_18_1511,P13,
stim_fb/ques.jpg,stim_fb/negf.jpg,stim_fb/posf.jpg,stim_01/c.jpg,stim_01/d.jpg,2,2,j,1,58,118,30,j,1,0.683160677135,01,01,60.0230189743,PLT_learning_01,N,2014_Feb_18_1511,P13,
stim_fb/ques.jpg,stim_fb/negf.jpg,stim_fb/posf.jpg,stim_01/a.jpg,stim_01/b.jpg,2,1,j,1,59,119,14,j,1,0.816406226997,01,01,60.0230189743,PLT_learning_01,N,2014_Feb_18_1511,P13,
stim_fb/ques.jpg,stim_fb/negf.jpg,stim_fb/posf.jpg,stim_01/e.jpg,stim_01/f.jpg,2,3,j,2,0,120,54,j,1,1.13303272519,01,01,60.0230189743,PLT_learning_01,N,2014_Feb_18_1511,P13,
stim_fb/ques.jpg,stim_fb/posf.jpg,stim_fb/negf.jpg,stim_01/a.jpg,stim_01/b.jpg,2,1,j,2,1,121,19,j,1,1.11633358722,01,01,60.0230189743,PLT_learning_01,N,2014_Feb_18_1511,P13,
stim_fb/ques.jpg,stim_fb/negf.jpg,stim_fb/posf.jpg,stim_01/a.jpg,stim_01/b.jpg,2,1,j,2,2,122,13,j,1,0.716479266775,01,01,60.0230189743,PLT_learning_01,N,2014_Feb_18_1511,P13,
stim_fb/ques.jpg,stim_fb/negf.jpg,stim_fb/posf.jpg,stim_01/b.jpg,stim_01/a.jpg,1,1,f,2,3,123,6,f,1,0.449900390597,01,01,60.0230189743,PLT_learning_01,N,2014_Feb_18_1511,P13,
stim_fb/ques.jpg,stim_fb/negf.jpg,stim_fb/posf.jpg,stim_01/c.jpg,stim_01/d.jpg,2,2,j,2,4,124,30,j,1,1.11636392672,01,01,60.0230189743,PLT_learning_01,N,2014_Feb_18_1511,P13,
stim_fb/ques.jpg,stim_fb/posf.jpg,stim_fb/negf.jpg,stim_01/e.jpg,stim_01/f.jpg,2,3,j,2,5,125,59,j,1,1.01638273553,01,01,60.0230189743,PLT_learning_01,N,2014_Feb_18_1511,P13,
stim_fb/ques.jpg,stim_fb/posf.jpg,stim_fb/negf.jpg,stim_01/d.jpg,stim_01/c.jpg,1,2,f,2,6,126,28,f,1,0.866427798183,01,01,60.0230189743,PLT_learning_01,N,2014_Feb_18_1511,P13,
stim_fb/ques.jpg,stim_fb/negf.jpg,stim_fb/posf.jpg,stim_01/b.jpg,stim_01/a.jpg,1,1,f,2,7,127,3,f,1,0.566554464423,01,01,60.0230189743,PLT_learning_01,N,2014_Feb_18_1511,P13,
stim_fb/ques.jpg,stim_fb/negf.jpg,stim_fb/posf.jpg,stim_01/f.jpg,stim_01/e.jpg,1,3,f,2,8,128,40,f,1,1.13300988335,01,01,60.0230189743,PLT_learning_01,N,2014_Feb_18_1511,P13,
stim_fb/ques.jpg,stim_fb/negf.jpg,stim_fb/posf.jpg,stim_01/a.jpg,stim_01/b.jpg,2,1,j,2,9,129,11,j,1,0.81630973786,01,01,60.0230189743,PLT_learning_01,N,2014_Feb_18_1511,P13,
stim_fb/ques.jpg,stim_fb/negf.jpg,stim_fb/posf.jpg,stim_01/b.jpg,stim_01/a.jpg,1,1,f,2,10,130,7,j,0,0.733281005101,01,01,60.0230189743,PLT_learning_01,N,2014_Feb_18_1511,P13,
stim_fb/ques.jpg,stim_fb/posf.jpg,stim_fb/negf.jpg,stim_01/b.jpg,stim_01/a.jpg,1,1,f,2,11,131,8,f,1,0.566560301952,01,01,60.0230189743,PLT_learning_01,N,2014_Feb_18_1511,P13,
stim_fb/ques.jpg,stim_fb/negf.jpg,stim_fb/posf.jpg,stim_01/a.jpg,stim_01/b.jpg,2,1,j,2,12,132,16,j,1,0.53320120149,01,01,60.0230189743,PLT_learning_01,N,2014_Feb_18_1511,P13,
stim_fb/ques.jpg,stim_fb/posf.jpg,stim_fb/negf.jpg,stim_01/f.jpg,stim_01/e.jpg,1,3,f,2,13,133,46,f,1,1.06636077638,01,01,60.0230189743,PLT_learning_01,N,2014_Feb_18_1511,P13,
stim_fb/ques.jpg,stim_fb/posf.jpg,stim_fb/negf.jpg,stim_01/e.jpg,stim_01/f.jpg,2,3,j,2,14,134,57,j,1,0.616453916685,01,01,60.0230189743,PLT_learning_01,N,2014_Feb_18_1511,P13,
stim_fb/ques.jpg,stim_fb/negf.jpg,stim_fb/posf.jpg,stim_01/d.jpg,stim_01/c.jpg,1,2,f,2,15,135,20,f,1,0.999725028665,01,01,60.0230189743,PLT_learning_01,N,2014_Feb_18_1511,P13,
stim_fb/ques.jpg,stim_fb/negf.jpg,stim_fb/posf.jpg,stim_01/d.jpg,stim_01/c.jpg,1,2,f,2,16,136,25,f,1,0.59988764638,01,01,60.0230189743,PLT_learning_01,N,2014_Feb_18_1511,P13,
stim_fb/ques.jpg,stim_fb/negf.jpg,stim_fb/posf.jpg,stim_01/c.jpg,stim_01/d.jpg,2,2,j,2,17,137,36,j,1,0.783136960109,01,01,60.0230189743,PLT_learning_01,N,2014_Feb_18_1511,P13,
stim_fb/ques.jpg,stim_fb/negf.jpg,stim_fb/posf.jpg,stim_01/d.jpg,stim_01/c.jpg,1,2,f,2,18,138,23,f,1,0.783116749811,01,01,60.0230189743,PLT_learning_01,N,2014_Feb_18_1511,P13,
stim_fb/ques.jpg,stim_fb/negf.jpg,stim_fb/posf.jpg,stim_01/c.jpg,stim_01/d.jpg,2,2,j,2,19,139,33,j,1,0.733129918084,01,01,60.0230189743,PLT_learning_01,N,2014_Feb_18_1511,P13,
stim_fb/ques.jpg,stim_fb/negf.jpg,stim_fb/posf.jpg,stim_01/c.jpg,stim_01/d.jpg,2,2,j,2,20,140,34,j,1,0.799674093901,01,01,60.0230189743,PLT_learning_01,N,2014_Feb_18_1511,P13,
stim_fb/ques.jpg,stim_fb/negf.jpg,stim_fb/posf.jpg,stim_01/b.jpg,stim_01/a.jpg,1,1,f,2,21,141,0,f,1,0.833093371127,01,01,60.0230189743,PLT_learning_01,N,2014_Feb_18_1511,P13,
stim_fb/ques.jpg,stim_fb/negf.jpg,stim_fb/posf.jpg,stim_01/c.jpg,stim_01/d.jpg,2,2,j,2,22,142,32,j,1,0.599858651218,01,01,60.0230189743,PLT_learning_01,N,2014_Feb_18_1511,P13,
stim_fb/ques.jpg,stim_fb/posf.jpg,stim_fb/negf.jpg,stim_01/f.jpg,stim_01/e.jpg,1,3,f,2,23,143,47,f,1,1.21630932884,01,01,60.0230189743,PLT_learning_01,N,2014_Feb_18_1511,P13,
stim_fb/ques.jpg,stim_fb/negf.jpg,stim_fb/posf.jpg,stim_01/a.jpg,stim_01/b.jpg,2,1,j,2,24,144,10,j,1,0.866447740815,01,01,60.0230189743,PLT_learning_01,N,2014_Feb_18_1511,P13,
stim_fb/ques.jpg,stim_fb/posf.jpg,stim_fb/negf.jpg,stim_01/c.jpg,stim_01/d.jpg,2,2,j,2,25,145,37,j,1,0.816307782995,01,01,60.0230189743,PLT_learning_01,N,2014_Feb_18_1511,P13,
stim_fb/ques.jpg,stim_fb/negf.jpg,stim_fb/posf.jpg,stim_01/e.jpg,stim_01/f.jpg,2,3,j,2,26,146,55,f,0,0.883107351421,01,01,60.0230189743,PLT_learning_01,N,2014_Feb_18_1511,P13,
stim_fb/ques.jpg,stim_fb/posf.jpg,stim_fb/negf.jpg,stim_01/c.jpg,stim_01/d.jpg,2,2,j,2,27,147,39,j,1,0.716486496769,01,01,60.0230189743,PLT_learning_01,N,2014_Feb_18_1511,P13,
stim_fb/ques.jpg,stim_fb/negf.jpg,stim_fb/posf.jpg,stim_01/f.jpg,stim_01/e.jpg,1,3,f,2,28,148,41,f,1,1.29961768852,01,01,60.0230189743,PLT_learning_01,N,2014_Feb_18_1511,P13,
stim_fb/ques.jpg,stim_fb/negf.jpg,stim_fb/posf.jpg,stim_01/f.jpg,stim_01/e.jpg,1,3,f,2,29,149,45,f,1,0.699824714759,01,01,60.0230189743,PLT_learning_01,N,2014_Feb_18_1511,P13,
stim_fb/ques.jpg,stim_fb/posf.jpg,stim_fb/negf.jpg,stim_01/d.jpg,stim_01/c.jpg,1,2,f,2,30,150,27,f,1,0.79973145566,01,01,60.0230189743,PLT_learning_01,N,2014_Feb_18_1511,P13,
stim_fb/ques.jpg,stim_fb/posf.jpg,stim_fb/negf.jpg,stim_01/f.jpg,stim_01/e.jpg,1,3,f,2,31,151,49,f,1,0.833138597685,01,01,60.0230189743,PLT_learning_01,N,2014_Feb_18_1511,P13,
stim_fb/ques.jpg,stim_fb/negf.jpg,stim_fb/posf.jpg,stim_01/a.jpg,stim_01/b.jpg,2,1,j,2,32,152,17,j,1,0.69982643504,01,01,60.0230189743,PLT_learning_01,N,2014_Feb_18_1511,P13,
stim_fb/ques.jpg,stim_fb/negf.jpg,stim_fb/posf.jpg,stim_01/b.jpg,stim_01/a.jpg,1,1,f,2,33,153,1,f,1,0.816439363466,01,01,60.0230189743,PLT_learning_01,N,2014_Feb_18_1511,P13,
stim_fb/ques.jpg,stim_fb/posf.jpg,stim_fb/negf.jpg,stim_01/c.jpg,stim_01/d.jpg,2,2,j,2,34,154,38,j,1,0.783132090992,01,01,60.0230189743,PLT_learning_01,N,2014_Feb_18_1511,P13,
stim_fb/ques.jpg,stim_fb/negf.jpg,stim_fb/posf.jpg,stim_01/c.jpg,stim_01/d.jpg,2,2,j,2,35,155,31,j,1,1.16632059037,01,01,60.0230189743,PLT_learning_01,N,2014_Feb_18_1511,P13,
stim_fb/ques.jpg,stim_fb/negf.jpg,stim_fb/posf.jpg,stim_01/a.jpg,stim_01/b.jpg,2,1,j,2,36,156,15,j,1,1.34961384646,01,01,60.0230189743,PLT_learning_01,N,2014_Feb_18_1511,P13,
stim_fb/ques.jpg,stim_fb/negf.jpg,stim_fb/posf.jpg,stim_01/e.jpg,stim_01/f.jpg,2,3,j,2,37,157,50,j,1,1.48298265809,01,01,60.0230189743,PLT_learning_01,N,2014_Feb_18_1511,P13,
stim_fb/ques.jpg,stim_fb/negf.jpg,stim_fb/posf.jpg,stim_01/e.jpg,stim_01/f.jpg,2,3,j,2,38,158,53,j,1,0.949739992406,01,01,60.0230189743,PLT_learning_01,N,2014_Feb_18_1511,P13,
stim_fb/ques.jpg,stim_fb/negf.jpg,stim_fb/posf.jpg,stim_01/f.jpg,stim_01/e.jpg,1,3,f,2,39,159,42,f,1,1.23297696041,01,01,60.0230189743,PLT_learning_01,N,2014_Feb_18_1511,P13,
stim_fb/ques.jpg,stim_fb/posf.jpg,stim_fb/negf.jpg,stim_01/e.jpg,stim_01/f.jpg,2,3,j,2,40,160,58,j,1,0.699755392232,01,01,60.0230189743,PLT_learning_01,N,2014_Feb_18_1511,P13,
stim_fb/ques.jpg,stim_fb/negf.jpg,stim_fb/posf.jpg,stim_01/d.jpg,stim_01/c.jpg,1,2,f,2,41,161,26,f,1,1.04969685304,01,01,60.0230189743,PLT_learning_01,N,2014_Feb_18_1511,P13,
stim_fb/ques.jpg,stim_fb/posf.jpg,stim_fb/negf.jpg,stim_01/a.jpg,stim_01/b.jpg,2,1,j,2,42,162,18,j,1,1.19964105668,01,01,60.0230189743,PLT_learning_01,N,2014_Feb_18_1511,P13,
stim_fb/ques.jpg,stim_fb/negf.jpg,stim_fb/posf.jpg,stim_01/b.jpg,stim_01/a.jpg,1,1,f,2,43,163,2,None,0,,01,01,60.0230189743,PLT_learning_01,N,2014_Feb_18_1511,P13,
stim_fb/ques.jpg,stim_fb/negf.jpg,stim_fb/posf.jpg,stim_01/e.jpg,stim_01/f.jpg,2,3,j,2,44,164,52,j,1,0.93307451119,01,01,60.0230189743,PLT_learning_01,N,2014_Feb_18_1511,P13,
stim_fb/ques.jpg,stim_fb/negf.jpg,stim_fb/posf.jpg,stim_01/b.jpg,stim_01/a.jpg,1,1,f,2,45,165,4,f,1,0.799790859502,01,01,60.0230189743,PLT_learning_01,N,2014_Feb_18_1511,P13,
stim_fb/ques.jpg,stim_fb/posf.jpg,stim_fb/negf.jpg,stim_01/b.jpg,stim_01/a.jpg,1,1,f,2,46,166,9,f,1,0.666485851663,01,01,60.0230189743,PLT_learning_01,N,2014_Feb_18_1511,P13,
stim_fb/ques.jpg,stim_fb/negf.jpg,stim_fb/posf.jpg,stim_01/c.jpg,stim_01/d.jpg,2,2,j,2,47,167,35,j,1,0.766456242975,01,01,60.0230189743,PLT_learning_01,N,2014_Feb_18_1511,P13,
stim_fb/ques.jpg,stim_fb/negf.jpg,stim_fb/posf.jpg,stim_01/b.jpg,stim_01/a.jpg,1,1,f,2,48,168,5,f,1,0.699810329959,01,01,60.0230189743,PLT_learning_01,N,2014_Feb_18_1511,P13,
stim_fb/ques.jpg,stim_fb/negf.jpg,stim_fb/posf.jpg,stim_01/d.jpg,stim_01/c.jpg,1,2,f,2,49,169,24,f,1,0.633166269553,01,01,60.0230189743,PLT_learning_01,N,2014_Feb_18_1511,P13,
stim_fb/ques.jpg,stim_fb/negf.jpg,stim_fb/posf.jpg,stim_01/e.jpg,stim_01/f.jpg,2,3,j,2,50,170,51,j,1,0.699824684684,01,01,60.0230189743,PLT_learning_01,N,2014_Feb_18_1511,P13,
stim_fb/ques.jpg,stim_fb/negf.jpg,stim_fb/posf.jpg,stim_01/d.jpg,stim_01/c.jpg,1,2,f,2,51,171,21,f,1,0.816490466649,01,01,60.0230189743,PLT_learning_01,N,2014_Feb_18_1511,P13,
stim_fb/ques.jpg,stim_fb/posf.jpg,stim_fb/negf.jpg,stim_01/d.jpg,stim_01/c.jpg,1,2,f,2,52,172,29,f,1,0.566585600914,01,01,60.0230189743,PLT_learning_01,N,2014_Feb_18_1511,P13,
stim_fb/ques.jpg,stim_fb/posf.jpg,stim_fb/negf.jpg,stim_01/f.jpg,stim_01/e.jpg,1,3,f,2,53,173,48,f,1,1.18299379481,01,01,60.0230189743,PLT_learning_01,N,2014_Feb_18_1511,P13,
stim_fb/ques.jpg,stim_fb/negf.jpg,stim_fb/posf.jpg,stim_01/f.jpg,stim_01/e.jpg,1,3,f,2,54,174,44,f,1,1.16633832852,01,01,60.0230189743,PLT_learning_01,N,2014_Feb_18_1511,P13,
stim_fb/ques.jpg,stim_fb/negf.jpg,stim_fb/posf.jpg,stim_01/a.jpg,stim_01/b.jpg,2,1,j,2,55,175,14,f,0,0.933066754886,01,01,60.0230189743,PLT_learning_01,N,2014_Feb_18_1511,P13,
stim_fb/ques.jpg,stim_fb/negf.jpg,stim_fb/posf.jpg,stim_01/a.jpg,stim_01/b.jpg,2,1,j,2,56,176,12,j,1,0.799804585663,01,01,60.0230189743,PLT_learning_01,N,2014_Feb_18_1511,P13,
stim_fb/ques.jpg,stim_fb/negf.jpg,stim_fb/posf.jpg,stim_01/f.jpg,stim_01/e.jpg,1,3,f,2,57,177,43,f,1,0.866432453769,01,01,60.0230189743,PLT_learning_01,N,2014_Feb_18_1511,P13,
stim_fb/ques.jpg,stim_fb/negf.jpg,stim_fb/posf.jpg,stim_01/d.jpg,stim_01/c.jpg,1,2,f,2,58,178,22,f,1,0.799705104078,01,01,60.0230189743,PLT_learning_01,N,2014_Feb_18_1511,P13,
stim_fb/ques.jpg,stim_fb/posf.jpg,stim_fb/negf.jpg,stim_01/e.jpg,stim_01/f.jpg,2,3,j,2,59,179,56,f,0,1.28297218603,01,01,60.0230189743,PLT_learning_01,N,2014_Feb_18_1511,P13,
stim_fb/ques.jpg,stim_fb/negf.jpg,stim_fb/posf.jpg,stim_01/c.jpg,stim_01/d.jpg,2,2,j,3,0,180,33,j,1,1.68270971982,01,01,60.0230189743,PLT_learning_01,N,2014_Feb_18_1511,P13,
stim_fb/ques.jpg,stim_fb/negf.jpg,stim_fb/posf.jpg,stim_01/b.jpg,stim_01/a.jpg,1,1,f,3,1,181,7,f,1,0.649871738289,01,01,60.0230189743,PLT_learning_01,N,2014_Feb_18_1511,P13,
stim_fb/ques.jpg,stim_fb/posf.jpg,stim_fb/negf.jpg,stim_01/f.jpg,stim_01/e.jpg,1,3,f,3,2,182,49,f,1,0.949747706605,01,01,60.0230189743,PLT_learning_01,N,2014_Feb_18_1511,P13,
stim_fb/ques.jpg,stim_fb/posf.jpg,stim_fb/negf.jpg,stim_01/f.jpg,stim_01/e.jpg,1,3,f,3,3,183,47,f,1,0.483224625286,01,01,60.0230189743,PLT_learning_01,N,2014_Feb_18_1511,P13,
stim_fb/ques.jpg,stim_fb/posf.jpg,stim_fb/negf.jpg,stim_01/e.jpg,stim_01/f.jpg,2,3,j,3,4,184,57,f,0,0.799797388751,01,01,60.0230189743,PLT_learning_01,N,2014_Feb_18_1511,P13,
stim_fb/ques.jpg,stim_fb/negf.jpg,stim_fb/posf.jpg,stim_01/e.jpg,stim_01/f.jpg,2,3,j,3,5,185,55,f,0,0.583189750491,01,01,60.0230189743,PLT_learning_01,N,2014_Feb_18_1511,P13,
stim_fb/ques.jpg,stim_fb/negf.jpg,stim_fb/posf.jpg,stim_01/c.jpg,stim_01/d.jpg,2,2,j,3,6,186,31,j,1,0.79979815566,01,01,60.0230189743,PLT_learning_01,N,2014_Feb_18_1511,P13,
stim_fb/ques.jpg,stim_fb/negf.jpg,stim_fb/posf.jpg,stim_01/d.jpg,stim_01/c.jpg,1,2,f,3,7,187,24,f,1,0.783083252445,01,01,60.0230189743,PLT_learning_01,N,2014_Feb_18_1511,P13,
stim_fb/ques.jpg,stim_fb/negf.jpg,stim_fb/posf.jpg,stim_01/f.jpg,stim_01/e.jpg,1,3,f,3,8,188,40,f,1,0.633163764318,01,01,60.0230189743,PLT_learning_01,N,2014_Feb_18_1511,P13,
stim_fb/ques.jpg,stim_fb/posf.jpg,stim_fb/negf.jpg,stim_01/f.jpg,stim_01/e.jpg,1,3,f,3,9,189,46,f,1,1.56618817683,01,01,60.0230189743,PLT_learning_01,N,2014_Feb_18_1511,P13,
stim_fb/ques.jpg,stim_fb/posf.jpg,stim_fb/negf.jpg,stim_01/a.jpg,stim_01/b.jpg,2,1,j,3,10,190,19,f,0,0.616511952121,01,01,60.0230189743,PLT_learning_01,N,2014_Feb_18_1511,P13,
stim_fb/ques.jpg,stim_fb/posf.jpg,stim_fb/negf.jpg,stim_01/a.jpg,stim_01/b.jpg,2,1,j,3,11,191,18,j,1,0.716472238283,01,01,60.0230189743,PLT_learning_01,N,2014_Feb_18_1511,P13,
stim_fb/ques.jpg,stim_fb/negf.jpg,stim_fb/posf.jpg,stim_01/d.jpg,stim_01/c.jpg,1,2,f,3,12,192,23,f,1,0.833096541016,01,01,60.0230189743,PLT_learning_01,N,2014_Feb_18_1511,P13,
stim_fb/ques.jpg,stim_fb/negf.jpg,stim_fb/posf.jpg,stim_01/a.jpg,stim_01/b.jpg,2,1,j,3,13,193,13,j,1,0.599861775995,01,01,60.0230189743,PLT_learning_01,N,2014_Feb_18_1511,P13,
stim_fb/ques.jpg,stim_fb/posf.jpg,stim_fb/negf.jpg,stim_01/c.jpg,stim_01/d.jpg,2,2,j,3,14,194,37,j,1,0.783115212986,01,01,60.0230189743,PLT_learning_01,N,2014_Feb_18_1511,P13,
stim_fb/ques.jpg,stim_fb/negf.jpg,stim_fb/posf.jpg,stim_01/a.jpg,stim_01/b.jpg,2,1,j,3,15,195,11,j,1,0.616507804799,01,01,60.0230189743,PLT_learning_01,N,2014_Feb_18_1511,P13,
stim_fb/ques.jpg,stim_fb/posf.jpg,stim_fb/negf.jpg,stim_01/e.jpg,stim_01/f.jpg,2,3,j,3,16,196,58,j,1,1.26629713499,01,01,60.0230189743,PLT_learning_01,N,2014_Feb_18_1511,P13,
stim_fb/ques.jpg,stim_fb/negf.jpg,stim_fb/posf.jpg,stim_01/e.jpg,stim_01/f.jpg,2,3,j,3,17,197,50,f,0,0.583188243742,01,01,60.0230189743,PLT_learning_01,N,2014_Feb_18_1511,P13,
stim_fb/ques.jpg,stim_fb/negf.jpg,stim_fb/posf.jpg,stim_01/a.jpg,stim_01/b.jpg,2,1,j,3,18,198,12,j,1,0.749801468404,01,01,60.0230189743,PLT_learning_01,N,2014_Feb_18_1511,P13,
stim_fb/ques.jpg,stim_fb/posf.jpg,stim_fb/negf.jpg,stim_01/c.jpg,stim_01/d.jpg,2,2,j,3,19,199,38,j,1,0.683157104243,01,01,60.0230189743,PLT_learning_01,N,2014_Feb_18_1511,P13,
stim_fb/ques.jpg,stim_fb/negf.jpg,stim_fb/posf.jpg,stim_01/d.jpg,stim_01/c.jpg,1,2,f,3,20,200,22,f,1,0.549872971357,01,01,60.0230189743,PLT_learning_01,N,2014_Feb_18_1511,P13,
stim_fb/ques.jpg,stim_fb/negf.jpg,stim_fb/posf.jpg,stim_01/f.jpg,stim_01/e.jpg,1,3,f,3,21,201,41,j,0,1.04970227554,01,01,60.0230189743,PLT_learning_01,N,2014_Feb_18_1511,P13,
stim_fb/ques.jpg,stim_fb/posf.jpg,stim_fb/negf.jpg,stim_01/c.jpg,stim_01/d.jpg,2,2,j,3,22,202,39,j,1,0.666501559757,01,01,60.0230189743,PLT_learning_01,N,2014_Feb_18_1511,P13,
stim_fb/ques.jpg,stim_fb/posf.jpg,stim_fb/negf.jpg,stim_01/b.jpg,stim_01/a.jpg,1,1,f,3,23,203,8,f,1,1.14968015549,01,01,60.0230189743,PLT_learning_01,N,2014_Feb_18_1511,P13,
stim_fb/ques.jpg,stim_fb/negf.jpg,stim_fb/posf.jpg,stim_01/b.jpg,stim_01/a.jpg,1,1,f,3,24,204,2,f,1,1.04970239885,01,01,60.0230189743,PLT_learning_01,N,2014_Feb_18_1511,P13,
stim_fb/ques.jpg,stim_fb/posf.jpg,stim_fb/negf.jpg,stim_01/e.jpg,stim_01/f.jpg,2,3,j,3,25,205,59,None,0,,01,01,60.0230189743,PLT_learning_01,N,2014_Feb_18_1511,P13,
stim_fb/ques.jpg,stim_fb/posf.jpg,stim_fb/negf.jpg,stim_01/b.jpg,stim_01/a.jpg,1,1,f,3,26,206,9,f,1,0.966386502408,01,01,60.0230189743,PLT_learning_01,N,2014_Feb_18_1511,P13,
stim_fb/ques.jpg,stim_fb/negf.jpg,stim_fb/posf.jpg,stim_01/f.jpg,stim_01/e.jpg,1,3,f,3,27,207,42,j,0,0.899763701913,01,01,60.0230189743,PLT_learning_01,N,2014_Feb_18_1511,P13,
stim_fb/ques.jpg,stim_fb/negf.jpg,stim_fb/posf.jpg,stim_01/e.jpg,stim_01/f.jpg,2,3,j,3,28,208,54,j,1,0.649833134213,01,01,60.0230189743,PLT_learning_01,N,2014_Feb_18_1511,P13,
stim_fb/ques.jpg,stim_fb/negf.jpg,stim_fb/posf.jpg,stim_01/a.jpg,stim_01/b.jpg,2,1,j,3,29,209,10,j,1,0.916437183039,01,01,60.0230189743,PLT_learning_01,N,2014_Feb_18_1511,P13,
stim_fb/ques.jpg,stim_fb/negf.jpg,stim_fb/posf.jpg,stim_01/b.jpg,stim_01/a.jpg,1,1,f,3,30,210,3,f,1,1.08302567415,01,01,60.0230189743,PLT_learning_01,N,2014_Feb_18_1511,P13,
stim_fb/ques.jpg,stim_fb/negf.jpg,stim_fb/posf.jpg,stim_01/a.jpg,stim_01/b.jpg,2,1,j,3,31,211,15,j,1,1.33291801371,01,01,60.0230189743,PLT_learning_01,N,2014_Feb_18_1511,P13,
stim_fb/ques.jpg,stim_fb/negf.jpg,stim_fb/posf.jpg,stim_01/e.jpg,stim_01/f.jpg,2,3,j,3,32,212,51,j,1,1.03305181972,01,01,60.0230189743,PLT_learning_01,N,2014_Feb_18_1511,P13,
stim_fb/ques.jpg,stim_fb/negf.jpg,stim_fb/posf.jpg,stim_01/f.jpg,stim_01/e.jpg,1,3,f,3,33,213,43,j,0,0.783132175201,01,01,60.0230189743,PLT_learning_01,N,2014_Feb_18_1511,P13,
stim_fb/ques.jpg,stim_fb/negf.jpg,stim_fb/posf.jpg,stim_01/b.jpg,stim_01/a.jpg,1,1,f,3,34,214,6,f,1,1.1329722567,01,01,60.0230189743,PLT_learning_01,N,2014_Feb_18_1511,P13,
stim_fb/ques.jpg,stim_fb/negf.jpg,stim_fb/posf.jpg,stim_01/b.jpg,stim_01/a.jpg,1,1,f,3,35,215,4,f,1,1.1163492532,01,01,60.0230189743,PLT_learning_01,N,2014_Feb_18_1511,P13,
stim_fb/ques.jpg,stim_fb/negf.jpg,stim_fb/posf.jpg,stim_01/d.jpg,stim_01/c.jpg,1,2,f,3,36,216,21,f,1,0.749797706041,01,01,60.0230189743,PLT_learning_01,N,2014_Feb_18_1511,P13,
stim_fb/ques.jpg,stim_fb/negf.jpg,stim_fb/posf.jpg,stim_01/d.jpg,stim_01/c.jpg,1,2,f,3,37,217,20,f,1,0.633184338523,01,01,60.0230189743,PLT_learning_01,N,2014_Feb_18_1511,P13,
stim_fb/ques.jpg,stim_fb/negf.jpg,stim_fb/posf.jpg,stim_01/d.jpg,stim_01/c.jpg,1,2,f,3,38,218,25,f,1,0.899720860291,01,01,60.0230189743,PLT_learning_01,N,2014_Feb_18_1511,P13,
stim_fb/ques.jpg,stim_fb/negf.jpg,stim_fb/posf.jpg,stim_01/e.jpg,stim_01/f.jpg,2,3,j,3,39,219,52,j,1,0.999710379206,01,01,60.0230189743,PLT_learning_01,N,2014_Feb_18_1511,P13,
stim_fb/ques.jpg,stim_fb/negf.jpg,stim_fb/posf.jpg,stim_01/a.jpg,stim_01/b.jpg,2,1,j,3,40,220,16,j,1,0.949740187893,01,01,60.0230189743,PLT_learning_01,N,2014_Feb_18_1511,P13,
stim_fb/ques.jpg,stim_fb/negf.jpg,stim_fb/posf.jpg,stim_01/f.jpg,stim_01/e.jpg,1,3,f,3,41,221,44,f,1,1.23298233479,01,01,60.0230189743,PLT_learning_01,N,2014_Feb_18_1511,P13,
stim_fb/ques.jpg,stim_fb/negf.jpg,stim_fb/posf.jpg,stim_01/b.jpg,stim_01/a.jpg,1,1,f,3,42,222,5,f,1,0.666485767454,01,01,60.0230189743,PLT_learning_01,N,2014_Feb_18_1511,P13,
stim_fb/ques.jpg,stim_fb/negf.jpg,stim_fb/posf.jpg,stim_01/c.jpg,stim_01/d.jpg,2,2,j,3,43,223,34,j,1,0.666491653102,01,01,60.0230189743,PLT_learning_01,N,2014_Feb_18_1511,P13,
stim_fb/ques.jpg,stim_fb/negf.jpg,stim_fb/posf.jpg,stim_01/f.jpg,stim_01/e.jpg,1,3,f,3,44,224,45,j,0,1.11634080518,01,01,60.0230189743,PLT_learning_01,N,2014_Feb_18_1511,P13,
stim_fb/ques.jpg,stim_fb/posf.jpg,stim_fb/negf.jpg,stim_01/d.jpg,stim_01/c.jpg,1,2,f,3,45,225,28,f,1,0.683163591388,01,01,60.0230189743,PLT_learning_01,N,2014_Feb_18_1511,P13,
stim_fb/ques.jpg,stim_fb/posf.jpg,stim_fb/negf.jpg,stim_01/e.jpg,stim_01/f.jpg,2,3,j,3,46,226,56,j,1,1.09967597057,01,01,60.0230189743,PLT_learning_01,N,2014_Feb_18_1511,P13,
stim_fb/ques.jpg,stim_fb/posf.jpg,stim_fb/negf.jpg,stim_01/d.jpg,stim_01/c.jpg,1,2,f,3,47,227,29,f,1,0.83312211366,01,01,60.0230189743,PLT_learning_01,N,2014_Feb_18_1511,P13,
stim_fb/ques.jpg,stim_fb/negf.jpg,stim_fb/posf.jpg,stim_01/a.jpg,stim_01/b.jpg,2,1,j,3,48,228,17,j,1,0.816442870193,01,01,60.0230189743,PLT_learning_01,N,2014_Feb_18_1511,P13,
stim_fb/ques.jpg,stim_fb/negf.jpg,stim_fb/posf.jpg,stim_01/c.jpg,stim_01/d.jpg,2,2,j,3,49,229,32,j,1,0.849770052217,01,01,60.0230189743,PLT_learning_01,N,2014_Feb_18_1511,P13,
stim_fb/ques.jpg,stim_fb/posf.jpg,stim_fb/negf.jpg,stim_01/f.jpg,stim_01/e.jpg,1,3,f,3,50,230,48,f,1,1.4328822517,01,01,60.0230189743,PLT_learning_01,N,2014_Feb_18_1511,P13,
stim_fb/ques.jpg,stim_fb/posf.jpg,stim_fb/negf.jpg,stim_01/d.jpg,stim_01/c.jpg,1,2,f,3,51,231,27,f,1,0.749794614346,01,01,60.0230189743,PLT_learning_01,N,2014_Feb_18_1511,P13,
stim_fb/ques.jpg,stim_fb/negf.jpg,stim_fb/posf.jpg,stim_01/e.jpg,stim_01/f.jpg,2,3,j,3,52,232,53,j,1,0.833098453777,01,01,60.0230189743,PLT_learning_01,N,2014_Feb_18_1511,P13,
stim_fb/ques.jpg,stim_fb/negf.jpg,stim_fb/posf.jpg,stim_01/a.jpg,stim_01/b.jpg,2,1,j,3,53,233,14,j,1,0.599882241929,01,01,60.0230189743,PLT_learning_01,N,2014_Feb_18_1511,P13,
stim_fb/ques.jpg,stim_fb/negf.jpg,stim_fb/posf.jpg,stim_01/c.jpg,stim_01/d.jpg,2,2,j,3,54,234,35,j,1,0.633184937012,01,01,60.0230189743,PLT_learning_01,N,2014_Feb_18_1511,P13,
stim_fb/ques.jpg,stim_fb/negf.jpg,stim_fb/posf.jpg,stim_01/c.jpg,stim_01/d.jpg,2,2,j,3,55,235,36,j,1,0.583175137122,01,01,60.0230189743,PLT_learning_01,N,2014_Feb_18_1511,P13,
stim_fb/ques.jpg,stim_fb/negf.jpg,stim_fb/posf.jpg,stim_01/d.jpg,stim_01/c.jpg,1,2,f,3,56,236,26,f,1,0.733128248929,01,01,60.0230189743,PLT_learning_01,N,2014_Feb_18_1511,P13,
stim_fb/ques.jpg,stim_fb/negf.jpg,stim_fb/posf.jpg,stim_01/b.jpg,stim_01/a.jpg,1,1,f,3,57,237,1,f,1,0.966415037424,01,01,60.0230189743,PLT_learning_01,N,2014_Feb_18_1511,P13,
stim_fb/ques.jpg,stim_fb/negf.jpg,stim_fb/posf.jpg,stim_01/b.jpg,stim_01/a.jpg,1,1,f,3,58,238,0,j,0,0.599835063514,01,01,60.0230189743,PLT_learning_01,N,2014_Feb_18_1511,P13,
stim_fb/ques.jpg,stim_fb/negf.jpg,stim_fb/posf.jpg,stim_01/c.jpg,stim_01/d.jpg,2,2,j,3,59,239,30,j,1,0.733134823291,01,01,60.0230189743,PLT_learning_01,N,2014_Feb_18_1511,P13,
stim_fb/ques.jpg,stim_fb/negf.jpg,stim_fb/posf.jpg,stim_01/b.jpg,stim_01/a.jpg,1,1,f,4,0,240,4,f,1,0.866437118378,01,01,60.0230189743,PLT_learning_01,N,2014_Feb_18_1511,P13,
stim_fb/ques.jpg,stim_fb/negf.jpg,stim_fb/posf.jpg,stim_01/b.jpg,stim_01/a.jpg,1,1,f,4,1,241,5,f,1,0.749804860847,01,01,60.0230189743,PLT_learning_01,N,2014_Feb_18_1511,P13,
stim_fb/ques.jpg,stim_fb/negf.jpg,stim_fb/posf.jpg,stim_01/c.jpg,stim_01/d.jpg,2,2,j,4,2,242,36,j,1,0.866436880787,01,01,60.0230189743,PLT_learning_01,N,2014_Feb_18_1511,P13,
stim_fb/ques.jpg,stim_fb/negf.jpg,stim_fb/posf.jpg,stim_01/c.jpg,stim_01/d.jpg,2,2,j,4,3,243,30,j,1,0.633181039311,01,01,60.0230189743,PLT_learning_01,N,2014_Feb_18_1511,P13,
stim_fb/ques.jpg,stim_fb/posf.jpg,stim_fb/negf.jpg,stim_01/d.jpg,stim_01/c.jpg,1,2,f,4,4,244,27,f,1,0.783124785811,01,01,60.0230189743,PLT_learning_01,N,2014_Feb_18_1511,P13,
stim_fb/ques.jpg,stim_fb/posf.jpg,stim_fb/negf.jpg,stim_01/f.jpg,stim_01/e.jpg,1,3,f,4,5,245,49,f,1,1.03303390413,01,01,60.0230189743,PLT_learning_01,N,2014_Feb_18_1511,P13,
stim_fb/ques.jpg,stim_fb/posf.jpg,stim_fb/negf.jpg,stim_01/a.jpg,stim_01/b.jpg,2,1,j,4,6,246,19,j,1,0.649839663462,01,01,60.0230189743,PLT_learning_01,N,2014_Feb_18_1511,P13,
stim_fb/ques.jpg,stim_fb/negf.jpg,stim_fb/posf.jpg,stim_01/a.jpg,stim_01/b.jpg,2,1,j,4,7,247,16,j,1,0.599832642489,01,01,60.0230189743,PLT_learning_01,N,2014_Feb_18_1511,P13,
stim_fb/ques.jpg,stim_fb/negf.jpg,stim_fb/posf.jpg,stim_01/b.jpg,stim_01/a.jpg,1,1,f,4,8,248,1,f,1,0.649836048466,01,01,60.0230189743,PLT_learning_01,N,2014_Feb_18_1511,P13,
stim_fb/ques.jpg,stim_fb/negf.jpg,stim_fb/posf.jpg,stim_01/c.jpg,stim_01/d.jpg,2,2,j,4,9,249,34,j,1,0.916375890498,01,01,60.0230189743,PLT_learning_01,N,2014_Feb_18_1511,P13,
stim_fb/ques.jpg,stim_fb/negf.jpg,stim_fb/posf.jpg,stim_01/d.jpg,stim_01/c.jpg,1,2,f,4,10,250,26,f,1,0.816439637147,01,01,60.0230189743,PLT_learning_01,N,2014_Feb_18_1511,P13,
stim_fb/ques.jpg,stim_fb/negf.jpg,stim_fb/posf.jpg,stim_01/c.jpg,stim_01/d.jpg,2,2,j,4,11,251,32,j,1,0.616512679932,01,01,60.0230189743,PLT_learning_01,N,2014_Feb_18_1511,P13,
stim_fb/ques.jpg,stim_fb/negf.jpg,stim_fb/posf.jpg,stim_01/a.jpg,stim_01/b.jpg,2,1,j,4,12,252,13,j,1,0.84977250031,01,01,60.0230189743,PLT_learning_01,N,2014_Feb_18_1511,P13,
stim_fb/ques.jpg,stim_fb/negf.jpg,stim_fb/posf.jpg,stim_01/f.jpg,stim_01/e.jpg,1,3,f,4,13,253,40,j,0,1.13302143209,01,01,60.0230189743,PLT_learning_01,N,2014_Feb_18_1511,P13,
stim_fb/ques.jpg,stim_fb/negf.jpg,stim_fb/posf.jpg,stim_01/b.jpg,stim_01/a.jpg,1,1,f,4,14,254,3,f,1,0.883072491664,01,01,60.0230189743,PLT_learning_01,N,2014_Feb_18_1511,P13,
stim_fb/ques.jpg,stim_fb/posf.jpg,stim_fb/negf.jpg,stim_01/b.jpg,stim_01/a.jpg,1,1,f,4,15,255,8,f,1,0.666497168829,01,01,60.0230189743,PLT_learning_01,N,2014_Feb_18_1511,P13,
stim_fb/ques.jpg,stim_fb/negf.jpg,stim_fb/posf.jpg,stim_01/d.jpg,stim_01/c.jpg,1,2,f,4,16,256,25,f,1,0.849736178915,01,01,60.0230189743,PLT_learning_01,N,2014_Feb_18_1511,P13,
stim_fb/ques.jpg,stim_fb/negf.jpg,stim_fb/posf.jpg,stim_01/e.jpg,stim_01/f.jpg,2,3,j,4,17,257,52,j,1,0.899748441935,01,01,60.0230189743,PLT_learning_01,N,2014_Feb_18_1511,P13,
stim_fb/ques.jpg,stim_fb/posf.jpg,stim_fb/negf.jpg,stim_01/e.jpg,stim_01/f.jpg,2,3,j,4,18,258,56,j,1,1.1330088187,01,01,60.0230189743,PLT_learning_01,N,2014_Feb_18_1511,P13,
stim_fb/ques.jpg,stim_fb/posf.jpg,stim_fb/negf.jpg,stim_01/c.jpg,stim_01/d.jpg,2,2,j,4,19,259,39,j,1,0.94969341248,01,01,60.0230189743,PLT_learning_01,N,2014_Feb_18_1511,P13,
stim_fb/ques.jpg,stim_fb/posf.jpg,stim_fb/negf.jpg,stim_01/f.jpg,stim_01/e.jpg,1,3,f,4,20,260,47,f,1,1.48289794927,01,01,60.0230189743,PLT_learning_01,N,2014_Feb_18_1511,P13,
stim_fb/ques.jpg,stim_fb/negf.jpg,stim_fb/posf.jpg,stim_01/b.jpg,stim_01/a.jpg,1,1,f,4,21,261,0,f,1,0.816416560715,01,01,60.0230189743,PLT_learning_01,N,2014_Feb_18_1511,P13,
stim_fb/ques.jpg,stim_fb/negf.jpg,stim_fb/posf.jpg,stim_01/e.jpg,stim_01/f.jpg,2,3,j,4,22,262,50,j,1,1.08302411326,01,01,60.0230189743,PLT_learning_01,N,2014_Feb_18_1511,P13,
stim_fb/ques.jpg,stim_fb/negf.jpg,stim_fb/posf.jpg,stim_01/d.jpg,stim_01/c.jpg,1,2,f,4,23,263,24,f,1,0.599845285956,01,01,60.0230189743,PLT_learning_01,N,2014_Feb_18_1511,P13,
stim_fb/ques.jpg,stim_fb/negf.jpg,stim_fb/posf.jpg,stim_01/c.jpg,stim_01/d.jpg,2,2,j,4,24,264,31,j,1,1.21631594832,01,01,60.0230189743,PLT_learning_01,N,2014_Feb_18_1511,P13,
stim_fb/ques.jpg,stim_fb/negf.jpg,stim_fb/posf.jpg,stim_01/b.jpg,stim_01/a.jpg,1,1,f,4,25,265,6,f,1,0.849826400454,01,01,60.0230189743,PLT_learning_01,N,2014_Feb_18_1511,P13,
stim_fb/ques.jpg,stim_fb/posf.jpg,stim_fb/negf.jpg,stim_01/c.jpg,stim_01/d.jpg,2,2,j,4,26,266,38,f,0,0.883098178592,01,01,60.0230189743,PLT_learning_01,N,2014_Feb_18_1511,P13,
stim_fb/ques.jpg,stim_fb/posf.jpg,stim_fb/negf.jpg,stim_01/d.jpg,stim_01/c.jpg,1,2,f,4,27,267,28,f,1,0.89976833344,01,01,60.0230189743,PLT_learning_01,N,2014_Feb_18_1511,P13,
stim_fb/ques.jpg,stim_fb/negf.jpg,stim_fb/posf.jpg,stim_01/f.jpg,stim_01/e.jpg,1,3,f,4,28,268,42,f,1,1.46626419702,01,01,60.0230189743,PLT_learning_01,N,2014_Feb_18_1511,P13,
stim_fb/ques.jpg,stim_fb/posf.jpg,stim_fb/negf.jpg,stim_01/d.jpg,stim_01/c.jpg,1,2,f,4,29,269,29,f,1,0.866432778578,01,01,60.0230189743,PLT_learning_01,N,2014_Feb_18_1511,P13,
stim_fb/ques.jpg,stim_fb/negf.jpg,stim_fb/posf.jpg,stim_01/f.jpg,stim_01/e.jpg,1,3,f,4,30,270,41,f,1,0.766463045906,01,01,60.0230189743,PLT_learning_01,N,2014_Feb_18_1511,P13,
stim_fb/ques.jpg,stim_fb/negf.jpg,stim_fb/posf.jpg,stim_01/a.jpg,stim_01/b.jpg,2,1,j,4,31,271,17,j,1,0.866461006831,01,01,60.0230189743,PLT_learning_01,N,2014_Feb_18_1511,P13,
stim_fb/ques.jpg,stim_fb/posf.jpg,stim_fb/negf.jpg,stim_01/e.jpg,stim_01/f.jpg,2,3,j,4,32,272,57,j,1,0.983040774728,01,01,60.0230189743,PLT_learning_01,N,2014_Feb_18_1511,P13,
stim_fb/ques.jpg,stim_fb/negf.jpg,stim_fb/posf.jpg,stim_01/a.jpg,stim_01/b.jpg,2,1,j,4,33,273,14,j,1,0.833095596666,01,01,60.0230189743,PLT_learning_01,N,2014_Feb_18_1511,P13,
stim_fb/ques.jpg,stim_fb/negf.jpg,stim_fb/posf.jpg,stim_01/b.jpg,stim_01/a.jpg,1,1,f,4,34,274,7,f,1,0.633208864562,01,01,60.0230189743,PLT_learning_01,N,2014_Feb_18_1511,P13,
stim_fb/ques.jpg,stim_fb/negf.jpg,stim_fb/posf.jpg,stim_01/f.jpg,stim_01/e.jpg,1,3,f,4,35,275,44,f,1,1.09969256888,01,01,60.0230189743,PLT_learning_01,N,2014_Feb_18_1511,P13,
stim_fb/ques.jpg,stim_fb/posf.jpg,stim_fb/negf.jpg,stim_01/c.jpg,stim_01/d.jpg,2,2,j,4,36,276,37,j,1,0.833103665748,01,01,60.0230189743,PLT_learning_01,N,2014_Feb_18_1511,P13,
stim_fb/ques.jpg,stim_fb/negf.jpg,stim_fb/posf.jpg,stim_01/a.jpg,stim_01/b.jpg,2,1,j,4,37,277,10,j,1,0.683151868212,01,01,60.0230189743,PLT_learning_01,N,2014_Feb_18_1511,P13,
stim_fb/ques.jpg,stim_fb/posf.jpg,stim_fb/negf.jpg,stim_01/f.jpg,stim_01/e.jpg,1,3,f,4,38,278,48,f,1,0.966401897723,01,01,60.0230189743,PLT_learning_01,N,2014_Feb_18_1511,P13,
stim_fb/ques.jpg,stim_fb/negf.jpg,stim_fb/posf.jpg,stim_01/a.jpg,stim_01/b.jpg,2,1,j,4,39,279,12,j,1,0.649827883144,01,01,60.0230189743,PLT_learning_01,N,2014_Feb_18_1511,P13,
stim_fb/ques.jpg,stim_fb/negf.jpg,stim_fb/posf.jpg,stim_01/e.jpg,stim_01/f.jpg,2,3,j,4,40,280,55,j,1,1.19965796777,01,01,60.0230189743,PLT_learning_01,N,2014_Feb_18_1511,P13,
stim_fb/ques.jpg,stim_fb/negf.jpg,stim_fb/posf.jpg,stim_01/c.jpg,stim_01/d.jpg,2,2,j,4,41,281,35,j,1,0.799775379977,01,01,60.0230189743,PLT_learning_01,N,2014_Feb_18_1511,P13,
stim_fb/ques.jpg,stim_fb/posf.jpg,stim_fb/negf.jpg,stim_01/e.jpg,stim_01/f.jpg,2,3,j,4,42,282,59,j,1,0.649842502528,01,01,60.0230189743,PLT_learning_01,N,2014_Feb_18_1511,P13,
stim_fb/ques.jpg,stim_fb/posf.jpg,stim_fb/negf.jpg,stim_01/b.jpg,stim_01/a.jpg,1,1,f,4,43,283,9,f,1,0.916394293297,01,01,60.0230189743,PLT_learning_01,N,2014_Feb_18_1511,P13,
stim_fb/ques.jpg,stim_fb/posf.jpg,stim_fb/negf.jpg,stim_01/e.jpg,stim_01/f.jpg,2,3,j,4,44,284,58,j,1,0.683163371842,01,01,60.0230189743,PLT_learning_01,N,2014_Feb_18_1511,P13,
stim_fb/ques.jpg,stim_fb/negf.jpg,stim_fb/posf.jpg,stim_01/e.jpg,stim_01/f.jpg,2,3,j,4,45,285,53,j,1,0.783075066071,01,01,60.0230189743,PLT_learning_01,N,2014_Feb_18_1511,P13,
stim_fb/ques.jpg,stim_fb/negf.jpg,stim_fb/posf.jpg,stim_01/d.jpg,stim_01/c.jpg,1,2,f,4,46,286,20,f,1,1.13303166055,01,01,60.0230189743,PLT_learning_01,N,2014_Feb_18_1511,P13,
stim_fb/ques.jpg,stim_fb/negf.jpg,stim_fb/posf.jpg,stim_01/d.jpg,stim_01/c.jpg,1,2,f,4,47,287,23,f,1,0.899765325955,01,01,60.0230189743,PLT_learning_01,N,2014_Feb_18_1511,P13,
stim_fb/ques.jpg,stim_fb/posf.jpg,stim_fb/negf.jpg,stim_01/a.jpg,stim_01/b.jpg,2,1,j,4,48,288,18,j,1,0.83302563956,01,01,60.0230189743,PLT_learning_01,N,2014_Feb_18_1511,P13,
stim_fb/ques.jpg,stim_fb/negf.jpg,stim_fb/posf.jpg,stim_01/f.jpg,stim_01/e.jpg,1,3,f,4,49,289,43,f,1,0.716479546471,01,01,60.0230189743,PLT_learning_01,N,2014_Feb_18_1511,P13,
stim_fb/ques.jpg,stim_fb/negf.jpg,stim_fb/posf.jpg,stim_01/e.jpg,stim_01/f.jpg,2,3,j,4,50,290,54,j,1,1.03303471013,01,01,60.0230189743,PLT_learning_01,N,2014_Feb_18_1511,P13,
stim_fb/ques.jpg,stim_fb/negf.jpg,stim_fb/posf.jpg,stim_01/d.jpg,stim_01/c.jpg,1,2,f,4,51,291,21,f,1,1.21638746931,01,01,60.0230189743,PLT_learning_01,N,2014_Feb_18_1511,P13,
stim_fb/ques.jpg,stim_fb/negf.jpg,stim_fb/posf.jpg,stim_01/b.jpg,stim_01/a.jpg,1,1,f,4,52,292,2,f,1,0.733149773499,01,01,60.0230189743,PLT_learning_01,N,2014_Feb_18_1511,P13,
stim_fb/ques.jpg,stim_fb/negf.jpg,stim_fb/posf.jpg,stim_01/a.jpg,stim_01/b.jpg,2,1,j,4,53,293,15,j,1,0.933086932102,01,01,60.0230189743,PLT_learning_01,N,2014_Feb_18_1511,P13,
stim_fb/ques.jpg,stim_fb/negf.jpg,stim_fb/posf.jpg,stim_01/f.jpg,stim_01/e.jpg,1,3,f,4,54,294,45,f,1,1.11635054943,01,01,60.0230189743,PLT_learning_01,N,2014_Feb_18_1511,P13,
stim_fb/ques.jpg,stim_fb/negf.jpg,stim_fb/posf.jpg,stim_01/d.jpg,stim_01/c.jpg,1,2,f,4,55,295,22,f,1,0.783089315534,01,01,60.0230189743,PLT_learning_01,N,2014_Feb_18_1511,P13,
stim_fb/ques.jpg,stim_fb/negf.jpg,stim_fb/posf.jpg,stim_01/a.jpg,stim_01/b.jpg,2,1,j,4,56,296,11,j,1,1.08300837209,01,01,60.0230189743,PLT_learning_01,N,2014_Feb_18_1511,P13,
stim_fb/ques.jpg,stim_fb/negf.jpg,stim_fb/posf.jpg,stim_01/c.jpg,stim_01/d.jpg,2,2,j,4,57,297,33,j,1,1.23293291579,01,01,60.0230189743,PLT_learning_01,N,2014_Feb_18_1511,P13,
stim_fb/ques.jpg,stim_fb/negf.jpg,stim_fb/posf.jpg,stim_01/e.jpg,stim_01/f.jpg,2,3,j,4,58,298,51,j,1,1.0163784228,01,01,60.0230189743,PLT_learning_01,N,2014_Feb_18_1511,P13,
stim_fb/ques.jpg,stim_fb/posf.jpg,stim_fb/negf.jpg,stim_01/f.jpg,stim_01/e.jpg,1,3,f,4,59,299,46,f,1,0.899779548351,01,01,60.0230189743,PLT_learning_01,N,2014_Feb_18_1511,P13,
stim_fb/ques.jpg,stim_fb/negf.jpg,stim_fb/posf.jpg,stim_01/f.jpg,stim_01/e.jpg,1,3,f,5,0,300,43,f,1,1.16629162228,01,01,60.0230189743,PLT_learning_01,N,2014_Feb_18_1511,P13,
stim_fb/ques.jpg,stim_fb/posf.jpg,stim_fb/negf.jpg,stim_01/e.jpg,stim_01/f.jpg,2,3,j,5,1,301,57,j,1,0.86644364462,01,01,60.0230189743,PLT_learning_01,N,2014_Feb_18_1511,P13,
stim_fb/ques.jpg,stim_fb/negf.jpg,stim_fb/posf.jpg,stim_01/b.jpg,stim_01/a.jpg,1,1,f,5,2,302,7,f,1,0.733137860851,01,01,60.0230189743,PLT_learning_01,N,2014_Feb_18_1511,P13,
stim_fb/ques.jpg,stim_fb/negf.jpg,stim_fb/posf.jpg,stim_01/b.jpg,stim_01/a.jpg,1,1,f,5,3,303,0,f,1,1.39962165539,01,01,60.0230189743,PLT_learning_01,N,2014_Feb_18_1511,P13,
stim_fb/ques.jpg,stim_fb/negf.jpg,stim_fb/posf.jpg,stim_01/d.jpg,stim_01/c.jpg,1,2,f,5,4,304,21,f,1,1.13326006398,01,01,60.0230189743,PLT_learning_01,N,2014_Feb_18_1511,P13,
stim_fb/ques.jpg,stim_fb/negf.jpg,stim_fb/posf.jpg,stim_01/f.jpg,stim_01/e.jpg,1,3,f,5,5,305,45,f,1,1.04970180637,01,01,60.0230189743,PLT_learning_01,N,2014_Feb_18_1511,P13,
stim_fb/ques.jpg,stim_fb/negf.jpg,stim_fb/posf.jpg,stim_01/d.jpg,stim_01/c.jpg,1,2,f,5,6,306,24,f,1,1.01638072653,01,01,60.0230189743,PLT_learning_01,N,2014_Feb_18_1511,P13,
stim_fb/ques.jpg,stim_fb/posf.jpg,stim_fb/negf.jpg,stim_01/d.jpg,stim_01/c.jpg,1,2,f,5,7,307,27,f,1,0.616525582042,01,01,60.0230189743,PLT_learning_01,N,2014_Feb_18_1511,P13,
stim_fb/ques.jpg,stim_fb/negf.jpg,stim_fb/posf.jpg,stim_01/a.jpg,stim_01/b.jpg,2,1,j,5,8,308,15,j,1,0.833088086976,01,01,60.0230189743,PLT_learning_01,N,2014_Feb_18_1511,P13,
stim_fb/ques.jpg,stim_fb/negf.jpg,stim_fb/posf.jpg,stim_01/e.jpg,stim_01/f.jpg,2,3,j,5,9,309,50,j,1,1.61619842784,01,01,60.0230189743,PLT_learning_01,N,2014_Feb_18_1511,P13,
stim_fb/ques.jpg,stim_fb/negf.jpg,stim_fb/posf.jpg,stim_01/e.jpg,stim_01/f.jpg,2,3,j,5,10,310,51,j,1,0.61651265888,01,01,60.0230189743,PLT_learning_01,N,2014_Feb_18_1511,P13,
stim_fb/ques.jpg,stim_fb/negf.jpg,stim_fb/posf.jpg,stim_01/c.jpg,stim_01/d.jpg,2,2,j,5,11,311,33,j,1,0.749789648989,01,01,60.0230189743,PLT_learning_01,N,2014_Feb_18_1511,P13,
stim_fb/ques.jpg,stim_fb/negf.jpg,stim_fb/posf.jpg,stim_01/a.jpg,stim_01/b.jpg,2,1,j,5,12,312,14,j,1,0.816441652162,01,01,60.0230189743,PLT_learning_01,N,2014_Feb_18_1511,P13,
stim_fb/ques.jpg,stim_fb/negf.jpg,stim_fb/posf.jpg,stim_01/d.jpg,stim_01/c.jpg,1,2,f,5,13,313,20,f,1,0.749795468472,01,01,60.0230189743,PLT_learning_01,N,2014_Feb_18_1511,P13,
stim_fb/ques.jpg,stim_fb/posf.jpg,stim_fb/negf.jpg,stim_01/a.jpg,stim_01/b.jpg,2,1,j,5,14,314,19,j,1,0.866426480904,01,01,60.0230189743,PLT_learning_01,N,2014_Feb_18_1511,P13,
stim_fb/ques.jpg,stim_fb/negf.jpg,stim_fb/posf.jpg,stim_01/a.jpg,stim_01/b.jpg,2,1,j,5,15,315,17,j,1,0.499875321707,01,01,60.0230189743,PLT_learning_01,N,2014_Feb_18_1511,P13,
stim_fb/ques.jpg,stim_fb/negf.jpg,stim_fb/posf.jpg,stim_01/e.jpg,stim_01/f.jpg,2,3,j,5,16,316,52,j,1,0.583264994756,01,01,60.0230189743,PLT_learning_01,N,2014_Feb_18_1511,P13,
stim_fb/ques.jpg,stim_fb/negf.jpg,stim_fb/posf.jpg,stim_01/c.jpg,stim_01/d.jpg,2,2,j,5,17,317,32,f,0,1.19952177081,01,01,60.0230189743,PLT_learning_01,N,2014_Feb_18_1511,P13,
stim_fb/ques.jpg,stim_fb/negf.jpg,stim_fb/posf.jpg,stim_01/b.jpg,stim_01/a.jpg,1,1,f,5,18,318,4,f,1,0.766460919614,01,01,60.0230189743,PLT_learning_01,N,2014_Feb_18_1511,P13,
stim_fb/ques.jpg,stim_fb/posf.jpg,stim_fb/negf.jpg,stim_01/c.jpg,stim_01/d.jpg,2,2,j,5,19,319,39,j,1,0.649836382296,01,01,60.0230189743,PLT_learning_01,N,2014_Feb_18_1511,P13,
stim_fb/ques.jpg,stim_fb/posf.jpg,stim_fb/negf.jpg,stim_01/b.jpg,stim_01/a.jpg,1,1,f,5,20,320,8,f,1,0.549875738243,01,01,60.0230189743,PLT_learning_01,N,2014_Feb_18_1511,P13,
stim_fb/ques.jpg,stim_fb/posf.jpg,stim_fb/negf.jpg,stim_01/f.jpg,stim_01/e.jpg,1,3,f,5,21,321,49,f,1,1.13300889689,01,01,60.0230189743,PLT_learning_01,N,2014_Feb_18_1511,P13,
stim_fb/ques.jpg,stim_fb/negf.jpg,stim_fb/posf.jpg,stim_01/c.jpg,stim_01/d.jpg,2,2,j,5,22,322,36,j,1,1.08303073574,01,01,60.0230189743,PLT_learning_01,N,2014_Feb_18_1511,P13,
stim_fb/ques.jpg,stim_fb/negf.jpg,stim_fb/posf.jpg,stim_01/c.jpg,stim_01/d.jpg,2,2,j,5,23,323,35,j,1,0.68314578407,01,01,60.0230189743,PLT_learning_01,N,2014_Feb_18_1511,P13,
stim_fb/ques.jpg,stim_fb/negf.jpg,stim_fb/posf.jpg,stim_01/a.jpg,stim_01/b.jpg,2,1,j,5,24,324,13,j,1,0.866431704905,01,01,60.0230189743,PLT_learning_01,N,2014_Feb_18_1511,P13,
stim_fb/ques.jpg,stim_fb/posf.jpg,stim_fb/negf.jpg,stim_01/c.jpg,stim_01/d.jpg,2,2,j,5,25,325,37,j,1,0.666508004797,01,01,60.0230189743,PLT_learning_01,N,2014_Feb_18_1511,P13,
stim_fb/ques.jpg,stim_fb/negf.jpg,stim_fb/posf.jpg,stim_01/b.jpg,stim_01/a.jpg,1,1,f,5,26,326,1,f,1,1.03303541689,01,01,60.0230189743,PLT_learning_01,N,2014_Feb_18_1511,P13,
stim_fb/ques.jpg,stim_fb/negf.jpg,stim_fb/posf.jpg,stim_01/d.jpg,stim_01/c.jpg,1,2,f,5,27,327,22,f,1,0.99973805709,01,01,60.0230189743,PLT_learning_01,N,2014_Feb_18_1511,P13,
stim_fb/ques.jpg,stim_fb/negf.jpg,stim_fb/posf.jpg,stim_01/a.jpg,stim_01/b.jpg,2,1,j,5,28,328,10,j,1,0.58318651143,01,01,60.0230189743,PLT_learning_01,N,2014_Feb_18_1511,P13,
stim_fb/ques.jpg,stim_fb/negf.jpg,stim_fb/posf.jpg,stim_01/f.jpg,stim_01/e.jpg,1,3,f,5,29,329,42,f,1,0.79978378289,01,01,60.0230189743,PLT_learning_01,N,2014_Feb_18_1511,P13,
stim_fb/ques.jpg,stim_fb/negf.jpg,stim_fb/posf.jpg,stim_01/d.jpg,stim_01/c.jpg,1,2,f,5,30,330,23,f,1,0.899749241926,01,01,60.0230189743,PLT_learning_01,N,2014_Feb_18_1511,P13,
stim_fb/ques.jpg,stim_fb/negf.jpg,stim_fb/posf.jpg,stim_01/b.jpg,stim_01/a.jpg,1,1,f,5,31,331,6,f,1,0.766458236937,01,01,60.0230189743,PLT_learning_01,N,2014_Feb_18_1511,P13,
stim_fb/ques.jpg,stim_fb/posf.jpg,stim_fb/negf.jpg,stim_01/a.jpg,stim_01/b.jpg,2,1,j,5,32,332,18,j,1,0.966388231712,01,01,60.0230189743,PLT_learning_01,N,2014_Feb_18_1511,P13,
stim_fb/ques.jpg,stim_fb/negf.jpg,stim_fb/posf.jpg,stim_01/a.jpg,stim_01/b.jpg,2,1,j,5,33,333,16,j,1,0.849801215776,01,01,60.0230189743,PLT_learning_01,N,2014_Feb_18_1511,P13,
stim_fb/ques.jpg,stim_fb/posf.jpg,stim_fb/negf.jpg,stim_01/b.jpg,stim_01/a.jpg,1,1,f,5,34,334,9,f,1,0.599811842724,01,01,60.0230189743,PLT_learning_01,N,2014_Feb_18_1511,P13,
stim_fb/ques.jpg,stim_fb/negf.jpg,stim_fb/posf.jpg,stim_01/e.jpg,stim_01/f.jpg,2,3,j,5,35,335,54,j,1,0.81643545975,01,01,60.0230189743,PLT_learning_01,N,2014_Feb_18_1511,P13,
stim_fb/ques.jpg,stim_fb/posf.jpg,stim_fb/negf.jpg,stim_01/f.jpg,stim_01/e.jpg,1,3,f,5,36,336,47,f,1,1.11634326229,01,01,60.0230189743,PLT_learning_01,N,2014_Feb_18_1511,P13,
stim_fb/ques.jpg,stim_fb/negf.jpg,stim_fb/posf.jpg,stim_01/b.jpg,stim_01/a.jpg,1,1,f,5,37,337,5,f,1,0.54986946463,01,01,60.0230189743,PLT_learning_01,N,2014_Feb_18_1511,P13,
stim_fb/ques.jpg,stim_fb/posf.jpg,stim_fb/negf.jpg,stim_01/e.jpg,stim_01/f.jpg,2,3,j,5,38,338,56,j,1,0.633176482972,01,01,60.0230189743,PLT_learning_01,N,2014_Feb_18_1511,P13,
stim_fb/ques.jpg,stim_fb/posf.jpg,stim_fb/negf.jpg,stim_01/c.jpg,stim_01/d.jpg,2,2,j,5,39,339,38,j,1,0.733136351094,01,01,60.0230189743,PLT_learning_01,N,2014_Feb_18_1511,P13,
stim_fb/ques.jpg,stim_fb/posf.jpg,stim_fb/negf.jpg,stim_01/d.jpg,stim_01/c.jpg,1,2,f,5,40,340,29,f,1,0.633175556667,01,01,60.0230189743,PLT_learning_01,N,2014_Feb_18_1511,P13,
stim_fb/ques.jpg,stim_fb/negf.jpg,stim_fb/posf.jpg,stim_01/a.jpg,stim_01/b.jpg,2,1,j,5,41,341,11,j,1,0.799793358721,01,01,60.0230189743,PLT_learning_01,N,2014_Feb_18_1511,P13,
stim_fb/ques.jpg,stim_fb/negf.jpg,stim_fb/posf.jpg,stim_01/e.jpg,stim_01/f.jpg,2,3,j,5,42,342,53,j,1,0.999740727736,01,01,60.0230189743,PLT_learning_01,N,2014_Feb_18_1511,P13,
stim_fb/ques.jpg,stim_fb/negf.jpg,stim_fb/posf.jpg,stim_01/f.jpg,stim_01/e.jpg,1,3,f,5,43,343,41,f,1,0.916411673553,01,01,60.0230189743,PLT_learning_01,N,2014_Feb_18_1511,P13,
stim_fb/ques.jpg,stim_fb/negf.jpg,stim_fb/posf.jpg,stim_01/d.jpg,stim_01/c.jpg,1,2,f,5,44,344,26,f,1,0.933069479668,01,01,60.0230189743,PLT_learning_01,N,2014_Feb_18_1511,P13,
stim_fb/ques.jpg,stim_fb/negf.jpg,stim_fb/posf.jpg,stim_01/e.jpg,stim_01/f.jpg,2,3,j,5,45,345,55,j,1,0.99969071627,01,01,60.0230189743,PLT_learning_01,N,2014_Feb_18_1511,P13,
stim_fb/ques.jpg,stim_fb/negf.jpg,stim_fb/posf.jpg,stim_01/d.jpg,stim_01/c.jpg,1,2,f,5,46,346,25,f,1,0.683150526874,01,01,60.0230189743,PLT_learning_01,N,2014_Feb_18_1511,P13,
stim_fb/ques.jpg,stim_fb/posf.jpg,stim_fb/negf.jpg,stim_01/e.jpg,stim_01/f.jpg,2,3,j,5,47,347,59,j,1,1.06642635158,01,01,60.0230189743,PLT_learning_01,N,2014_Feb_18_1511,P13,
stim_fb/ques.jpg,stim_fb/posf.jpg,stim_fb/negf.jpg,stim_01/f.jpg,stim_01/e.jpg,1,3,f,5,48,348,46,f,1,0.64985057161,01,01,60.0230189743,PLT_learning_01,N,2014_Feb_18_1511,P13,
stim_fb/ques.jpg,stim_fb/posf.jpg,stim_fb/negf.jpg,stim_01/e.jpg,stim_01/f.jpg,2,3,j,5,49,349,58,j,1,0.683185398661,01,01,60.0230189743,PLT_learning_01,N,2014_Feb_18_1511,P13,
stim_fb/ques.jpg,stim_fb/negf.jpg,stim_fb/posf.jpg,stim_01/b.jpg,stim_01/a.jpg,1,1,f,5,50,350,2,f,1,0.699820627587,01,01,60.0230189743,PLT_learning_01,N,2014_Feb_18_1511,P13,
stim_fb/ques.jpg,stim_fb/negf.jpg,stim_fb/posf.jpg,stim_01/b.jpg,stim_01/a.jpg,1,1,f,5,51,351,3,f,1,0.566501929678,01,01,60.0230189743,PLT_learning_01,N,2014_Feb_18_1511,P13,
stim_fb/ques.jpg,stim_fb/negf.jpg,stim_fb/posf.jpg,stim_01/f.jpg,stim_01/e.jpg,1,3,f,5,52,352,44,f,1,0.666495944783,01,01,60.0230189743,PLT_learning_01,N,2014_Feb_18_1511,P13,
stim_fb/ques.jpg,stim_fb/posf.jpg,stim_fb/negf.jpg,stim_01/d.jpg,stim_01/c.jpg,1,2,f,5,53,353,28,f,1,0.516495801927,01,01,60.0230189743,PLT_learning_01,N,2014_Feb_18_1511,P13,
stim_fb/ques.jpg,stim_fb/negf.jpg,stim_fb/posf.jpg,stim_01/f.jpg,stim_01/e.jpg,1,3,f,5,54,354,40,f,1,0.583105736402,01,01,60.0230189743,PLT_learning_01,N,2014_Feb_18_1511,P13,
stim_fb/ques.jpg,stim_fb/negf.jpg,stim_fb/posf.jpg,stim_01/c.jpg,stim_01/d.jpg,2,2,j,5,55,355,30,j,1,0.783096347034,01,01,60.0230189743,PLT_learning_01,N,2014_Feb_18_1511,P13,
stim_fb/ques.jpg,stim_fb/negf.jpg,stim_fb/posf.jpg,stim_01/a.jpg,stim_01/b.jpg,2,1,j,5,56,356,12,j,1,1.04969811919,01,01,60.0230189743,PLT_learning_01,N,2014_Feb_18_1511,P13,
stim_fb/ques.jpg,stim_fb/posf.jpg,stim_fb/negf.jpg,stim_01/f.jpg,stim_01/e.jpg,1,3,f,5,57,357,48,f,1,1.06637828897,01,01,60.0230189743,PLT_learning_01,N,2014_Feb_18_1511,P13,
stim_fb/ques.jpg,stim_fb/negf.jpg,stim_fb/posf.jpg,stim_01/c.jpg,stim_01/d.jpg,2,2,j,5,58,358,34,j,1,0.716564886862,01,01,60.0230189743,PLT_learning_01,N,2014_Feb_18_1511,P13,
stim_fb/ques.jpg,stim_fb/negf.jpg,stim_fb/posf.jpg,stim_01/c.jpg,stim_01/d.jpg,2,2,j,5,59,359,31,j,1,0.683176839359,01,01,60.0230189743,PLT_learning_01,N,2014_Feb_18_1511,P13,
