Fb3,Fb2,Fb1,Symbol2,Symbol1,PosCond,Pair,Correct,trials.thisRepN,trials.thisTrialN,trials.thisN,trials.thisIndex,Response.keys,Response.corr,Response.rt,Version,Session Number,frameRate,expName,StimCondition,date,Participant,
stim_fb/ques.jpg,stim_fb/negf.jpg,stim_fb/posf.jpg,stim_01/b.jpg,stim_01/a.jpg,1,1,f,0,0,0,5,f,1,1.14968973466,01,01,60.0231086328,PLT_learning_01,N,2014_Feb_20_1619,P14,
stim_fb/ques.jpg,stim_fb/negf.jpg,stim_fb/posf.jpg,stim_01/d.jpg,stim_01/c.jpg,1,2,f,0,1,1,21,f,1,1.08303654258,01,01,60.0231086328,PLT_learning_01,N,2014_Feb_20_1619,P14,
stim_fb/ques.jpg,stim_fb/negf.jpg,stim_fb/posf.jpg,stim_01/b.jpg,stim_01/a.jpg,1,1,f,0,2,2,3,f,1,0.916435918527,01,01,60.0231086328,PLT_learning_01,N,2014_Feb_20_1619,P14,
stim_fb/ques.jpg,stim_fb/negf.jpg,stim_fb/posf.jpg,stim_01/f.jpg,stim_01/e.jpg,1,3,f,0,3,3,45,j,0,1.4662418448,01,01,60.0231086328,PLT_learning_01,N,2014_Feb_20_1619,P14,
stim_fb/ques.jpg,stim_fb/negf.jpg,stim_fb/posf.jpg,stim_01/c.jpg,stim_01/d.jpg,2,2,j,0,4,4,36,j,1,1.21633050879,01,01,60.0231086328,PLT_learning_01,N,2014_Feb_20_1619,P14,
stim_fb/ques.jpg,stim_fb/negf.jpg,stim_fb/posf.jpg,stim_01/e.jpg,stim_01/f.jpg,2,3,j,0,5,5,54,None,0,,01,01,60.0231086328,PLT_learning_01,N,2014_Feb_20_1619,P14,
stim_fb/ques.jpg,stim_fb/negf.jpg,stim_fb/posf.jpg,stim_01/c.jpg,stim_01/d.jpg,2,2,j,0,6,6,32,j,1,1.16638044526,01,01,60.0231086328,PLT_learning_01,N,2014_Feb_20_1619,P14,
stim_fb/ques.jpg,stim_fb/negf.jpg,stim_fb/posf.jpg,stim_01/b.jpg,stim_01/a.jpg,1,1,f,0,7,7,7,f,1,0.99971194803,01,01,60.0231086328,PLT_learning_01,N,2014_Feb_20_1619,P14,
stim_fb/ques.jpg,stim_fb/posf.jpg,stim_fb/negf.jpg,stim_01/a.jpg,stim_01/b.jpg,2,1,j,0,8,8,18,j,1,1.53288612567,01,01,60.0231086328,PLT_learning_01,N,2014_Feb_20_1619,P14,
stim_fb/ques.jpg,stim_fb/negf.jpg,stim_fb/posf.jpg,stim_01/f.jpg,stim_01/e.jpg,1,3,f,0,9,9,43,f,1,1.36627514079,01,01,60.0231086328,PLT_learning_01,N,2014_Feb_20_1619,P14,
stim_fb/ques.jpg,stim_fb/negf.jpg,stim_fb/posf.jpg,stim_01/b.jpg,stim_01/a.jpg,1,1,f,0,10,10,4,f,1,0.899740287667,01,01,60.0231086328,PLT_learning_01,N,2014_Feb_20_1619,P14,
stim_fb/ques.jpg,stim_fb/posf.jpg,stim_fb/negf.jpg,stim_01/b.jpg,stim_01/a.jpg,1,1,f,0,11,11,8,f,1,0.833055540936,01,01,60.0231086328,PLT_learning_01,N,2014_Feb_20_1619,P14,
stim_fb/ques.jpg,stim_fb/negf.jpg,stim_fb/posf.jpg,stim_01/d.jpg,stim_01/c.jpg,1,2,f,0,12,12,25,f,1,1.08302925843,01,01,60.0231086328,PLT_learning_01,N,2014_Feb_20_1619,P14,
stim_fb/ques.jpg,stim_fb/negf.jpg,stim_fb/posf.jpg,stim_01/a.jpg,stim_01/b.jpg,2,1,j,0,13,13,10,j,1,1.38295393869,01,01,60.0231086328,PLT_learning_01,N,2014_Feb_20_1619,P14,
stim_fb/ques.jpg,stim_fb/negf.jpg,stim_fb/posf.jpg,stim_01/d.jpg,stim_01/c.jpg,1,2,f,0,14,14,26,f,1,1.34961896527,01,01,60.0231086328,PLT_learning_01,N,2014_Feb_20_1619,P14,
stim_fb/ques.jpg,stim_fb/negf.jpg,stim_fb/posf.jpg,stim_01/b.jpg,stim_01/a.jpg,1,1,f,0,15,15,6,f,1,0.849657560469,01,01,60.0231086328,PLT_learning_01,N,2014_Feb_20_1619,P14,
stim_fb/ques.jpg,stim_fb/posf.jpg,stim_fb/negf.jpg,stim_01/f.jpg,stim_01/e.jpg,1,3,f,0,16,16,48,f,1,1.54950351952,01,01,60.0231086328,PLT_learning_01,N,2014_Feb_20_1619,P14,
stim_fb/ques.jpg,stim_fb/negf.jpg,stim_fb/posf.jpg,stim_01/f.jpg,stim_01/e.jpg,1,3,f,0,17,17,44,None,0,,01,01,60.0231086328,PLT_learning_01,N,2014_Feb_20_1619,P14,
stim_fb/ques.jpg,stim_fb/posf.jpg,stim_fb/negf.jpg,stim_01/c.jpg,stim_01/d.jpg,2,2,j,0,18,18,39,j,1,0.966397636108,01,01,60.0231086328,PLT_learning_01,N,2014_Feb_20_1619,P14,
stim_fb/ques.jpg,stim_fb/posf.jpg,stim_fb/negf.jpg,stim_01/e.jpg,stim_01/f.jpg,2,3,j,0,19,19,56,f,0,0.916400487214,01,01,60.0231086328,PLT_learning_01,N,2014_Feb_20_1619,P14,
stim_fb/ques.jpg,stim_fb/negf.jpg,stim_fb/posf.jpg,stim_01/b.jpg,stim_01/a.jpg,1,1,f,0,20,20,1,f,1,0.68313684258,01,01,60.0231086328,PLT_learning_01,N,2014_Feb_20_1619,P14,
stim_fb/ques.jpg,stim_fb/negf.jpg,stim_fb/posf.jpg,stim_01/e.jpg,stim_01/f.jpg,2,3,j,0,21,21,50,j,1,1.26626635288,01,01,60.0231086328,PLT_learning_01,N,2014_Feb_20_1619,P14,
stim_fb/ques.jpg,stim_fb/negf.jpg,stim_fb/posf.jpg,stim_01/c.jpg,stim_01/d.jpg,2,2,j,0,22,22,33,j,1,0.91640211427,01,01,60.0231086328,PLT_learning_01,N,2014_Feb_20_1619,P14,
stim_fb/ques.jpg,stim_fb/posf.jpg,stim_fb/negf.jpg,stim_01/e.jpg,stim_01/f.jpg,2,3,j,0,23,23,59,j,1,1.46622331261,01,01,60.0231086328,PLT_learning_01,N,2014_Feb_20_1619,P14,
stim_fb/ques.jpg,stim_fb/negf.jpg,stim_fb/posf.jpg,stim_01/a.jpg,stim_01/b.jpg,2,1,j,0,24,24,13,j,1,1.4162566116,01,01,60.0231086328,PLT_learning_01,N,2014_Feb_20_1619,P14,
stim_fb/ques.jpg,stim_fb/negf.jpg,stim_fb/posf.jpg,stim_01/e.jpg,stim_01/f.jpg,2,3,j,0,25,25,53,None,0,,01,01,60.0231086328,PLT_learning_01,N,2014_Feb_20_1619,P14,
stim_fb/ques.jpg,stim_fb/posf.jpg,stim_fb/negf.jpg,stim_01/c.jpg,stim_01/d.jpg,2,2,j,0,26,26,37,j,1,0.849765890482,01,01,60.0231086328,PLT_learning_01,N,2014_Feb_20_1619,P14,
stim_fb/ques.jpg,stim_fb/negf.jpg,stim_fb/posf.jpg,stim_01/a.jpg,stim_01/b.jpg,2,1,j,0,27,27,14,j,1,0.683135534319,01,01,60.0231086328,PLT_learning_01,N,2014_Feb_20_1619,P14,
stim_fb/ques.jpg,stim_fb/negf.jpg,stim_fb/posf.jpg,stim_01/e.jpg,stim_01/f.jpg,2,3,j,0,28,28,55,f,0,0.566515427704,01,01,60.0231086328,PLT_learning_01,N,2014_Feb_20_1619,P14,
stim_fb/ques.jpg,stim_fb/posf.jpg,stim_fb/negf.jpg,stim_01/d.jpg,stim_01/c.jpg,1,2,f,0,29,29,28,f,1,0.799792203066,01,01,60.0231086328,PLT_learning_01,N,2014_Feb_20_1619,P14,
stim_fb/ques.jpg,stim_fb/posf.jpg,stim_fb/negf.jpg,stim_01/e.jpg,stim_01/f.jpg,2,3,j,0,30,30,58,j,1,1.03302900279,01,01,60.0231086328,PLT_learning_01,N,2014_Feb_20_1619,P14,
stim_fb/ques.jpg,stim_fb/posf.jpg,stim_fb/negf.jpg,stim_01/a.jpg,stim_01/b.jpg,2,1,j,0,31,31,19,j,1,1.1329603627,01,01,60.0231086328,PLT_learning_01,N,2014_Feb_20_1619,P14,
stim_fb/ques.jpg,stim_fb/negf.jpg,stim_fb/posf.jpg,stim_01/f.jpg,stim_01/e.jpg,1,3,f,0,32,32,42,f,1,0.616523187044,01,01,60.0231086328,PLT_learning_01,N,2014_Feb_20_1619,P14,
stim_fb/ques.jpg,stim_fb/posf.jpg,stim_fb/negf.jpg,stim_01/c.jpg,stim_01/d.jpg,2,2,j,0,33,33,38,j,1,0.783112581108,01,01,60.0231086328,PLT_learning_01,N,2014_Feb_20_1619,P14,
stim_fb/ques.jpg,stim_fb/negf.jpg,stim_fb/posf.jpg,stim_01/a.jpg,stim_01/b.jpg,2,1,j,0,34,34,16,f,0,0.583198255652,01,01,60.0231086328,PLT_learning_01,N,2014_Feb_20_1619,P14,
stim_fb/ques.jpg,stim_fb/negf.jpg,stim_fb/posf.jpg,stim_01/a.jpg,stim_01/b.jpg,2,1,j,0,35,35,11,j,1,0.583189594063,01,01,60.0231086328,PLT_learning_01,N,2014_Feb_20_1619,P14,
stim_fb/ques.jpg,stim_fb/negf.jpg,stim_fb/posf.jpg,stim_01/e.jpg,stim_01/f.jpg,2,3,j,0,36,36,52,j,1,1.16634226209,01,01,60.0231086328,PLT_learning_01,N,2014_Feb_20_1619,P14,
stim_fb/ques.jpg,stim_fb/negf.jpg,stim_fb/posf.jpg,stim_01/a.jpg,stim_01/b.jpg,2,1,j,0,37,37,12,j,1,0.649831062924,01,01,60.0231086328,PLT_learning_01,N,2014_Feb_20_1619,P14,
stim_fb/ques.jpg,stim_fb/negf.jpg,stim_fb/posf.jpg,stim_01/b.jpg,stim_01/a.jpg,1,1,f,0,38,38,2,f,1,0.683171410741,01,01,60.0231086328,PLT_learning_01,N,2014_Feb_20_1619,P14,
stim_fb/ques.jpg,stim_fb/negf.jpg,stim_fb/posf.jpg,stim_01/a.jpg,stim_01/b.jpg,2,1,j,0,39,39,15,j,1,0.68316282434,01,01,60.0231086328,PLT_learning_01,N,2014_Feb_20_1619,P14,
stim_fb/ques.jpg,stim_fb/posf.jpg,stim_fb/negf.jpg,stim_01/f.jpg,stim_01/e.jpg,1,3,f,0,40,40,49,j,0,0.983056013113,01,01,60.0231086328,PLT_learning_01,N,2014_Feb_20_1619,P14,
stim_fb/ques.jpg,stim_fb/negf.jpg,stim_fb/posf.jpg,stim_01/c.jpg,stim_01/d.jpg,2,2,j,0,41,41,35,None,0,,01,01,60.0231086328,PLT_learning_01,N,2014_Feb_20_1619,P14,
stim_fb/ques.jpg,stim_fb/posf.jpg,stim_fb/negf.jpg,stim_01/f.jpg,stim_01/e.jpg,1,3,f,0,42,42,47,j,0,0.666538450087,01,01,60.0231086328,PLT_learning_01,N,2014_Feb_20_1619,P14,
stim_fb/ques.jpg,stim_fb/negf.jpg,stim_fb/posf.jpg,stim_01/d.jpg,stim_01/c.jpg,1,2,f,0,43,43,24,f,1,0.649787715882,01,01,60.0231086328,PLT_learning_01,N,2014_Feb_20_1619,P14,
stim_fb/ques.jpg,stim_fb/negf.jpg,stim_fb/posf.jpg,stim_01/f.jpg,stim_01/e.jpg,1,3,f,0,44,44,41,j,0,0.74972002015,01,01,60.0231086328,PLT_learning_01,N,2014_Feb_20_1619,P14,
stim_fb/ques.jpg,stim_fb/negf.jpg,stim_fb/posf.jpg,stim_01/d.jpg,stim_01/c.jpg,1,2,f,0,45,45,22,f,1,0.716481719686,01,01,60.0231086328,PLT_learning_01,N,2014_Feb_20_1619,P14,
stim_fb/ques.jpg,stim_fb/negf.jpg,stim_fb/posf.jpg,stim_01/f.jpg,stim_01/e.jpg,1,3,f,0,46,46,40,f,1,1.48287176788,01,01,60.0231086328,PLT_learning_01,N,2014_Feb_20_1619,P14,
stim_fb/ques.jpg,stim_fb/posf.jpg,stim_fb/negf.jpg,stim_01/d.jpg,stim_01/c.jpg,1,2,f,0,47,47,29,f,1,0.749802196976,01,01,60.0231086328,PLT_learning_01,N,2014_Feb_20_1619,P14,
stim_fb/ques.jpg,stim_fb/posf.jpg,stim_fb/negf.jpg,stim_01/b.jpg,stim_01/a.jpg,1,1,f,0,48,48,9,f,1,0.616541081646,01,01,60.0231086328,PLT_learning_01,N,2014_Feb_20_1619,P14,
stim_fb/ques.jpg,stim_fb/negf.jpg,stim_fb/posf.jpg,stim_01/e.jpg,stim_01/f.jpg,2,3,j,0,49,49,51,j,1,1.19965108533,01,01,60.0231086328,PLT_learning_01,N,2014_Feb_20_1619,P14,
stim_fb/ques.jpg,stim_fb/negf.jpg,stim_fb/posf.jpg,stim_01/c.jpg,stim_01/d.jpg,2,2,j,0,50,50,30,j,1,0.96633303509,01,01,60.0231086328,PLT_learning_01,N,2014_Feb_20_1619,P14,
stim_fb/ques.jpg,stim_fb/negf.jpg,stim_fb/posf.jpg,stim_01/b.jpg,stim_01/a.jpg,1,1,f,0,51,51,0,f,1,0.566487900091,01,01,60.0231086328,PLT_learning_01,N,2014_Feb_20_1619,P14,
stim_fb/ques.jpg,stim_fb/negf.jpg,stim_fb/posf.jpg,stim_01/d.jpg,stim_01/c.jpg,1,2,f,0,52,52,20,j,0,1.49956229803,01,01,60.0231086328,PLT_learning_01,N,2014_Feb_20_1619,P14,
stim_fb/ques.jpg,stim_fb/negf.jpg,stim_fb/posf.jpg,stim_01/d.jpg,stim_01/c.jpg,1,2,f,0,53,53,23,f,1,0.699801469162,01,01,60.0231086328,PLT_learning_01,N,2014_Feb_20_1619,P14,
stim_fb/ques.jpg,stim_fb/negf.jpg,stim_fb/posf.jpg,stim_01/a.jpg,stim_01/b.jpg,2,1,j,0,54,54,17,j,1,0.733120126916,01,01,60.0231086328,PLT_learning_01,N,2014_Feb_20_1619,P14,
stim_fb/ques.jpg,stim_fb/posf.jpg,stim_fb/negf.jpg,stim_01/f.jpg,stim_01/e.jpg,1,3,f,0,55,55,46,f,1,0.733213479598,01,01,60.0231086328,PLT_learning_01,N,2014_Feb_20_1619,P14,
stim_fb/ques.jpg,stim_fb/posf.jpg,stim_fb/negf.jpg,stim_01/e.jpg,stim_01/f.jpg,2,3,j,0,56,56,57,j,1,0.766430468944,01,01,60.0231086328,PLT_learning_01,N,2014_Feb_20_1619,P14,
stim_fb/ques.jpg,stim_fb/negf.jpg,stim_fb/posf.jpg,stim_01/c.jpg,stim_01/d.jpg,2,2,j,0,57,57,34,j,1,0.849755740182,01,01,60.0231086328,PLT_learning_01,N,2014_Feb_20_1619,P14,
stim_fb/ques.jpg,stim_fb/posf.jpg,stim_fb/negf.jpg,stim_01/d.jpg,stim_01/c.jpg,1,2,f,0,58,58,27,f,1,1.11635411162,01,01,60.0231086328,PLT_learning_01,N,2014_Feb_20_1619,P14,
stim_fb/ques.jpg,stim_fb/negf.jpg,stim_fb/posf.jpg,stim_01/c.jpg,stim_01/d.jpg,2,2,j,0,59,59,31,j,1,1.19963846287,01,01,60.0231086328,PLT_learning_01,N,2014_Feb_20_1619,P14,
stim_fb/ques.jpg,stim_fb/negf.jpg,stim_fb/posf.jpg,stim_01/a.jpg,stim_01/b.jpg,2,1,j,1,0,60,17,j,1,0.966410823979,01,01,60.0231086328,PLT_learning_01,N,2014_Feb_20_1619,P14,
stim_fb/ques.jpg,stim_fb/posf.jpg,stim_fb/negf.jpg,stim_01/d.jpg,stim_01/c.jpg,1,2,f,1,1,61,29,f,1,0.68320180149,01,01,60.0231086328,PLT_learning_01,N,2014_Feb_20_1619,P14,
stim_fb/ques.jpg,stim_fb/negf.jpg,stim_fb/posf.jpg,stim_01/d.jpg,stim_01/c.jpg,1,2,f,1,2,62,20,f,1,1.01642486598,01,01,60.0231086328,PLT_learning_01,N,2014_Feb_20_1619,P14,
stim_fb/ques.jpg,stim_fb/negf.jpg,stim_fb/posf.jpg,stim_01/f.jpg,stim_01/e.jpg,1,3,f,1,3,63,44,j,0,0.816409527748,01,01,60.0231086328,PLT_learning_01,N,2014_Feb_20_1619,P14,
stim_fb/ques.jpg,stim_fb/posf.jpg,stim_fb/negf.jpg,stim_01/b.jpg,stim_01/a.jpg,1,1,f,1,4,64,8,f,1,0.683165350637,01,01,60.0231086328,PLT_learning_01,N,2014_Feb_20_1619,P14,
stim_fb/ques.jpg,stim_fb/negf.jpg,stim_fb/posf.jpg,stim_01/a.jpg,stim_01/b.jpg,2,1,j,1,5,65,11,j,1,0.616498077458,01,01,60.0231086328,PLT_learning_01,N,2014_Feb_20_1619,P14,
stim_fb/ques.jpg,stim_fb/negf.jpg,stim_fb/posf.jpg,stim_01/f.jpg,stim_01/e.jpg,1,3,f,1,6,66,40,f,1,1.04970493455,01,01,60.0231086328,PLT_learning_01,N,2014_Feb_20_1619,P14,
stim_fb/ques.jpg,stim_fb/posf.jpg,stim_fb/negf.jpg,stim_01/c.jpg,stim_01/d.jpg,2,2,j,1,7,67,38,j,1,0.683147188367,01,01,60.0231086328,PLT_learning_01,N,2014_Feb_20_1619,P14,
stim_fb/ques.jpg,stim_fb/negf.jpg,stim_fb/posf.jpg,stim_01/a.jpg,stim_01/b.jpg,2,1,j,1,8,68,12,j,1,0.483202787949,01,01,60.0231086328,PLT_learning_01,N,2014_Feb_20_1619,P14,
stim_fb/ques.jpg,stim_fb/negf.jpg,stim_fb/posf.jpg,stim_01/e.jpg,stim_01/f.jpg,2,3,j,1,9,69,52,f,0,1.09970773152,01,01,60.0231086328,PLT_learning_01,N,2014_Feb_20_1619,P14,
stim_fb/ques.jpg,stim_fb/negf.jpg,stim_fb/posf.jpg,stim_01/b.jpg,stim_01/a.jpg,1,1,f,1,10,70,7,f,1,0.64980297291,01,01,60.0231086328,PLT_learning_01,N,2014_Feb_20_1619,P14,
stim_fb/ques.jpg,stim_fb/negf.jpg,stim_fb/posf.jpg,stim_01/e.jpg,stim_01/f.jpg,2,3,j,1,11,71,50,j,1,1.24962637574,01,01,60.0231086328,PLT_learning_01,N,2014_Feb_20_1619,P14,
stim_fb/ques.jpg,stim_fb/negf.jpg,stim_fb/posf.jpg,stim_01/a.jpg,stim_01/b.jpg,2,1,j,1,12,72,15,j,1,0.849792915843,01,01,60.0231086328,PLT_learning_01,N,2014_Feb_20_1619,P14,
stim_fb/ques.jpg,stim_fb/negf.jpg,stim_fb/posf.jpg,stim_01/c.jpg,stim_01/d.jpg,2,2,j,1,13,73,34,j,1,1.23297659416,01,01,60.0231086328,PLT_learning_01,N,2014_Feb_20_1619,P14,
stim_fb/ques.jpg,stim_fb/posf.jpg,stim_fb/negf.jpg,stim_01/f.jpg,stim_01/e.jpg,1,3,f,1,14,74,46,j,0,1.49957189796,01,01,60.0231086328,PLT_learning_01,N,2014_Feb_20_1619,P14,
stim_fb/ques.jpg,stim_fb/negf.jpg,stim_fb/posf.jpg,stim_01/c.jpg,stim_01/d.jpg,2,2,j,1,15,75,30,f,0,0.666481283599,01,01,60.0231086328,PLT_learning_01,N,2014_Feb_20_1619,P14,
stim_fb/ques.jpg,stim_fb/negf.jpg,stim_fb/posf.jpg,stim_01/b.jpg,stim_01/a.jpg,1,1,f,1,16,76,3,f,1,1.01638470989,01,01,60.0231086328,PLT_learning_01,N,2014_Feb_20_1619,P14,
stim_fb/ques.jpg,stim_fb/negf.jpg,stim_fb/posf.jpg,stim_01/d.jpg,stim_01/c.jpg,1,2,f,1,17,77,26,f,1,0.683169819776,01,01,60.0231086328,PLT_learning_01,N,2014_Feb_20_1619,P14,
stim_fb/ques.jpg,stim_fb/negf.jpg,stim_fb/posf.jpg,stim_01/a.jpg,stim_01/b.jpg,2,1,j,1,18,78,16,j,1,1.01639885414,01,01,60.0231086328,PLT_learning_01,N,2014_Feb_20_1619,P14,
stim_fb/ques.jpg,stim_fb/negf.jpg,stim_fb/posf.jpg,stim_01/a.jpg,stim_01/b.jpg,2,1,j,1,19,79,10,j,1,0.599854527409,01,01,60.0231086328,PLT_learning_01,N,2014_Feb_20_1619,P14,
stim_fb/ques.jpg,stim_fb/negf.jpg,stim_fb/posf.jpg,stim_01/d.jpg,stim_01/c.jpg,1,2,f,1,20,80,22,f,1,0.883087633928,01,01,60.0231086328,PLT_learning_01,N,2014_Feb_20_1619,P14,
stim_fb/ques.jpg,stim_fb/posf.jpg,stim_fb/negf.jpg,stim_01/b.jpg,stim_01/a.jpg,1,1,f,1,21,81,9,f,1,0.766468089713,01,01,60.0231086328,PLT_learning_01,N,2014_Feb_20_1619,P14,
stim_fb/ques.jpg,stim_fb/negf.jpg,stim_fb/posf.jpg,stim_01/a.jpg,stim_01/b.jpg,2,1,j,1,22,82,14,j,1,0.633148090616,01,01,60.0231086328,PLT_learning_01,N,2014_Feb_20_1619,P14,
stim_fb/ques.jpg,stim_fb/negf.jpg,stim_fb/posf.jpg,stim_01/b.jpg,stim_01/a.jpg,1,1,f,1,23,83,4,j,0,1.11633489372,01,01,60.0231086328,PLT_learning_01,N,2014_Feb_20_1619,P14,
stim_fb/ques.jpg,stim_fb/negf.jpg,stim_fb/posf.jpg,stim_01/b.jpg,stim_01/a.jpg,1,1,f,1,24,84,1,f,1,0.583179503914,01,01,60.0231086328,PLT_learning_01,N,2014_Feb_20_1619,P14,
stim_fb/ques.jpg,stim_fb/posf.jpg,stim_fb/negf.jpg,stim_01/f.jpg,stim_01/e.jpg,1,3,f,1,25,85,49,j,0,1.03302414568,01,01,60.0231086328,PLT_learning_01,N,2014_Feb_20_1619,P14,
stim_fb/ques.jpg,stim_fb/negf.jpg,stim_fb/posf.jpg,stim_01/e.jpg,stim_01/f.jpg,2,3,j,1,26,86,51,j,1,1.56622113518,01,01,60.0231086328,PLT_learning_01,N,2014_Feb_20_1619,P14,
stim_fb/ques.jpg,stim_fb/negf.jpg,stim_fb/posf.jpg,stim_01/e.jpg,stim_01/f.jpg,2,3,j,1,27,87,53,j,1,1.13300456388,01,01,60.0231086328,PLT_learning_01,N,2014_Feb_20_1619,P14,
stim_fb/ques.jpg,stim_fb/negf.jpg,stim_fb/posf.jpg,stim_01/f.jpg,stim_01/e.jpg,1,3,f,1,28,88,45,f,1,0.883107901444,01,01,60.0231086328,PLT_learning_01,N,2014_Feb_20_1619,P14,
stim_fb/ques.jpg,stim_fb/posf.jpg,stim_fb/negf.jpg,stim_01/c.jpg,stim_01/d.jpg,2,2,j,1,29,89,37,j,1,1.06636682431,01,01,60.0231086328,PLT_learning_01,N,2014_Feb_20_1619,P14,
stim_fb/ques.jpg,stim_fb/posf.jpg,stim_fb/negf.jpg,stim_01/d.jpg,stim_01/c.jpg,1,2,f,1,30,90,27,f,1,0.816424802821,01,01,60.0231086328,PLT_learning_01,N,2014_Feb_20_1619,P14,
stim_fb/ques.jpg,stim_fb/posf.jpg,stim_fb/negf.jpg,stim_01/e.jpg,stim_01/f.jpg,2,3,j,1,31,91,59,j,1,1.08301083751,01,01,60.0231086328,PLT_learning_01,N,2014_Feb_20_1619,P14,
stim_fb/ques.jpg,stim_fb/negf.jpg,stim_fb/posf.jpg,stim_01/b.jpg,stim_01/a.jpg,1,1,f,1,32,92,6,f,1,0.583150123683,01,01,60.0231086328,PLT_learning_01,N,2014_Feb_20_1619,P14,
stim_fb/ques.jpg,stim_fb/posf.jpg,stim_fb/negf.jpg,stim_01/e.jpg,stim_01/f.jpg,2,3,j,1,33,93,57,j,1,0.866482065548,01,01,60.0231086328,PLT_learning_01,N,2014_Feb_20_1619,P14,
stim_fb/ques.jpg,stim_fb/negf.jpg,stim_fb/posf.jpg,stim_01/c.jpg,stim_01/d.jpg,2,2,j,1,34,94,32,j,1,1.03299858497,01,01,60.0231086328,PLT_learning_01,N,2014_Feb_20_1619,P14,
stim_fb/ques.jpg,stim_fb/negf.jpg,stim_fb/posf.jpg,stim_01/e.jpg,stim_01/f.jpg,2,3,j,1,35,95,54,None,0,,01,01,60.0231086328,PLT_learning_01,N,2014_Feb_20_1619,P14,
stim_fb/ques.jpg,stim_fb/posf.jpg,stim_fb/negf.jpg,stim_01/a.jpg,stim_01/b.jpg,2,1,j,1,36,96,19,j,1,0.683185422666,01,01,60.0231086328,PLT_learning_01,N,2014_Feb_20_1619,P14,
stim_fb/ques.jpg,stim_fb/negf.jpg,stim_fb/posf.jpg,stim_01/f.jpg,stim_01/e.jpg,1,3,f,1,37,97,41,f,1,0.716546233487,01,01,60.0231086328,PLT_learning_01,N,2014_Feb_20_1619,P14,
stim_fb/ques.jpg,stim_fb/negf.jpg,stim_fb/posf.jpg,stim_01/b.jpg,stim_01/a.jpg,1,1,f,1,38,98,2,f,1,0.633165251389,01,01,60.0231086328,PLT_learning_01,N,2014_Feb_20_1619,P14,
stim_fb/ques.jpg,stim_fb/negf.jpg,stim_fb/posf.jpg,stim_01/c.jpg,stim_01/d.jpg,2,2,j,1,39,99,36,j,1,0.766398099262,01,01,60.0231086328,PLT_learning_01,N,2014_Feb_20_1619,P14,
stim_fb/ques.jpg,stim_fb/negf.jpg,stim_fb/posf.jpg,stim_01/c.jpg,stim_01/d.jpg,2,2,j,1,40,100,31,j,1,0.783404624025,01,01,60.0231086328,PLT_learning_01,N,2014_Feb_20_1619,P14,
stim_fb/ques.jpg,stim_fb/negf.jpg,stim_fb/posf.jpg,stim_01/b.jpg,stim_01/a.jpg,1,1,f,1,41,101,5,f,1,0.733176066345,01,01,60.0231086328,PLT_learning_01,N,2014_Feb_20_1619,P14,
stim_fb/ques.jpg,stim_fb/negf.jpg,stim_fb/posf.jpg,stim_01/f.jpg,stim_01/e.jpg,1,3,f,1,42,102,42,j,0,1.2996901918,01,01,60.0231086328,PLT_learning_01,N,2014_Feb_20_1619,P14,
stim_fb/ques.jpg,stim_fb/negf.jpg,stim_fb/posf.jpg,stim_01/d.jpg,stim_01/c.jpg,1,2,f,1,43,103,21,f,1,0.73314460192,01,01,60.0231086328,PLT_learning_01,N,2014_Feb_20_1619,P14,
stim_fb/ques.jpg,stim_fb/negf.jpg,stim_fb/posf.jpg,stim_01/a.jpg,stim_01/b.jpg,2,1,j,1,44,104,13,j,1,0.649814858535,01,01,60.0231086328,PLT_learning_01,N,2014_Feb_20_1619,P14,
stim_fb/ques.jpg,stim_fb/negf.jpg,stim_fb/posf.jpg,stim_01/b.jpg,stim_01/a.jpg,1,1,f,1,45,105,0,f,1,0.599830981722,01,01,60.0231086328,PLT_learning_01,N,2014_Feb_20_1619,P14,
stim_fb/ques.jpg,stim_fb/posf.jpg,stim_fb/negf.jpg,stim_01/c.jpg,stim_01/d.jpg,2,2,j,1,46,106,39,j,1,0.749802861633,01,01,60.0231086328,PLT_learning_01,N,2014_Feb_20_1619,P14,
stim_fb/ques.jpg,stim_fb/posf.jpg,stim_fb/negf.jpg,stim_01/a.jpg,stim_01/b.jpg,2,1,j,1,47,107,18,j,1,0.983067098744,01,01,60.0231086328,PLT_learning_01,N,2014_Feb_20_1619,P14,
stim_fb/ques.jpg,stim_fb/negf.jpg,stim_fb/posf.jpg,stim_01/d.jpg,stim_01/c.jpg,1,2,f,1,48,108,24,f,1,0.69982229908,01,01,60.0231086328,PLT_learning_01,N,2014_Feb_20_1619,P14,
stim_fb/ques.jpg,stim_fb/posf.jpg,stim_fb/negf.jpg,stim_01/f.jpg,stim_01/e.jpg,1,3,f,1,49,109,47,j,0,1.36628240088,01,01,60.0231086328,PLT_learning_01,N,2014_Feb_20_1619,P14,
stim_fb/ques.jpg,stim_fb/negf.jpg,stim_fb/posf.jpg,stim_01/e.jpg,stim_01/f.jpg,2,3,j,1,50,110,55,j,1,1.58286650777,01,01,60.0231086328,PLT_learning_01,N,2014_Feb_20_1619,P14,
stim_fb/ques.jpg,stim_fb/negf.jpg,stim_fb/posf.jpg,stim_01/d.jpg,stim_01/c.jpg,1,2,f,1,51,111,23,j,0,1.33294696732,01,01,60.0231086328,PLT_learning_01,N,2014_Feb_20_1619,P14,
stim_fb/ques.jpg,stim_fb/negf.jpg,stim_fb/posf.jpg,stim_01/d.jpg,stim_01/c.jpg,1,2,f,1,52,112,25,f,1,1.34961854422,01,01,60.0231086328,PLT_learning_01,N,2014_Feb_20_1619,P14,
stim_fb/ques.jpg,stim_fb/posf.jpg,stim_fb/negf.jpg,stim_01/e.jpg,stim_01/f.jpg,2,3,j,1,53,113,56,None,0,,01,01,60.0231086328,PLT_learning_01,N,2014_Feb_20_1619,P14,
stim_fb/ques.jpg,stim_fb/negf.jpg,stim_fb/posf.jpg,stim_01/c.jpg,stim_01/d.jpg,2,2,j,1,54,114,35,j,1,0.649846464312,01,01,60.0231086328,PLT_learning_01,N,2014_Feb_20_1619,P14,
stim_fb/ques.jpg,stim_fb/posf.jpg,stim_fb/negf.jpg,stim_01/d.jpg,stim_01/c.jpg,1,2,f,1,55,115,28,f,1,1.01637971745,01,01,60.0231086328,PLT_learning_01,N,2014_Feb_20_1619,P14,
stim_fb/ques.jpg,stim_fb/posf.jpg,stim_fb/negf.jpg,stim_01/e.jpg,stim_01/f.jpg,2,3,j,1,56,116,58,f,0,1.29961449312,01,01,60.0231086328,PLT_learning_01,N,2014_Feb_20_1619,P14,
stim_fb/ques.jpg,stim_fb/negf.jpg,stim_fb/posf.jpg,stim_01/f.jpg,stim_01/e.jpg,1,3,f,1,57,117,43,f,1,1.59954084255,01,01,60.0231086328,PLT_learning_01,N,2014_Feb_20_1619,P14,
stim_fb/ques.jpg,stim_fb/negf.jpg,stim_fb/posf.jpg,stim_01/c.jpg,stim_01/d.jpg,2,2,j,1,58,118,33,j,1,0.883090975256,01,01,60.0231086328,PLT_learning_01,N,2014_Feb_20_1619,P14,
stim_fb/ques.jpg,stim_fb/posf.jpg,stim_fb/negf.jpg,stim_01/f.jpg,stim_01/e.jpg,1,3,f,1,59,119,48,f,1,0.866428041894,01,01,60.0231086328,PLT_learning_01,N,2014_Feb_20_1619,P14,
stim_fb/ques.jpg,stim_fb/negf.jpg,stim_fb/posf.jpg,stim_01/b.jpg,stim_01/a.jpg,1,1,f,2,0,120,3,f,1,1.04968109413,01,01,60.0231086328,PLT_learning_01,N,2014_Feb_20_1619,P14,
stim_fb/ques.jpg,stim_fb/negf.jpg,stim_fb/posf.jpg,stim_01/f.jpg,stim_01/e.jpg,1,3,f,2,1,121,42,f,1,1.13299540906,01,01,60.0231086328,PLT_learning_01,N,2014_Feb_20_1619,P14,
stim_fb/ques.jpg,stim_fb/negf.jpg,stim_fb/posf.jpg,stim_01/d.jpg,stim_01/c.jpg,1,2,f,2,2,122,21,f,1,0.916411765325,01,01,60.0231086328,PLT_learning_01,N,2014_Feb_20_1619,P14,
stim_fb/ques.jpg,stim_fb/negf.jpg,stim_fb/posf.jpg,stim_01/a.jpg,stim_01/b.jpg,2,1,j,2,3,123,17,j,1,0.883086641454,01,01,60.0231086328,PLT_learning_01,N,2014_Feb_20_1619,P14,
stim_fb/ques.jpg,stim_fb/negf.jpg,stim_fb/posf.jpg,stim_01/b.jpg,stim_01/a.jpg,1,1,f,2,4,124,4,f,1,0.866418315652,01,01,60.0231086328,PLT_learning_01,N,2014_Feb_20_1619,P14,
stim_fb/ques.jpg,stim_fb/posf.jpg,stim_fb/negf.jpg,stim_01/c.jpg,stim_01/d.jpg,2,2,j,2,5,125,39,j,1,0.949756040932,01,01,60.0231086328,PLT_learning_01,N,2014_Feb_20_1619,P14,
stim_fb/ques.jpg,stim_fb/posf.jpg,stim_fb/negf.jpg,stim_01/b.jpg,stim_01/a.jpg,1,1,f,2,6,126,9,f,1,0.683147383854,01,01,60.0231086328,PLT_learning_01,N,2014_Feb_20_1619,P14,
stim_fb/ques.jpg,stim_fb/posf.jpg,stim_fb/negf.jpg,stim_01/a.jpg,stim_01/b.jpg,2,1,j,2,7,127,19,j,1,0.699796557921,01,01,60.0231086328,PLT_learning_01,N,2014_Feb_20_1619,P14,
stim_fb/ques.jpg,stim_fb/posf.jpg,stim_fb/negf.jpg,stim_01/c.jpg,stim_01/d.jpg,2,2,j,2,8,128,38,j,1,1.08302799227,01,01,60.0231086328,PLT_learning_01,N,2014_Feb_20_1619,P14,
stim_fb/ques.jpg,stim_fb/negf.jpg,stim_fb/posf.jpg,stim_01/c.jpg,stim_01/d.jpg,2,2,j,2,9,129,35,j,1,1.45053710874,01,01,60.0231086328,PLT_learning_01,N,2014_Feb_20_1619,P14,
stim_fb/ques.jpg,stim_fb/negf.jpg,stim_fb/posf.jpg,stim_01/b.jpg,stim_01/a.jpg,1,1,f,2,10,130,6,f,1,0.716642016225,01,01,60.0231086328,PLT_learning_01,N,2014_Feb_20_1619,P14,
stim_fb/ques.jpg,stim_fb/posf.jpg,stim_fb/negf.jpg,stim_01/c.jpg,stim_01/d.jpg,2,2,j,2,11,131,37,j,1,0.966437277915,01,01,60.0231086328,PLT_learning_01,N,2014_Feb_20_1619,P14,
stim_fb/ques.jpg,stim_fb/negf.jpg,stim_fb/posf.jpg,stim_01/d.jpg,stim_01/c.jpg,1,2,f,2,12,132,25,j,0,1.16633543808,01,01,60.0231086328,PLT_learning_01,N,2014_Feb_20_1619,P14,
stim_fb/ques.jpg,stim_fb/negf.jpg,stim_fb/posf.jpg,stim_01/a.jpg,stim_01/b.jpg,2,1,j,2,13,133,11,j,1,0.849779866317,01,01,60.0231086328,PLT_learning_01,N,2014_Feb_20_1619,P14,
stim_fb/ques.jpg,stim_fb/negf.jpg,stim_fb/posf.jpg,stim_01/e.jpg,stim_01/f.jpg,2,3,j,2,14,134,53,f,0,1.0663479252,01,01,60.0231086328,PLT_learning_01,N,2014_Feb_20_1619,P14,
stim_fb/ques.jpg,stim_fb/negf.jpg,stim_fb/posf.jpg,stim_01/e.jpg,stim_01/f.jpg,2,3,j,2,15,135,50,j,1,1.49955746799,01,01,60.0231086328,PLT_learning_01,N,2014_Feb_20_1619,P14,
stim_fb/ques.jpg,stim_fb/posf.jpg,stim_fb/negf.jpg,stim_01/f.jpg,stim_01/e.jpg,1,3,f,2,16,136,48,f,1,1.01639013241,01,01,60.0231086328,PLT_learning_01,N,2014_Feb_20_1619,P14,
stim_fb/ques.jpg,stim_fb/negf.jpg,stim_fb/posf.jpg,stim_01/a.jpg,stim_01/b.jpg,2,1,j,2,17,137,15,j,1,0.61652053744,01,01,60.0231086328,PLT_learning_01,N,2014_Feb_20_1619,P14,
stim_fb/ques.jpg,stim_fb/negf.jpg,stim_fb/posf.jpg,stim_01/c.jpg,stim_01/d.jpg,2,2,j,2,18,138,33,j,1,0.649838001218,01,01,60.0231086328,PLT_learning_01,N,2014_Feb_20_1619,P14,
stim_fb/ques.jpg,stim_fb/negf.jpg,stim_fb/posf.jpg,stim_01/c.jpg,stim_01/d.jpg,2,2,j,2,19,139,30,j,1,1.23297297013,01,01,60.0231086328,PLT_learning_01,N,2014_Feb_20_1619,P14,
stim_fb/ques.jpg,stim_fb/negf.jpg,stim_fb/posf.jpg,stim_01/d.jpg,stim_01/c.jpg,1,2,f,2,20,140,24,j,0,1.34960781047,01,01,60.0231086328,PLT_learning_01,N,2014_Feb_20_1619,P14,
stim_fb/ques.jpg,stim_fb/negf.jpg,stim_fb/posf.jpg,stim_01/a.jpg,stim_01/b.jpg,2,1,j,2,21,141,12,j,1,0.666482206901,01,01,60.0231086328,PLT_learning_01,N,2014_Feb_20_1619,P14,
stim_fb/ques.jpg,stim_fb/posf.jpg,stim_fb/negf.jpg,stim_01/f.jpg,stim_01/e.jpg,1,3,f,2,22,142,47,j,0,1.36624717408,01,01,60.0231086328,PLT_learning_01,N,2014_Feb_20_1619,P14,
stim_fb/ques.jpg,stim_fb/negf.jpg,stim_fb/posf.jpg,stim_01/a.jpg,stim_01/b.jpg,2,1,j,2,23,143,14,f,0,1.31629170608,01,01,60.0231086328,PLT_learning_01,N,2014_Feb_20_1619,P14,
stim_fb/ques.jpg,stim_fb/negf.jpg,stim_fb/posf.jpg,stim_01/d.jpg,stim_01/c.jpg,1,2,f,2,24,144,23,j,0,1.2829416651,01,01,60.0231086328,PLT_learning_01,N,2014_Feb_20_1619,P14,
stim_fb/ques.jpg,stim_fb/negf.jpg,stim_fb/posf.jpg,stim_01/d.jpg,stim_01/c.jpg,1,2,f,2,25,145,22,f,1,0.683168099488,01,01,60.0231086328,PLT_learning_01,N,2014_Feb_20_1619,P14,
stim_fb/ques.jpg,stim_fb/negf.jpg,stim_fb/posf.jpg,stim_01/b.jpg,stim_01/a.jpg,1,1,f,2,26,146,7,f,1,0.699807306712,01,01,60.0231086328,PLT_learning_01,N,2014_Feb_20_1619,P14,
stim_fb/ques.jpg,stim_fb/negf.jpg,stim_fb/posf.jpg,stim_01/e.jpg,stim_01/f.jpg,2,3,j,2,27,147,52,j,1,1.23301372772,01,01,60.0231086328,PLT_learning_01,N,2014_Feb_20_1619,P14,
stim_fb/ques.jpg,stim_fb/posf.jpg,stim_fb/negf.jpg,stim_01/e.jpg,stim_01/f.jpg,2,3,j,2,28,148,59,f,0,0.833135558379,01,01,60.0231086328,PLT_learning_01,N,2014_Feb_20_1619,P14,
stim_fb/ques.jpg,stim_fb/posf.jpg,stim_fb/negf.jpg,stim_01/b.jpg,stim_01/a.jpg,1,1,f,2,29,149,8,f,1,0.766468772415,01,01,60.0231086328,PLT_learning_01,N,2014_Feb_20_1619,P14,
stim_fb/ques.jpg,stim_fb/negf.jpg,stim_fb/posf.jpg,stim_01/e.jpg,stim_01/f.jpg,2,3,j,2,30,150,55,f,0,1.13300460899,01,01,60.0231086328,PLT_learning_01,N,2014_Feb_20_1619,P14,
stim_fb/ques.jpg,stim_fb/posf.jpg,stim_fb/negf.jpg,stim_01/f.jpg,stim_01/e.jpg,1,3,f,2,31,151,49,j,0,0.933029297524,01,01,60.0231086328,PLT_learning_01,N,2014_Feb_20_1619,P14,
stim_fb/ques.jpg,stim_fb/negf.jpg,stim_fb/posf.jpg,stim_01/f.jpg,stim_01/e.jpg,1,3,f,2,32,152,41,f,1,0.816406132285,01,01,60.0231086328,PLT_learning_01,N,2014_Feb_20_1619,P14,
stim_fb/ques.jpg,stim_fb/negf.jpg,stim_fb/posf.jpg,stim_01/c.jpg,stim_01/d.jpg,2,2,j,2,33,153,36,f,0,0.699829664439,01,01,60.0231086328,PLT_learning_01,N,2014_Feb_20_1619,P14,
stim_fb/ques.jpg,stim_fb/negf.jpg,stim_fb/posf.jpg,stim_01/c.jpg,stim_01/d.jpg,2,2,j,2,34,154,31,j,1,0.46653240502,01,01,60.0231086328,PLT_learning_01,N,2014_Feb_20_1619,P14,
stim_fb/ques.jpg,stim_fb/negf.jpg,stim_fb/posf.jpg,stim_01/f.jpg,stim_01/e.jpg,1,3,f,2,35,155,45,j,0,0.983054229667,01,01,60.0231086328,PLT_learning_01,N,2014_Feb_20_1619,P14,
stim_fb/ques.jpg,stim_fb/posf.jpg,stim_fb/negf.jpg,stim_01/d.jpg,stim_01/c.jpg,1,2,f,2,36,156,28,f,1,1.01636392508,01,01,60.0231086328,PLT_learning_01,N,2014_Feb_20_1619,P14,
stim_fb/ques.jpg,stim_fb/posf.jpg,stim_fb/negf.jpg,stim_01/e.jpg,stim_01/f.jpg,2,3,j,2,37,157,56,j,1,0.783144412448,01,01,60.0231086328,PLT_learning_01,N,2014_Feb_20_1619,P14,
stim_fb/ques.jpg,stim_fb/posf.jpg,stim_fb/negf.jpg,stim_01/e.jpg,stim_01/f.jpg,2,3,j,2,38,158,57,f,0,0.466562813813,01,01,60.0231086328,PLT_learning_01,N,2014_Feb_20_1619,P14,
stim_fb/ques.jpg,stim_fb/posf.jpg,stim_fb/negf.jpg,stim_01/e.jpg,stim_01/f.jpg,2,3,j,2,39,159,58,f,0,0.699813432982,01,01,60.0231086328,PLT_learning_01,N,2014_Feb_20_1619,P14,
stim_fb/ques.jpg,stim_fb/negf.jpg,stim_fb/posf.jpg,stim_01/b.jpg,stim_01/a.jpg,1,1,f,2,40,160,1,f,1,0.499904981166,01,01,60.0231086328,PLT_learning_01,N,2014_Feb_20_1619,P14,
stim_fb/ques.jpg,stim_fb/negf.jpg,stim_fb/posf.jpg,stim_01/c.jpg,stim_01/d.jpg,2,2,j,2,41,161,32,j,1,0.716499382711,01,01,60.0231086328,PLT_learning_01,N,2014_Feb_20_1619,P14,
stim_fb/ques.jpg,stim_fb/negf.jpg,stim_fb/posf.jpg,stim_01/f.jpg,stim_01/e.jpg,1,3,f,2,42,162,40,f,1,0.533222056977,01,01,60.0231086328,PLT_learning_01,N,2014_Feb_20_1619,P14,
stim_fb/ques.jpg,stim_fb/posf.jpg,stim_fb/negf.jpg,stim_01/f.jpg,stim_01/e.jpg,1,3,f,2,43,163,46,j,0,0.649839474891,01,01,60.0231086328,PLT_learning_01,N,2014_Feb_20_1619,P14,
stim_fb/ques.jpg,stim_fb/negf.jpg,stim_fb/posf.jpg,stim_01/b.jpg,stim_01/a.jpg,1,1,f,2,44,164,2,f,1,0.74977358065,01,01,60.0231086328,PLT_learning_01,N,2014_Feb_20_1619,P14,
stim_fb/ques.jpg,stim_fb/negf.jpg,stim_fb/posf.jpg,stim_01/b.jpg,stim_01/a.jpg,1,1,f,2,45,165,0,f,1,0.616530495259,01,01,60.0231086328,PLT_learning_01,N,2014_Feb_20_1619,P14,
stim_fb/ques.jpg,stim_fb/negf.jpg,stim_fb/posf.jpg,stim_01/e.jpg,stim_01/f.jpg,2,3,j,2,46,166,51,j,1,0.866420784806,01,01,60.0231086328,PLT_learning_01,N,2014_Feb_20_1619,P14,
stim_fb/ques.jpg,stim_fb/negf.jpg,stim_fb/posf.jpg,stim_01/e.jpg,stim_01/f.jpg,2,3,j,2,47,167,54,j,1,0.683137305735,01,01,60.0231086328,PLT_learning_01,N,2014_Feb_20_1619,P14,
stim_fb/ques.jpg,stim_fb/negf.jpg,stim_fb/posf.jpg,stim_01/d.jpg,stim_01/c.jpg,1,2,f,2,48,168,26,f,1,1.1330011654,01,01,60.0231086328,PLT_learning_01,N,2014_Feb_20_1619,P14,
stim_fb/ques.jpg,stim_fb/negf.jpg,stim_fb/posf.jpg,stim_01/a.jpg,stim_01/b.jpg,2,1,j,2,49,169,16,j,1,0.866360460448,01,01,60.0231086328,PLT_learning_01,N,2014_Feb_20_1619,P14,
stim_fb/ques.jpg,stim_fb/posf.jpg,stim_fb/negf.jpg,stim_01/d.jpg,stim_01/c.jpg,1,2,f,2,50,170,29,f,1,0.666553854482,01,01,60.0231086328,PLT_learning_01,N,2014_Feb_20_1619,P14,
stim_fb/ques.jpg,stim_fb/posf.jpg,stim_fb/negf.jpg,stim_01/a.jpg,stim_01/b.jpg,2,1,j,2,51,171,18,j,1,1.44955955519,01,01,60.0231086328,PLT_learning_01,N,2014_Feb_20_1619,P14,
stim_fb/ques.jpg,stim_fb/posf.jpg,stim_fb/negf.jpg,stim_01/d.jpg,stim_01/c.jpg,1,2,f,2,52,172,27,f,1,0.666445623717,01,01,60.0231086328,PLT_learning_01,N,2014_Feb_20_1619,P14,
stim_fb/ques.jpg,stim_fb/negf.jpg,stim_fb/posf.jpg,stim_01/b.jpg,stim_01/a.jpg,1,1,f,2,53,173,5,f,1,0.783191052699,01,01,60.0231086328,PLT_learning_01,N,2014_Feb_20_1619,P14,
stim_fb/ques.jpg,stim_fb/negf.jpg,stim_fb/posf.jpg,stim_01/a.jpg,stim_01/b.jpg,2,1,j,2,54,174,13,j,1,1.39959142864,01,01,60.0231086328,PLT_learning_01,N,2014_Feb_20_1619,P14,
stim_fb/ques.jpg,stim_fb/negf.jpg,stim_fb/posf.jpg,stim_01/c.jpg,stim_01/d.jpg,2,2,j,2,55,175,34,j,1,1.09964743724,01,01,60.0231086328,PLT_learning_01,N,2014_Feb_20_1619,P14,
stim_fb/ques.jpg,stim_fb/negf.jpg,stim_fb/posf.jpg,stim_01/f.jpg,stim_01/e.jpg,1,3,f,2,56,176,44,f,1,0.649850428192,01,01,60.0231086328,PLT_learning_01,N,2014_Feb_20_1619,P14,
stim_fb/ques.jpg,stim_fb/negf.jpg,stim_fb/posf.jpg,stim_01/f.jpg,stim_01/e.jpg,1,3,f,2,57,177,43,f,1,0.566542275622,01,01,60.0231086328,PLT_learning_01,N,2014_Feb_20_1619,P14,
stim_fb/ques.jpg,stim_fb/negf.jpg,stim_fb/posf.jpg,stim_01/d.jpg,stim_01/c.jpg,1,2,f,2,58,178,20,f,1,0.983054927407,01,01,60.0231086328,PLT_learning_01,N,2014_Feb_20_1619,P14,
stim_fb/ques.jpg,stim_fb/negf.jpg,stim_fb/posf.jpg,stim_01/a.jpg,stim_01/b.jpg,2,1,j,2,59,179,10,j,1,0.766406267622,01,01,60.0231086328,PLT_learning_01,N,2014_Feb_20_1619,P14,
stim_fb/ques.jpg,stim_fb/negf.jpg,stim_fb/posf.jpg,stim_01/d.jpg,stim_01/c.jpg,1,2,f,3,0,180,24,None,0,,01,01,60.0231086328,PLT_learning_01,N,2014_Feb_20_1619,P14,
stim_fb/ques.jpg,stim_fb/negf.jpg,stim_fb/posf.jpg,stim_01/a.jpg,stim_01/b.jpg,2,1,j,3,1,181,10,j,1,0.633183527943,01,01,60.0231086328,PLT_learning_01,N,2014_Feb_20_1619,P14,
stim_fb/ques.jpg,stim_fb/negf.jpg,stim_fb/posf.jpg,stim_01/b.jpg,stim_01/a.jpg,1,1,f,3,2,182,3,f,1,0.583199151886,01,01,60.0231086328,PLT_learning_01,N,2014_Feb_20_1619,P14,
stim_fb/ques.jpg,stim_fb/negf.jpg,stim_fb/posf.jpg,stim_01/c.jpg,stim_01/d.jpg,2,2,j,3,3,183,31,j,1,0.599817153254,01,01,60.0231086328,PLT_learning_01,N,2014_Feb_20_1619,P14,
stim_fb/ques.jpg,stim_fb/negf.jpg,stim_fb/posf.jpg,stim_01/d.jpg,stim_01/c.jpg,1,2,f,3,4,184,23,f,1,0.549865249134,01,01,60.0231086328,PLT_learning_01,N,2014_Feb_20_1619,P14,
stim_fb/ques.jpg,stim_fb/posf.jpg,stim_fb/negf.jpg,stim_01/e.jpg,stim_01/f.jpg,2,3,j,3,5,185,58,j,1,0.566538287682,01,01,60.0231086328,PLT_learning_01,N,2014_Feb_20_1619,P14,
stim_fb/ques.jpg,stim_fb/posf.jpg,stim_fb/negf.jpg,stim_01/b.jpg,stim_01/a.jpg,1,1,f,3,6,186,8,f,1,0.399923838167,01,01,60.0231086328,PLT_learning_01,N,2014_Feb_20_1619,P14,
stim_fb/ques.jpg,stim_fb/negf.jpg,stim_fb/posf.jpg,stim_01/b.jpg,stim_01/a.jpg,1,1,f,3,7,187,5,j,0,0.266619047977,01,01,60.0231086328,PLT_learning_01,N,2014_Feb_20_1619,P14,
stim_fb/ques.jpg,stim_fb/negf.jpg,stim_fb/posf.jpg,stim_01/f.jpg,stim_01/e.jpg,1,3,f,3,8,188,44,j,0,1.01636179277,01,01,60.0231086328,PLT_learning_01,N,2014_Feb_20_1619,P14,
stim_fb/ques.jpg,stim_fb/negf.jpg,stim_fb/posf.jpg,stim_01/f.jpg,stim_01/e.jpg,1,3,f,3,9,189,45,f,1,0.566525671236,01,01,60.0231086328,PLT_learning_01,N,2014_Feb_20_1619,P14,
stim_fb/ques.jpg,stim_fb/negf.jpg,stim_fb/posf.jpg,stim_01/a.jpg,stim_01/b.jpg,2,1,j,3,10,190,16,j,1,0.63315691461,01,01,60.0231086328,PLT_learning_01,N,2014_Feb_20_1619,P14,
stim_fb/ques.jpg,stim_fb/posf.jpg,stim_fb/negf.jpg,stim_01/f.jpg,stim_01/e.jpg,1,3,f,3,11,191,49,f,1,0.616515836723,01,01,60.0231086328,PLT_learning_01,N,2014_Feb_20_1619,P14,
stim_fb/ques.jpg,stim_fb/negf.jpg,stim_fb/posf.jpg,stim_01/e.jpg,stim_01/f.jpg,2,3,j,3,12,192,52,j,1,0.766460712325,01,01,60.0231086328,PLT_learning_01,N,2014_Feb_20_1619,P14,
stim_fb/ques.jpg,stim_fb/posf.jpg,stim_fb/negf.jpg,stim_01/d.jpg,stim_01/c.jpg,1,2,f,3,13,193,29,f,1,0.866430441876,01,01,60.0231086328,PLT_learning_01,N,2014_Feb_20_1619,P14,
stim_fb/ques.jpg,stim_fb/negf.jpg,stim_fb/posf.jpg,stim_01/d.jpg,stim_01/c.jpg,1,2,f,3,14,194,26,f,1,0.649837255359,01,01,60.0231086328,PLT_learning_01,N,2014_Feb_20_1619,P14,
stim_fb/ques.jpg,stim_fb/negf.jpg,stim_fb/posf.jpg,stim_01/b.jpg,stim_01/a.jpg,1,1,f,3,15,195,0,f,1,0.566508835272,01,01,60.0231086328,PLT_learning_01,N,2014_Feb_20_1619,P14,
stim_fb/ques.jpg,stim_fb/negf.jpg,stim_fb/posf.jpg,stim_01/d.jpg,stim_01/c.jpg,1,2,f,3,16,196,21,f,1,0.799783436215,01,01,60.0231086328,PLT_learning_01,N,2014_Feb_20_1619,P14,
stim_fb/ques.jpg,stim_fb/posf.jpg,stim_fb/negf.jpg,stim_01/b.jpg,stim_01/a.jpg,1,1,f,3,17,197,9,f,1,0.699823778769,01,01,60.0231086328,PLT_learning_01,N,2014_Feb_20_1619,P14,
stim_fb/ques.jpg,stim_fb/negf.jpg,stim_fb/posf.jpg,stim_01/a.jpg,stim_01/b.jpg,2,1,j,3,18,198,15,j,1,0.683167624304,01,01,60.0231086328,PLT_learning_01,N,2014_Feb_20_1619,P14,
stim_fb/ques.jpg,stim_fb/negf.jpg,stim_fb/posf.jpg,stim_01/d.jpg,stim_01/c.jpg,1,2,f,3,19,199,20,f,1,0.583214851016,01,01,60.0231086328,PLT_learning_01,N,2014_Feb_20_1619,P14,
stim_fb/ques.jpg,stim_fb/posf.jpg,stim_fb/negf.jpg,stim_01/e.jpg,stim_01/f.jpg,2,3,j,3,20,200,59,j,1,0.999721211119,01,01,60.0231086328,PLT_learning_01,N,2014_Feb_20_1619,P14,
stim_fb/ques.jpg,stim_fb/negf.jpg,stim_fb/posf.jpg,stim_01/a.jpg,stim_01/b.jpg,2,1,j,3,21,201,12,j,1,0.799787947459,01,01,60.0231086328,PLT_learning_01,N,2014_Feb_20_1619,P14,
stim_fb/ques.jpg,stim_fb/posf.jpg,stim_fb/negf.jpg,stim_01/c.jpg,stim_01/d.jpg,2,2,j,3,22,202,38,j,1,0.69984231096,01,01,60.0231086328,PLT_learning_01,N,2014_Feb_20_1619,P14,
stim_fb/ques.jpg,stim_fb/posf.jpg,stim_fb/negf.jpg,stim_01/e.jpg,stim_01/f.jpg,2,3,j,3,23,203,56,j,1,0.766469575417,01,01,60.0231086328,PLT_learning_01,N,2014_Feb_20_1619,P14,
stim_fb/ques.jpg,stim_fb/negf.jpg,stim_fb/posf.jpg,stim_01/e.jpg,stim_01/f.jpg,2,3,j,3,24,204,50,f,0,0.699789348952,01,01,60.0231086328,PLT_learning_01,N,2014_Feb_20_1619,P14,
stim_fb/ques.jpg,stim_fb/negf.jpg,stim_fb/posf.jpg,stim_01/b.jpg,stim_01/a.jpg,1,1,f,3,25,205,2,f,1,0.66652648326,01,01,60.0231086328,PLT_learning_01,N,2014_Feb_20_1619,P14,
stim_fb/ques.jpg,stim_fb/negf.jpg,stim_fb/posf.jpg,stim_01/d.jpg,stim_01/c.jpg,1,2,f,3,26,206,25,f,1,0.633151086082,01,01,60.0231086328,PLT_learning_01,N,2014_Feb_20_1619,P14,
stim_fb/ques.jpg,stim_fb/negf.jpg,stim_fb/posf.jpg,stim_01/b.jpg,stim_01/a.jpg,1,1,f,3,27,207,7,f,1,0.983062837121,01,01,60.0231086328,PLT_learning_01,N,2014_Feb_20_1619,P14,
stim_fb/ques.jpg,stim_fb/posf.jpg,stim_fb/negf.jpg,stim_01/f.jpg,stim_01/e.jpg,1,3,f,3,28,208,47,f,1,0.933097949639,01,01,60.0231086328,PLT_learning_01,N,2014_Feb_20_1619,P14,
stim_fb/ques.jpg,stim_fb/negf.jpg,stim_fb/posf.jpg,stim_01/a.jpg,stim_01/b.jpg,2,1,j,3,29,209,17,j,1,0.799797276712,01,01,60.0231086328,PLT_learning_01,N,2014_Feb_20_1619,P14,
stim_fb/ques.jpg,stim_fb/negf.jpg,stim_fb/posf.jpg,stim_01/b.jpg,stim_01/a.jpg,1,1,f,3,30,210,1,f,1,0.716517611146,01,01,60.0231086328,PLT_learning_01,N,2014_Feb_20_1619,P14,
stim_fb/ques.jpg,stim_fb/negf.jpg,stim_fb/posf.jpg,stim_01/f.jpg,stim_01/e.jpg,1,3,f,3,31,211,43,j,0,0.983058792039,01,01,60.0231086328,PLT_learning_01,N,2014_Feb_20_1619,P14,
stim_fb/ques.jpg,stim_fb/posf.jpg,stim_fb/negf.jpg,stim_01/c.jpg,stim_01/d.jpg,2,2,j,3,32,212,39,j,1,0.98304639514,01,01,60.0231086328,PLT_learning_01,N,2014_Feb_20_1619,P14,
stim_fb/ques.jpg,stim_fb/posf.jpg,stim_fb/negf.jpg,stim_01/c.jpg,stim_01/d.jpg,2,2,j,3,33,213,37,f,0,0.666511319464,01,01,60.0231086328,PLT_learning_01,N,2014_Feb_20_1619,P14,
stim_fb/ques.jpg,stim_fb/negf.jpg,stim_fb/posf.jpg,stim_01/b.jpg,stim_01/a.jpg,1,1,f,3,34,214,4,f,1,1.11634400944,01,01,60.0231086328,PLT_learning_01,N,2014_Feb_20_1619,P14,
stim_fb/ques.jpg,stim_fb/negf.jpg,stim_fb/posf.jpg,stim_01/f.jpg,stim_01/e.jpg,1,3,f,3,35,215,42,f,1,1.08300690672,01,01,60.0231086328,PLT_learning_01,N,2014_Feb_20_1619,P14,
stim_fb/ques.jpg,stim_fb/negf.jpg,stim_fb/posf.jpg,stim_01/f.jpg,stim_01/e.jpg,1,3,f,3,36,216,40,f,1,0.84980285261,01,01,60.0231086328,PLT_learning_01,N,2014_Feb_20_1619,P14,
stim_fb/ques.jpg,stim_fb/negf.jpg,stim_fb/posf.jpg,stim_01/c.jpg,stim_01/d.jpg,2,2,j,3,37,217,30,f,0,1.41619997143,01,01,60.0231086328,PLT_learning_01,N,2014_Feb_20_1619,P14,
stim_fb/ques.jpg,stim_fb/negf.jpg,stim_fb/posf.jpg,stim_01/c.jpg,stim_01/d.jpg,2,2,j,3,38,218,34,f,0,1.13300946309,01,01,60.0231086328,PLT_learning_01,N,2014_Feb_20_1619,P14,
stim_fb/ques.jpg,stim_fb/negf.jpg,stim_fb/posf.jpg,stim_01/e.jpg,stim_01/f.jpg,2,3,j,3,39,219,55,None,0,,01,01,60.0231086328,PLT_learning_01,N,2014_Feb_20_1619,P14,
stim_fb/ques.jpg,stim_fb/posf.jpg,stim_fb/negf.jpg,stim_01/e.jpg,stim_01/f.jpg,2,3,j,3,40,220,57,j,1,0.549878996399,01,01,60.0231086328,PLT_learning_01,N,2014_Feb_20_1619,P14,
stim_fb/ques.jpg,stim_fb/negf.jpg,stim_fb/posf.jpg,stim_01/a.jpg,stim_01/b.jpg,2,1,j,3,41,221,11,j,1,0.799700913527,01,01,60.0231086328,PLT_learning_01,N,2014_Feb_20_1619,P14,
stim_fb/ques.jpg,stim_fb/posf.jpg,stim_fb/negf.jpg,stim_01/d.jpg,stim_01/c.jpg,1,2,f,3,42,222,28,f,1,0.849756855964,01,01,60.0231086328,PLT_learning_01,N,2014_Feb_20_1619,P14,
stim_fb/ques.jpg,stim_fb/negf.jpg,stim_fb/posf.jpg,stim_01/e.jpg,stim_01/f.jpg,2,3,j,3,43,223,53,f,0,0.999703884933,01,01,60.0231086328,PLT_learning_01,N,2014_Feb_20_1619,P14,
stim_fb/ques.jpg,stim_fb/negf.jpg,stim_fb/posf.jpg,stim_01/d.jpg,stim_01/c.jpg,1,2,f,3,44,224,22,f,1,0.883104349591,01,01,60.0231086328,PLT_learning_01,N,2014_Feb_20_1619,P14,
stim_fb/ques.jpg,stim_fb/negf.jpg,stim_fb/posf.jpg,stim_01/c.jpg,stim_01/d.jpg,2,2,j,3,45,225,32,f,0,1.23297868136,01,01,60.0231086328,PLT_learning_01,N,2014_Feb_20_1619,P14,
stim_fb/ques.jpg,stim_fb/negf.jpg,stim_fb/posf.jpg,stim_01/e.jpg,stim_01/f.jpg,2,3,j,3,46,226,54,j,1,1.16633658694,01,01,60.0231086328,PLT_learning_01,N,2014_Feb_20_1619,P14,
stim_fb/ques.jpg,stim_fb/posf.jpg,stim_fb/negf.jpg,stim_01/f.jpg,stim_01/e.jpg,1,3,f,3,47,227,48,f,1,0.899751081571,01,01,60.0231086328,PLT_learning_01,N,2014_Feb_20_1619,P14,
stim_fb/ques.jpg,stim_fb/posf.jpg,stim_fb/negf.jpg,stim_01/d.jpg,stim_01/c.jpg,1,2,f,3,48,228,27,f,1,1.54957810844,01,01,60.0231086328,PLT_learning_01,N,2014_Feb_20_1619,P14,
stim_fb/ques.jpg,stim_fb/negf.jpg,stim_fb/posf.jpg,stim_01/f.jpg,stim_01/e.jpg,1,3,f,3,49,229,41,f,1,1.1663379734,01,01,60.0231086328,PLT_learning_01,N,2014_Feb_20_1619,P14,
stim_fb/ques.jpg,stim_fb/posf.jpg,stim_fb/negf.jpg,stim_01/a.jpg,stim_01/b.jpg,2,1,j,3,50,230,19,j,1,0.966393882753,01,01,60.0231086328,PLT_learning_01,N,2014_Feb_20_1619,P14,
stim_fb/ques.jpg,stim_fb/negf.jpg,stim_fb/posf.jpg,stim_01/c.jpg,stim_01/d.jpg,2,2,j,3,51,231,35,f,0,1.316298494,01,01,60.0231086328,PLT_learning_01,N,2014_Feb_20_1619,P14,
stim_fb/ques.jpg,stim_fb/negf.jpg,stim_fb/posf.jpg,stim_01/c.jpg,stim_01/d.jpg,2,2,j,3,52,232,33,j,1,0.766459945414,01,01,60.0231086328,PLT_learning_01,N,2014_Feb_20_1619,P14,
stim_fb/ques.jpg,stim_fb/negf.jpg,stim_fb/posf.jpg,stim_01/e.jpg,stim_01/f.jpg,2,3,j,3,53,233,51,j,1,0.799782329456,01,01,60.0231086328,PLT_learning_01,N,2014_Feb_20_1619,P14,
stim_fb/ques.jpg,stim_fb/posf.jpg,stim_fb/negf.jpg,stim_01/a.jpg,stim_01/b.jpg,2,1,j,3,54,234,18,j,1,0.816408234524,01,01,60.0231086328,PLT_learning_01,N,2014_Feb_20_1619,P14,
stim_fb/ques.jpg,stim_fb/negf.jpg,stim_fb/posf.jpg,stim_01/a.jpg,stim_01/b.jpg,2,1,j,3,55,235,13,f,0,0.833090521124,01,01,60.0231086328,PLT_learning_01,N,2014_Feb_20_1619,P14,
stim_fb/ques.jpg,stim_fb/negf.jpg,stim_fb/posf.jpg,stim_01/b.jpg,stim_01/a.jpg,1,1,f,3,56,236,6,f,1,0.64978353847,01,01,60.0231086328,PLT_learning_01,N,2014_Feb_20_1619,P14,
stim_fb/ques.jpg,stim_fb/negf.jpg,stim_fb/posf.jpg,stim_01/a.jpg,stim_01/b.jpg,2,1,j,3,57,237,14,None,0,,01,01,60.0231086328,PLT_learning_01,N,2014_Feb_20_1619,P14,
stim_fb/ques.jpg,stim_fb/posf.jpg,stim_fb/negf.jpg,stim_01/f.jpg,stim_01/e.jpg,1,3,f,3,58,238,46,f,1,0.883104313501,01,01,60.0231086328,PLT_learning_01,N,2014_Feb_20_1619,P14,
stim_fb/ques.jpg,stim_fb/negf.jpg,stim_fb/posf.jpg,stim_01/c.jpg,stim_01/d.jpg,2,2,j,3,59,239,36,j,1,0.566514032225,01,01,60.0231086328,PLT_learning_01,N,2014_Feb_20_1619,P14,
stim_fb/ques.jpg,stim_fb/negf.jpg,stim_fb/posf.jpg,stim_01/b.jpg,stim_01/a.jpg,1,1,f,4,0,240,0,j,0,0.666400631574,01,01,60.0231086328,PLT_learning_01,N,2014_Feb_20_1619,P14,
stim_fb/ques.jpg,stim_fb/posf.jpg,stim_fb/negf.jpg,stim_01/e.jpg,stim_01/f.jpg,2,3,j,4,1,241,56,j,1,0.816456360479,01,01,60.0231086328,PLT_learning_01,N,2014_Feb_20_1619,P14,
stim_fb/ques.jpg,stim_fb/negf.jpg,stim_fb/posf.jpg,stim_01/a.jpg,stim_01/b.jpg,2,1,j,4,2,242,13,j,1,0.56652379155,01,01,60.0231086328,PLT_learning_01,N,2014_Feb_20_1619,P14,
stim_fb/ques.jpg,stim_fb/posf.jpg,stim_fb/negf.jpg,stim_01/b.jpg,stim_01/a.jpg,1,1,f,4,3,243,8,f,1,0.516557944677,01,01,60.0231086328,PLT_learning_01,N,2014_Feb_20_1619,P14,
stim_fb/ques.jpg,stim_fb/negf.jpg,stim_fb/posf.jpg,stim_01/b.jpg,stim_01/a.jpg,1,1,f,4,4,244,1,j,0,0.783078710686,01,01,60.0231086328,PLT_learning_01,N,2014_Feb_20_1619,P14,
stim_fb/ques.jpg,stim_fb/posf.jpg,stim_fb/negf.jpg,stim_01/f.jpg,stim_01/e.jpg,1,3,f,4,5,245,47,f,1,1.04969854061,01,01,60.0231086328,PLT_learning_01,N,2014_Feb_20_1619,P14,
stim_fb/ques.jpg,stim_fb/negf.jpg,stim_fb/posf.jpg,stim_01/b.jpg,stim_01/a.jpg,1,1,f,4,6,246,7,f,1,0.83310929993,01,01,60.0231086328,PLT_learning_01,N,2014_Feb_20_1619,P14,
stim_fb/ques.jpg,stim_fb/negf.jpg,stim_fb/posf.jpg,stim_01/f.jpg,stim_01/e.jpg,1,3,f,4,7,247,43,f,1,1.41623010654,01,01,60.0231086328,PLT_learning_01,N,2014_Feb_20_1619,P14,
stim_fb/ques.jpg,stim_fb/negf.jpg,stim_fb/posf.jpg,stim_01/a.jpg,stim_01/b.jpg,2,1,j,4,8,248,16,j,1,1.03303263284,01,01,60.0231086328,PLT_learning_01,N,2014_Feb_20_1619,P14,
stim_fb/ques.jpg,stim_fb/negf.jpg,stim_fb/posf.jpg,stim_01/c.jpg,stim_01/d.jpg,2,2,j,4,9,249,31,f,0,1.11642671559,01,01,60.0231086328,PLT_learning_01,N,2014_Feb_20_1619,P14,
stim_fb/ques.jpg,stim_fb/negf.jpg,stim_fb/posf.jpg,stim_01/d.jpg,stim_01/c.jpg,1,2,f,4,10,250,26,j,0,0.866369224292,01,01,60.0231086328,PLT_learning_01,N,2014_Feb_20_1619,P14,
stim_fb/ques.jpg,stim_fb/negf.jpg,stim_fb/posf.jpg,stim_01/a.jpg,stim_01/b.jpg,2,1,j,4,11,251,11,j,1,0.482368391215,01,01,60.0231086328,PLT_learning_01,N,2014_Feb_20_1619,P14,
stim_fb/ques.jpg,stim_fb/negf.jpg,stim_fb/posf.jpg,stim_01/b.jpg,stim_01/a.jpg,1,1,f,4,12,252,5,f,1,0.616517385584,01,01,60.0231086328,PLT_learning_01,N,2014_Feb_20_1619,P14,
stim_fb/ques.jpg,stim_fb/negf.jpg,stim_fb/posf.jpg,stim_01/c.jpg,stim_01/d.jpg,2,2,j,4,13,253,33,j,1,0.966361615326,01,01,60.0231086328,PLT_learning_01,N,2014_Feb_20_1619,P14,
stim_fb/ques.jpg,stim_fb/posf.jpg,stim_fb/negf.jpg,stim_01/d.jpg,stim_01/c.jpg,1,2,f,4,14,254,28,f,1,1.03305959504,01,01,60.0231086328,PLT_learning_01,N,2014_Feb_20_1619,P14,
stim_fb/ques.jpg,stim_fb/posf.jpg,stim_fb/negf.jpg,stim_01/f.jpg,stim_01/e.jpg,1,3,f,4,15,255,48,j,0,1.01636941076,01,01,60.0231086328,PLT_learning_01,N,2014_Feb_20_1619,P14,
stim_fb/ques.jpg,stim_fb/negf.jpg,stim_fb/posf.jpg,stim_01/e.jpg,stim_01/f.jpg,2,3,j,4,16,256,50,j,1,0.749804196961,01,01,60.0231086328,PLT_learning_01,N,2014_Feb_20_1619,P14,
stim_fb/ques.jpg,stim_fb/negf.jpg,stim_fb/posf.jpg,stim_01/b.jpg,stim_01/a.jpg,1,1,f,4,17,257,6,f,1,1.34958309787,01,01,60.0231086328,PLT_learning_01,N,2014_Feb_20_1619,P14,
stim_fb/ques.jpg,stim_fb/negf.jpg,stim_fb/posf.jpg,stim_01/d.jpg,stim_01/c.jpg,1,2,f,4,18,258,22,j,0,0.933102145097,01,01,60.0231086328,PLT_learning_01,N,2014_Feb_20_1619,P14,
stim_fb/ques.jpg,stim_fb/posf.jpg,stim_fb/negf.jpg,stim_01/d.jpg,stim_01/c.jpg,1,2,f,4,19,259,27,f,1,0.483221798332,01,01,60.0231086328,PLT_learning_01,N,2014_Feb_20_1619,P14,
stim_fb/ques.jpg,stim_fb/negf.jpg,stim_fb/posf.jpg,stim_01/c.jpg,stim_01/d.jpg,2,2,j,4,20,260,30,f,0,1.06638677604,01,01,60.0231086328,PLT_learning_01,N,2014_Feb_20_1619,P14,
stim_fb/ques.jpg,stim_fb/negf.jpg,stim_fb/posf.jpg,stim_01/d.jpg,stim_01/c.jpg,1,2,f,4,21,261,20,f,1,0.916438917001,01,01,60.0231086328,PLT_learning_01,N,2014_Feb_20_1619,P14,
stim_fb/ques.jpg,stim_fb/negf.jpg,stim_fb/posf.jpg,stim_01/b.jpg,stim_01/a.jpg,1,1,f,4,22,262,4,f,1,0.699790711348,01,01,60.0231086328,PLT_learning_01,N,2014_Feb_20_1619,P14,
stim_fb/ques.jpg,stim_fb/posf.jpg,stim_fb/negf.jpg,stim_01/f.jpg,stim_01/e.jpg,1,3,f,4,23,263,46,j,0,1.18298706326,01,01,60.0231086328,PLT_learning_01,N,2014_Feb_20_1619,P14,
stim_fb/ques.jpg,stim_fb/posf.jpg,stim_fb/negf.jpg,stim_01/b.jpg,stim_01/a.jpg,1,1,f,4,24,264,9,f,1,1.38296140631,01,01,60.0231086328,PLT_learning_01,N,2014_Feb_20_1619,P14,
stim_fb/ques.jpg,stim_fb/posf.jpg,stim_fb/negf.jpg,stim_01/a.jpg,stim_01/b.jpg,2,1,j,4,25,265,19,j,1,1.01638221668,01,01,60.0231086328,PLT_learning_01,N,2014_Feb_20_1619,P14,
stim_fb/ques.jpg,stim_fb/posf.jpg,stim_fb/negf.jpg,stim_01/a.jpg,stim_01/b.jpg,2,1,j,4,26,266,18,j,1,1.16634132074,01,01,60.0231086328,PLT_learning_01,N,2014_Feb_20_1619,P14,
stim_fb/ques.jpg,stim_fb/negf.jpg,stim_fb/posf.jpg,stim_01/b.jpg,stim_01/a.jpg,1,1,f,4,27,267,3,f,1,1.4995330802,01,01,60.0231086328,PLT_learning_01,N,2014_Feb_20_1619,P14,
stim_fb/ques.jpg,stim_fb/negf.jpg,stim_fb/posf.jpg,stim_01/f.jpg,stim_01/e.jpg,1,3,f,4,28,268,40,f,1,1.01636602131,01,01,60.0231086328,PLT_learning_01,N,2014_Feb_20_1619,P14,
stim_fb/ques.jpg,stim_fb/posf.jpg,stim_fb/negf.jpg,stim_01/c.jpg,stim_01/d.jpg,2,2,j,4,29,269,39,f,0,0.949709169104,01,01,60.0231086328,PLT_learning_01,N,2014_Feb_20_1619,P14,
stim_fb/ques.jpg,stim_fb/negf.jpg,stim_fb/posf.jpg,stim_01/a.jpg,stim_01/b.jpg,2,1,j,4,30,270,15,f,0,0.483221503598,01,01,60.0231086328,PLT_learning_01,N,2014_Feb_20_1619,P14,
stim_fb/ques.jpg,stim_fb/negf.jpg,stim_fb/posf.jpg,stim_01/e.jpg,stim_01/f.jpg,2,3,j,4,31,271,54,j,1,0.716490011353,01,01,60.0231086328,PLT_learning_01,N,2014_Feb_20_1619,P14,
stim_fb/ques.jpg,stim_fb/negf.jpg,stim_fb/posf.jpg,stim_01/c.jpg,stim_01/d.jpg,2,2,j,4,32,272,32,j,1,0.699786004616,01,01,60.0231086328,PLT_learning_01,N,2014_Feb_20_1619,P14,
stim_fb/ques.jpg,stim_fb/negf.jpg,stim_fb/posf.jpg,stim_01/d.jpg,stim_01/c.jpg,1,2,f,4,33,273,21,f,1,0.866455455222,01,01,60.0231086328,PLT_learning_01,N,2014_Feb_20_1619,P14,
stim_fb/ques.jpg,stim_fb/negf.jpg,stim_fb/posf.jpg,stim_01/a.jpg,stim_01/b.jpg,2,1,j,4,34,274,17,f,0,0.299936857617,01,01,60.0231086328,PLT_learning_01,N,2014_Feb_20_1619,P14,
stim_fb/ques.jpg,stim_fb/negf.jpg,stim_fb/posf.jpg,stim_01/f.jpg,stim_01/e.jpg,1,3,f,4,35,275,44,j,0,1.14967322652,01,01,60.0231086328,PLT_learning_01,N,2014_Feb_20_1619,P14,
stim_fb/ques.jpg,stim_fb/negf.jpg,stim_fb/posf.jpg,stim_01/f.jpg,stim_01/e.jpg,1,3,f,4,36,276,41,f,1,0.716475118232,01,01,60.0231086328,PLT_learning_01,N,2014_Feb_20_1619,P14,
stim_fb/ques.jpg,stim_fb/negf.jpg,stim_fb/posf.jpg,stim_01/a.jpg,stim_01/b.jpg,2,1,j,4,37,277,12,j,1,1.01639501357,01,01,60.0231086328,PLT_learning_01,N,2014_Feb_20_1619,P14,
stim_fb/ques.jpg,stim_fb/negf.jpg,stim_fb/posf.jpg,stim_01/c.jpg,stim_01/d.jpg,2,2,j,4,38,278,35,f,0,1.05071296607,01,01,60.0231086328,PLT_learning_01,N,2014_Feb_20_1619,P14,
stim_fb/ques.jpg,stim_fb/negf.jpg,stim_fb/posf.jpg,stim_01/d.jpg,stim_01/c.jpg,1,2,f,4,39,279,24,f,1,0.733119874287,01,01,60.0231086328,PLT_learning_01,N,2014_Feb_20_1619,P14,
stim_fb/ques.jpg,stim_fb/posf.jpg,stim_fb/negf.jpg,stim_01/e.jpg,stim_01/f.jpg,2,3,j,4,40,280,59,f,0,0.783089303088,01,01,60.0231086328,PLT_learning_01,N,2014_Feb_20_1619,P14,
stim_fb/ques.jpg,stim_fb/negf.jpg,stim_fb/posf.jpg,stim_01/c.jpg,stim_01/d.jpg,2,2,j,4,41,281,34,j,1,0.56650277216,01,01,60.0231086328,PLT_learning_01,N,2014_Feb_20_1619,P14,
stim_fb/ques.jpg,stim_fb/posf.jpg,stim_fb/negf.jpg,stim_01/f.jpg,stim_01/e.jpg,1,3,f,4,42,282,49,j,0,0.566525866723,01,01,60.0231086328,PLT_learning_01,N,2014_Feb_20_1619,P14,
stim_fb/ques.jpg,stim_fb/posf.jpg,stim_fb/negf.jpg,stim_01/c.jpg,stim_01/d.jpg,2,2,j,4,43,283,38,f,0,0.949740753829,01,01,60.0231086328,PLT_learning_01,N,2014_Feb_20_1619,P14,
stim_fb/ques.jpg,stim_fb/negf.jpg,stim_fb/posf.jpg,stim_01/e.jpg,stim_01/f.jpg,2,3,j,4,44,284,52,j,1,0.616575670859,01,01,60.0231086328,PLT_learning_01,N,2014_Feb_20_1619,P14,
stim_fb/ques.jpg,stim_fb/negf.jpg,stim_fb/posf.jpg,stim_01/e.jpg,stim_01/f.jpg,2,3,j,4,45,285,53,f,0,0.449921233675,01,01,60.0231086328,PLT_learning_01,N,2014_Feb_20_1619,P14,
stim_fb/ques.jpg,stim_fb/negf.jpg,stim_fb/posf.jpg,stim_01/b.jpg,stim_01/a.jpg,1,1,f,4,46,286,2,f,1,0.533238324524,01,01,60.0231086328,PLT_learning_01,N,2014_Feb_20_1619,P14,
stim_fb/ques.jpg,stim_fb/negf.jpg,stim_fb/posf.jpg,stim_01/e.jpg,stim_01/f.jpg,2,3,j,4,47,287,55,j,1,0.549887648965,01,01,60.0231086328,PLT_learning_01,N,2014_Feb_20_1619,P14,
stim_fb/ques.jpg,stim_fb/posf.jpg,stim_fb/negf.jpg,stim_01/e.jpg,stim_01/f.jpg,2,3,j,4,48,288,57,f,0,0.466567448365,01,01,60.0231086328,PLT_learning_01,N,2014_Feb_20_1619,P14,
stim_fb/ques.jpg,stim_fb/negf.jpg,stim_fb/posf.jpg,stim_01/a.jpg,stim_01/b.jpg,2,1,j,4,49,289,10,j,1,0.516538477154,01,01,60.0231086328,PLT_learning_01,N,2014_Feb_20_1619,P14,
stim_fb/ques.jpg,stim_fb/negf.jpg,stim_fb/posf.jpg,stim_01/f.jpg,stim_01/e.jpg,1,3,f,4,50,290,42,j,0,0.833100054887,01,01,60.0231086328,PLT_learning_01,N,2014_Feb_20_1619,P14,
stim_fb/ques.jpg,stim_fb/negf.jpg,stim_fb/posf.jpg,stim_01/f.jpg,stim_01/e.jpg,1,3,f,4,51,291,45,f,1,0.566561731115,01,01,60.0231086328,PLT_learning_01,N,2014_Feb_20_1619,P14,
stim_fb/ques.jpg,stim_fb/negf.jpg,stim_fb/posf.jpg,stim_01/e.jpg,stim_01/f.jpg,2,3,j,4,52,292,51,j,1,0.583170472403,01,01,60.0231086328,PLT_learning_01,N,2014_Feb_20_1619,P14,
stim_fb/ques.jpg,stim_fb/posf.jpg,stim_fb/negf.jpg,stim_01/d.jpg,stim_01/c.jpg,1,2,f,4,53,293,29,f,1,0.699816885587,01,01,60.0231086328,PLT_learning_01,N,2014_Feb_20_1619,P14,
stim_fb/ques.jpg,stim_fb/negf.jpg,stim_fb/posf.jpg,stim_01/d.jpg,stim_01/c.jpg,1,2,f,4,54,294,23,j,0,0.566558513094,01,01,60.0231086328,PLT_learning_01,N,2014_Feb_20_1619,P14,
stim_fb/ques.jpg,stim_fb/negf.jpg,stim_fb/posf.jpg,stim_01/a.jpg,stim_01/b.jpg,2,1,j,4,55,295,14,f,0,0.833122984038,01,01,60.0231086328,PLT_learning_01,N,2014_Feb_20_1619,P14,
stim_fb/ques.jpg,stim_fb/negf.jpg,stim_fb/posf.jpg,stim_01/c.jpg,stim_01/d.jpg,2,2,j,4,56,296,36,j,1,0.816437831294,01,01,60.0231086328,PLT_learning_01,N,2014_Feb_20_1619,P14,
stim_fb/ques.jpg,stim_fb/negf.jpg,stim_fb/posf.jpg,stim_01/d.jpg,stim_01/c.jpg,1,2,f,4,57,297,25,j,0,0.216627077992,01,01,60.0231086328,PLT_learning_01,N,2014_Feb_20_1619,P14,
stim_fb/ques.jpg,stim_fb/posf.jpg,stim_fb/negf.jpg,stim_01/c.jpg,stim_01/d.jpg,2,2,j,4,58,298,37,f,0,0.833095651912,01,01,60.0231086328,PLT_learning_01,N,2014_Feb_20_1619,P14,
stim_fb/ques.jpg,stim_fb/posf.jpg,stim_fb/negf.jpg,stim_01/e.jpg,stim_01/f.jpg,2,3,j,4,59,299,58,j,1,1.54955062593,01,01,60.0231086328,PLT_learning_01,N,2014_Feb_20_1619,P14,
stim_fb/ques.jpg,stim_fb/negf.jpg,stim_fb/posf.jpg,stim_01/e.jpg,stim_01/f.jpg,2,3,j,5,0,300,55,j,1,0.683139687671,01,01,60.0231086328,PLT_learning_01,N,2014_Feb_20_1619,P14,
stim_fb/ques.jpg,stim_fb/negf.jpg,stim_fb/posf.jpg,stim_01/e.jpg,stim_01/f.jpg,2,3,j,5,1,301,51,j,1,0.583207864603,01,01,60.0231086328,PLT_learning_01,N,2014_Feb_20_1619,P14,
stim_fb/ques.jpg,stim_fb/posf.jpg,stim_fb/negf.jpg,stim_01/f.jpg,stim_01/e.jpg,1,3,f,5,2,302,46,f,1,0.733127320847,01,01,60.0231086328,PLT_learning_01,N,2014_Feb_20_1619,P14,
stim_fb/ques.jpg,stim_fb/negf.jpg,stim_fb/posf.jpg,stim_01/c.jpg,stim_01/d.jpg,2,2,j,5,3,303,33,f,0,0.81641238487,01,01,60.0231086328,PLT_learning_01,N,2014_Feb_20_1619,P14,
stim_fb/ques.jpg,stim_fb/posf.jpg,stim_fb/negf.jpg,stim_01/f.jpg,stim_01/e.jpg,1,3,f,5,4,304,47,j,0,0.549858593545,01,01,60.0231086328,PLT_learning_01,N,2014_Feb_20_1619,P14,
stim_fb/ques.jpg,stim_fb/negf.jpg,stim_fb/posf.jpg,stim_01/d.jpg,stim_01/c.jpg,1,2,f,5,5,305,22,j,0,0.599859240156,01,01,60.0231086328,PLT_learning_01,N,2014_Feb_20_1619,P14,
stim_fb/ques.jpg,stim_fb/negf.jpg,stim_fb/posf.jpg,stim_01/e.jpg,stim_01/f.jpg,2,3,j,5,6,306,50,j,1,0.799784311396,01,01,60.0231086328,PLT_learning_01,N,2014_Feb_20_1619,P14,
stim_fb/ques.jpg,stim_fb/posf.jpg,stim_fb/negf.jpg,stim_01/e.jpg,stim_01/f.jpg,2,3,j,5,7,307,59,j,1,0.583192712837,01,01,60.0231086328,PLT_learning_01,N,2014_Feb_20_1619,P14,
stim_fb/ques.jpg,stim_fb/negf.jpg,stim_fb/posf.jpg,stim_01/a.jpg,stim_01/b.jpg,2,1,j,5,8,308,16,f,0,0.416567231825,01,01,60.0231086328,PLT_learning_01,N,2014_Feb_20_1619,P14,
stim_fb/ques.jpg,stim_fb/posf.jpg,stim_fb/negf.jpg,stim_01/d.jpg,stim_01/c.jpg,1,2,f,5,9,309,28,j,0,0.683148797378,01,01,60.0231086328,PLT_learning_01,N,2014_Feb_20_1619,P14,
stim_fb/ques.jpg,stim_fb/negf.jpg,stim_fb/posf.jpg,stim_01/e.jpg,stim_01/f.jpg,2,3,j,5,10,310,52,f,0,0.966402562387,01,01,60.0231086328,PLT_learning_01,N,2014_Feb_20_1619,P14,
stim_fb/ques.jpg,stim_fb/posf.jpg,stim_fb/negf.jpg,stim_01/e.jpg,stim_01/f.jpg,2,3,j,5,11,311,57,j,1,0.583201461643,01,01,60.0231086328,PLT_learning_01,N,2014_Feb_20_1619,P14,
stim_fb/ques.jpg,stim_fb/negf.jpg,stim_fb/posf.jpg,stim_01/d.jpg,stim_01/c.jpg,1,2,f,5,12,312,25,f,1,0.599857727385,01,01,60.0231086328,PLT_learning_01,N,2014_Feb_20_1619,P14,
stim_fb/ques.jpg,stim_fb/negf.jpg,stim_fb/posf.jpg,stim_01/d.jpg,stim_01/c.jpg,1,2,f,5,13,313,26,f,1,0.799812266073,01,01,60.0231086328,PLT_learning_01,N,2014_Feb_20_1619,P14,
stim_fb/ques.jpg,stim_fb/negf.jpg,stim_fb/posf.jpg,stim_01/f.jpg,stim_01/e.jpg,1,3,f,5,14,314,40,j,0,1.26630445485,01,01,60.0231086328,PLT_learning_01,N,2014_Feb_20_1619,P14,
stim_fb/ques.jpg,stim_fb/negf.jpg,stim_fb/posf.jpg,stim_01/c.jpg,stim_01/d.jpg,2,2,j,5,15,315,31,j,1,0.933047944,01,01,60.0231086328,PLT_learning_01,N,2014_Feb_20_1619,P14,
stim_fb/ques.jpg,stim_fb/negf.jpg,stim_fb/posf.jpg,stim_01/a.jpg,stim_01/b.jpg,2,1,j,5,16,316,12,j,1,1.01638355501,01,01,60.0231086328,PLT_learning_01,N,2014_Feb_20_1619,P14,
stim_fb/ques.jpg,stim_fb/posf.jpg,stim_fb/negf.jpg,stim_01/b.jpg,stim_01/a.jpg,1,1,f,5,17,317,8,j,0,1.68280414433,01,01,60.0231086328,PLT_learning_01,N,2014_Feb_20_1619,P14,
stim_fb/ques.jpg,stim_fb/negf.jpg,stim_fb/posf.jpg,stim_01/e.jpg,stim_01/f.jpg,2,3,j,5,18,318,54,j,1,1.04969287148,01,01,60.0231086328,PLT_learning_01,N,2014_Feb_20_1619,P14,
stim_fb/ques.jpg,stim_fb/negf.jpg,stim_fb/posf.jpg,stim_01/d.jpg,stim_01/c.jpg,1,2,f,5,19,319,24,f,1,0.716499785716,01,01,60.0231086328,PLT_learning_01,N,2014_Feb_20_1619,P14,
stim_fb/ques.jpg,stim_fb/negf.jpg,stim_fb/posf.jpg,stim_01/b.jpg,stim_01/a.jpg,1,1,f,5,20,320,4,f,1,0.666496330103,01,01,60.0231086328,PLT_learning_01,N,2014_Feb_20_1619,P14,
stim_fb/ques.jpg,stim_fb/posf.jpg,stim_fb/negf.jpg,stim_01/f.jpg,stim_01/e.jpg,1,3,f,5,21,321,49,j,0,1.58288133473,01,01,60.0231086328,PLT_learning_01,N,2014_Feb_20_1619,P14,
stim_fb/ques.jpg,stim_fb/negf.jpg,stim_fb/posf.jpg,stim_01/f.jpg,stim_01/e.jpg,1,3,f,5,22,322,42,j,0,0.699801294727,01,01,60.0231086328,PLT_learning_01,N,2014_Feb_20_1619,P14,
stim_fb/ques.jpg,stim_fb/posf.jpg,stim_fb/negf.jpg,stim_01/e.jpg,stim_01/f.jpg,2,3,j,5,23,323,56,f,0,1.41624946279,01,01,60.0231086328,PLT_learning_01,N,2014_Feb_20_1619,P14,
stim_fb/ques.jpg,stim_fb/posf.jpg,stim_fb/negf.jpg,stim_01/d.jpg,stim_01/c.jpg,1,2,f,5,24,324,29,f,1,0.699834268915,01,01,60.0231086328,PLT_learning_01,N,2014_Feb_20_1619,P14,
stim_fb/ques.jpg,stim_fb/negf.jpg,stim_fb/posf.jpg,stim_01/a.jpg,stim_01/b.jpg,2,1,j,5,25,325,10,j,1,0.549877534755,01,01,60.0231086328,PLT_learning_01,N,2014_Feb_20_1619,P14,
stim_fb/ques.jpg,stim_fb/posf.jpg,stim_fb/negf.jpg,stim_01/c.jpg,stim_01/d.jpg,2,2,j,5,26,326,39,j,1,1.46622162239,01,01,60.0231086328,PLT_learning_01,N,2014_Feb_20_1619,P14,
stim_fb/ques.jpg,stim_fb/negf.jpg,stim_fb/posf.jpg,stim_01/e.jpg,stim_01/f.jpg,2,3,j,5,27,327,53,j,1,1.04971725927,01,01,60.0231086328,PLT_learning_01,N,2014_Feb_20_1619,P14,
stim_fb/ques.jpg,stim_fb/negf.jpg,stim_fb/posf.jpg,stim_01/c.jpg,stim_01/d.jpg,2,2,j,5,28,328,30,f,0,1.43296769197,01,01,60.0231086328,PLT_learning_01,N,2014_Feb_20_1619,P14,
stim_fb/ques.jpg,stim_fb/negf.jpg,stim_fb/posf.jpg,stim_01/b.jpg,stim_01/a.jpg,1,1,f,5,29,329,1,f,1,1.03303415764,01,01,60.0231086328,PLT_learning_01,N,2014_Feb_20_1619,P14,
stim_fb/ques.jpg,stim_fb/negf.jpg,stim_fb/posf.jpg,stim_01/b.jpg,stim_01/a.jpg,1,1,f,5,30,330,2,f,1,0.983040025263,01,01,60.0231086328,PLT_learning_01,N,2014_Feb_20_1619,P14,
stim_fb/ques.jpg,stim_fb/negf.jpg,stim_fb/posf.jpg,stim_01/b.jpg,stim_01/a.jpg,1,1,f,5,31,331,6,None,0,,01,01,60.0231086328,PLT_learning_01,N,2014_Feb_20_1619,P14,
stim_fb/ques.jpg,stim_fb/negf.jpg,stim_fb/posf.jpg,stim_01/b.jpg,stim_01/a.jpg,1,1,f,5,32,332,5,f,1,0.49990342629,01,01,60.0231086328,PLT_learning_01,N,2014_Feb_20_1619,P14,
stim_fb/ques.jpg,stim_fb/negf.jpg,stim_fb/posf.jpg,stim_01/f.jpg,stim_01/e.jpg,1,3,f,5,33,333,44,j,0,1.03305314095,01,01,60.0231086328,PLT_learning_01,N,2014_Feb_20_1619,P14,
stim_fb/ques.jpg,stim_fb/negf.jpg,stim_fb/posf.jpg,stim_01/f.jpg,stim_01/e.jpg,1,3,f,5,34,334,45,f,1,1.19970244133,01,01,60.0231086328,PLT_learning_01,N,2014_Feb_20_1619,P14,
stim_fb/ques.jpg,stim_fb/negf.jpg,stim_fb/posf.jpg,stim_01/c.jpg,stim_01/d.jpg,2,2,j,5,35,335,36,j,1,1.06638221066,01,01,60.0231086328,PLT_learning_01,N,2014_Feb_20_1619,P14,
stim_fb/ques.jpg,stim_fb/negf.jpg,stim_fb/posf.jpg,stim_01/c.jpg,stim_01/d.jpg,2,2,j,5,36,336,34,j,1,1.16632973587,01,01,60.0231086328,PLT_learning_01,N,2014_Feb_20_1619,P14,
stim_fb/ques.jpg,stim_fb/negf.jpg,stim_fb/posf.jpg,stim_01/b.jpg,stim_01/a.jpg,1,1,f,5,37,337,3,f,1,0.799753373283,01,01,60.0231086328,PLT_learning_01,N,2014_Feb_20_1619,P14,
stim_fb/ques.jpg,stim_fb/posf.jpg,stim_fb/negf.jpg,stim_01/d.jpg,stim_01/c.jpg,1,2,f,5,38,338,27,f,1,1.16634028015,01,01,60.0231086328,PLT_learning_01,N,2014_Feb_20_1619,P14,
stim_fb/ques.jpg,stim_fb/negf.jpg,stim_fb/posf.jpg,stim_01/b.jpg,stim_01/a.jpg,1,1,f,5,39,339,0,f,1,0.666514696882,01,01,60.0231086328,PLT_learning_01,N,2014_Feb_20_1619,P14,
stim_fb/ques.jpg,stim_fb/posf.jpg,stim_fb/negf.jpg,stim_01/f.jpg,stim_01/e.jpg,1,3,f,5,40,340,48,f,1,1.28291203826,01,01,60.0231086328,PLT_learning_01,N,2014_Feb_20_1619,P14,
stim_fb/ques.jpg,stim_fb/posf.jpg,stim_fb/negf.jpg,stim_01/e.jpg,stim_01/f.jpg,2,3,j,5,41,341,58,f,0,1.09968270614,01,01,60.0231086328,PLT_learning_01,N,2014_Feb_20_1619,P14,
stim_fb/ques.jpg,stim_fb/posf.jpg,stim_fb/negf.jpg,stim_01/a.jpg,stim_01/b.jpg,2,1,j,5,42,342,19,j,1,0.899761707054,01,01,60.0231086328,PLT_learning_01,N,2014_Feb_20_1619,P14,
stim_fb/ques.jpg,stim_fb/negf.jpg,stim_fb/posf.jpg,stim_01/f.jpg,stim_01/e.jpg,1,3,f,5,43,343,41,j,0,1.39959848121,01,01,60.0231086328,PLT_learning_01,N,2014_Feb_20_1619,P14,
stim_fb/ques.jpg,stim_fb/negf.jpg,stim_fb/posf.jpg,stim_01/d.jpg,stim_01/c.jpg,1,2,f,5,44,344,21,j,0,1.03305146277,01,01,60.0231086328,PLT_learning_01,N,2014_Feb_20_1619,P14,
stim_fb/ques.jpg,stim_fb/negf.jpg,stim_fb/posf.jpg,stim_01/b.jpg,stim_01/a.jpg,1,1,f,5,45,345,7,f,1,0.616483521177,01,01,60.0231086328,PLT_learning_01,N,2014_Feb_20_1619,P14,
stim_fb/ques.jpg,stim_fb/posf.jpg,stim_fb/negf.jpg,stim_01/a.jpg,stim_01/b.jpg,2,1,j,5,46,346,18,j,1,0.733148995872,01,01,60.0231086328,PLT_learning_01,N,2014_Feb_20_1619,P14,
stim_fb/ques.jpg,stim_fb/negf.jpg,stim_fb/posf.jpg,stim_01/a.jpg,stim_01/b.jpg,2,1,j,5,47,347,13,f,0,0.43322181337,01,01,60.0231086328,PLT_learning_01,N,2014_Feb_20_1619,P14,
stim_fb/ques.jpg,stim_fb/posf.jpg,stim_fb/negf.jpg,stim_01/c.jpg,stim_01/d.jpg,2,2,j,5,48,348,37,j,1,1.18295830858,01,01,60.0231086328,PLT_learning_01,N,2014_Feb_20_1619,P14,
stim_fb/ques.jpg,stim_fb/negf.jpg,stim_fb/posf.jpg,stim_01/d.jpg,stim_01/c.jpg,1,2,f,5,49,349,20,f,1,0.516477719716,01,01,60.0231086328,PLT_learning_01,N,2014_Feb_20_1619,P14,
stim_fb/ques.jpg,stim_fb/negf.jpg,stim_fb/posf.jpg,stim_01/c.jpg,stim_01/d.jpg,2,2,j,5,50,350,32,j,1,1.01642266148,01,01,60.0231086328,PLT_learning_01,N,2014_Feb_20_1619,P14,
stim_fb/ques.jpg,stim_fb/negf.jpg,stim_fb/posf.jpg,stim_01/c.jpg,stim_01/d.jpg,2,2,j,5,51,351,35,j,1,0.73314682446,01,01,60.0231086328,PLT_learning_01,N,2014_Feb_20_1619,P14,
stim_fb/ques.jpg,stim_fb/negf.jpg,stim_fb/posf.jpg,stim_01/a.jpg,stim_01/b.jpg,2,1,j,5,52,352,11,j,1,0.833096728596,01,01,60.0231086328,PLT_learning_01,N,2014_Feb_20_1619,P14,
stim_fb/ques.jpg,stim_fb/negf.jpg,stim_fb/posf.jpg,stim_01/d.jpg,stim_01/c.jpg,1,2,f,5,53,353,23,None,0,,01,01,60.0231086328,PLT_learning_01,N,2014_Feb_20_1619,P14,
stim_fb/ques.jpg,stim_fb/negf.jpg,stim_fb/posf.jpg,stim_01/a.jpg,stim_01/b.jpg,2,1,j,5,54,354,17,j,1,0.549842184645,01,01,60.0231086328,PLT_learning_01,N,2014_Feb_20_1619,P14,
stim_fb/ques.jpg,stim_fb/negf.jpg,stim_fb/posf.jpg,stim_01/a.jpg,stim_01/b.jpg,2,1,j,5,55,355,15,j,1,0.649808061593,01,01,60.0231086328,PLT_learning_01,N,2014_Feb_20_1619,P14,
stim_fb/ques.jpg,stim_fb/negf.jpg,stim_fb/posf.jpg,stim_01/a.jpg,stim_01/b.jpg,2,1,j,5,56,356,14,j,1,0.54984008842,01,01,60.0231086328,PLT_learning_01,N,2014_Feb_20_1619,P14,
stim_fb/ques.jpg,stim_fb/posf.jpg,stim_fb/negf.jpg,stim_01/b.jpg,stim_01/a.jpg,1,1,f,5,57,357,9,f,1,0.783093970722,01,01,60.0231086328,PLT_learning_01,N,2014_Feb_20_1619,P14,
stim_fb/ques.jpg,stim_fb/negf.jpg,stim_fb/posf.jpg,stim_01/f.jpg,stim_01/e.jpg,1,3,f,5,58,358,43,j,0,1.4495766107,01,01,60.0231086328,PLT_learning_01,N,2014_Feb_20_1619,P14,
stim_fb/ques.jpg,stim_fb/posf.jpg,stim_fb/negf.jpg,stim_01/c.jpg,stim_01/d.jpg,2,2,j,5,59,359,38,j,1,0.733151221419,01,01,60.0231086328,PLT_learning_01,N,2014_Feb_20_1619,P14,
