Fb3,Fb2,Fb1,Symbol2,Symbol1,PosCond,Pair,Correct,trials.thisRepN,trials.thisTrialN,trials.thisN,trials.thisIndex,Response.keys,Response.corr,Response.rt,Version,Session Number,frameRate,expName,StimCondition,date,Participant,
stim_fb/ques.jpg,stim_fb/negf.jpg,stim_fb/posf.jpg,stim_01/a.jpg,stim_01/b.jpg,2,1,j,0,0,0,11,None,0,,01,01,60.0183208835,PLT_learning_01,N,2014_Feb_24_1751,P15,
stim_fb/ques.jpg,stim_fb/negf.jpg,stim_fb/posf.jpg,stim_01/c.jpg,stim_01/d.jpg,2,2,j,0,1,1,33,j,1,1.16636876114,01,01,60.0183208835,PLT_learning_01,N,2014_Feb_24_1751,P15,
stim_fb/ques.jpg,stim_fb/negf.jpg,stim_fb/posf.jpg,stim_01/b.jpg,stim_01/a.jpg,1,1,f,0,2,2,1,j,0,1.16635543191,01,01,60.0183208835,PLT_learning_01,N,2014_Feb_24_1751,P15,
stim_fb/ques.jpg,stim_fb/negf.jpg,stim_fb/posf.jpg,stim_01/b.jpg,stim_01/a.jpg,1,1,f,0,3,3,4,f,1,1.46622648852,01,01,60.0183208835,PLT_learning_01,N,2014_Feb_24_1751,P15,
stim_fb/ques.jpg,stim_fb/posf.jpg,stim_fb/negf.jpg,stim_01/c.jpg,stim_01/d.jpg,2,2,j,0,4,4,38,j,1,1.0496660386,01,01,60.0183208835,PLT_learning_01,N,2014_Feb_24_1751,P15,
stim_fb/ques.jpg,stim_fb/posf.jpg,stim_fb/negf.jpg,stim_01/e.jpg,stim_01/f.jpg,2,3,j,0,5,5,56,f,0,1.14968100089,01,01,60.0183208835,PLT_learning_01,N,2014_Feb_24_1751,P15,
stim_fb/ques.jpg,stim_fb/negf.jpg,stim_fb/posf.jpg,stim_01/d.jpg,stim_01/c.jpg,1,2,f,0,6,6,21,f,1,1.04966835137,01,01,60.0183208835,PLT_learning_01,N,2014_Feb_24_1751,P15,
stim_fb/ques.jpg,stim_fb/posf.jpg,stim_fb/negf.jpg,stim_01/f.jpg,stim_01/e.jpg,1,3,f,0,7,7,47,j,0,1.01640282103,01,01,60.0183208835,PLT_learning_01,N,2014_Feb_24_1751,P15,
stim_fb/ques.jpg,stim_fb/posf.jpg,stim_fb/negf.jpg,stim_01/e.jpg,stim_01/f.jpg,2,3,j,0,8,8,59,f,0,0.766510618718,01,01,60.0183208835,PLT_learning_01,N,2014_Feb_24_1751,P15,
stim_fb/ques.jpg,stim_fb/negf.jpg,stim_fb/posf.jpg,stim_01/d.jpg,stim_01/c.jpg,1,2,f,0,9,9,20,f,1,0.749795971458,01,01,60.0183208835,PLT_learning_01,N,2014_Feb_24_1751,P15,
stim_fb/ques.jpg,stim_fb/posf.jpg,stim_fb/negf.jpg,stim_01/b.jpg,stim_01/a.jpg,1,1,f,0,10,10,9,j,0,1.26630051203,01,01,60.0183208835,PLT_learning_01,N,2014_Feb_24_1751,P15,
stim_fb/ques.jpg,stim_fb/negf.jpg,stim_fb/posf.jpg,stim_01/f.jpg,stim_01/e.jpg,1,3,f,0,11,11,45,j,0,0.949740792927,01,01,60.0183208835,PLT_learning_01,N,2014_Feb_24_1751,P15,
stim_fb/ques.jpg,stim_fb/negf.jpg,stim_fb/posf.jpg,stim_01/a.jpg,stim_01/b.jpg,2,1,j,0,12,12,16,f,0,1.09970417967,01,01,60.0183208835,PLT_learning_01,N,2014_Feb_24_1751,P15,
stim_fb/ques.jpg,stim_fb/negf.jpg,stim_fb/posf.jpg,stim_01/a.jpg,stim_01/b.jpg,2,1,j,0,13,13,12,j,1,1.29961728107,01,01,60.0183208835,PLT_learning_01,N,2014_Feb_24_1751,P15,
stim_fb/ques.jpg,stim_fb/negf.jpg,stim_fb/posf.jpg,stim_01/f.jpg,stim_01/e.jpg,1,3,f,0,14,14,44,j,0,0.749862301787,01,01,60.0183208835,PLT_learning_01,N,2014_Feb_24_1751,P15,
stim_fb/ques.jpg,stim_fb/negf.jpg,stim_fb/posf.jpg,stim_01/d.jpg,stim_01/c.jpg,1,2,f,0,15,15,22,f,1,0.899738576401,01,01,60.0183208835,PLT_learning_01,N,2014_Feb_24_1751,P15,
stim_fb/ques.jpg,stim_fb/negf.jpg,stim_fb/posf.jpg,stim_01/d.jpg,stim_01/c.jpg,1,2,f,0,16,16,26,f,1,0.949734450118,01,01,60.0183208835,PLT_learning_01,N,2014_Feb_24_1751,P15,
stim_fb/ques.jpg,stim_fb/posf.jpg,stim_fb/negf.jpg,stim_01/f.jpg,stim_01/e.jpg,1,3,f,0,17,17,48,f,1,1.43292694942,01,01,60.0183208835,PLT_learning_01,N,2014_Feb_24_1751,P15,
stim_fb/ques.jpg,stim_fb/negf.jpg,stim_fb/posf.jpg,stim_01/f.jpg,stim_01/e.jpg,1,3,f,0,18,18,40,j,0,1.28295246201,01,01,60.0183208835,PLT_learning_01,N,2014_Feb_24_1751,P15,
stim_fb/ques.jpg,stim_fb/negf.jpg,stim_fb/posf.jpg,stim_01/a.jpg,stim_01/b.jpg,2,1,j,0,19,19,17,f,0,1.06640793077,01,01,60.0183208835,PLT_learning_01,N,2014_Feb_24_1751,P15,
stim_fb/ques.jpg,stim_fb/posf.jpg,stim_fb/negf.jpg,stim_01/d.jpg,stim_01/c.jpg,1,2,f,0,20,20,28,f,1,0.783118370538,01,01,60.0183208835,PLT_learning_01,N,2014_Feb_24_1751,P15,
stim_fb/ques.jpg,stim_fb/posf.jpg,stim_fb/negf.jpg,stim_01/e.jpg,stim_01/f.jpg,2,3,j,0,21,21,57,f,0,0.849775628754,01,01,60.0183208835,PLT_learning_01,N,2014_Feb_24_1751,P15,
stim_fb/ques.jpg,stim_fb/negf.jpg,stim_fb/posf.jpg,stim_01/e.jpg,stim_01/f.jpg,2,3,j,0,22,22,50,f,0,1.21632068631,01,01,60.0183208835,PLT_learning_01,N,2014_Feb_24_1751,P15,
stim_fb/ques.jpg,stim_fb/negf.jpg,stim_fb/posf.jpg,stim_01/c.jpg,stim_01/d.jpg,2,2,j,0,23,23,31,j,1,0.81644781919,01,01,60.0183208835,PLT_learning_01,N,2014_Feb_24_1751,P15,
stim_fb/ques.jpg,stim_fb/posf.jpg,stim_fb/negf.jpg,stim_01/d.jpg,stim_01/c.jpg,1,2,f,0,24,24,27,f,1,0.883054813123,01,01,60.0183208835,PLT_learning_01,N,2014_Feb_24_1751,P15,
stim_fb/ques.jpg,stim_fb/negf.jpg,stim_fb/posf.jpg,stim_01/c.jpg,stim_01/d.jpg,2,2,j,0,25,25,36,j,1,0.883065207028,01,01,60.0183208835,PLT_learning_01,N,2014_Feb_24_1751,P15,
stim_fb/ques.jpg,stim_fb/posf.jpg,stim_fb/negf.jpg,stim_01/b.jpg,stim_01/a.jpg,1,1,f,0,26,26,8,j,0,0.983047962045,01,01,60.0183208835,PLT_learning_01,N,2014_Feb_24_1751,P15,
stim_fb/ques.jpg,stim_fb/posf.jpg,stim_fb/negf.jpg,stim_01/f.jpg,stim_01/e.jpg,1,3,f,0,27,27,46,j,0,0.916413073586,01,01,60.0183208835,PLT_learning_01,N,2014_Feb_24_1751,P15,
stim_fb/ques.jpg,stim_fb/negf.jpg,stim_fb/posf.jpg,stim_01/a.jpg,stim_01/b.jpg,2,1,j,0,28,28,14,f,0,1.04969599627,01,01,60.0183208835,PLT_learning_01,N,2014_Feb_24_1751,P15,
stim_fb/ques.jpg,stim_fb/negf.jpg,stim_fb/posf.jpg,stim_01/b.jpg,stim_01/a.jpg,1,1,f,0,29,29,7,j,0,0.666502657874,01,01,60.0183208835,PLT_learning_01,N,2014_Feb_24_1751,P15,
stim_fb/ques.jpg,stim_fb/negf.jpg,stim_fb/posf.jpg,stim_01/a.jpg,stim_01/b.jpg,2,1,j,0,30,30,10,f,0,0.749739650077,01,01,60.0183208835,PLT_learning_01,N,2014_Feb_24_1751,P15,
stim_fb/ques.jpg,stim_fb/negf.jpg,stim_fb/posf.jpg,stim_01/e.jpg,stim_01/f.jpg,2,3,j,0,31,31,51,f,0,0.899766789724,01,01,60.0183208835,PLT_learning_01,N,2014_Feb_24_1751,P15,
stim_fb/ques.jpg,stim_fb/negf.jpg,stim_fb/posf.jpg,stim_01/b.jpg,stim_01/a.jpg,1,1,f,0,32,32,6,j,0,1.53285271539,01,01,60.0183208835,PLT_learning_01,N,2014_Feb_24_1751,P15,
stim_fb/ques.jpg,stim_fb/negf.jpg,stim_fb/posf.jpg,stim_01/a.jpg,stim_01/b.jpg,2,1,j,0,33,33,13,f,0,1.14966926564,01,01,60.0183208835,PLT_learning_01,N,2014_Feb_24_1751,P15,
stim_fb/ques.jpg,stim_fb/negf.jpg,stim_fb/posf.jpg,stim_01/c.jpg,stim_01/d.jpg,2,2,j,0,34,34,34,f,0,1.39955529056,01,01,60.0183208835,PLT_learning_01,N,2014_Feb_24_1751,P15,
stim_fb/ques.jpg,stim_fb/posf.jpg,stim_fb/negf.jpg,stim_01/a.jpg,stim_01/b.jpg,2,1,j,0,35,35,18,f,0,0.966402363891,01,01,60.0183208835,PLT_learning_01,N,2014_Feb_24_1751,P15,
stim_fb/ques.jpg,stim_fb/negf.jpg,stim_fb/posf.jpg,stim_01/d.jpg,stim_01/c.jpg,1,2,f,0,36,36,25,f,1,0.983055721385,01,01,60.0183208835,PLT_learning_01,N,2014_Feb_24_1751,P15,
stim_fb/ques.jpg,stim_fb/negf.jpg,stim_fb/posf.jpg,stim_01/e.jpg,stim_01/f.jpg,2,3,j,0,37,37,54,f,0,0.899725559959,01,01,60.0183208835,PLT_learning_01,N,2014_Feb_24_1751,P15,
stim_fb/ques.jpg,stim_fb/posf.jpg,stim_fb/negf.jpg,stim_01/c.jpg,stim_01/d.jpg,2,2,j,0,38,38,39,j,1,0.699783246742,01,01,60.0183208835,PLT_learning_01,N,2014_Feb_24_1751,P15,
stim_fb/ques.jpg,stim_fb/negf.jpg,stim_fb/posf.jpg,stim_01/b.jpg,stim_01/a.jpg,1,1,f,0,39,39,5,j,0,1.1663108939,01,01,60.0183208835,PLT_learning_01,N,2014_Feb_24_1751,P15,
stim_fb/ques.jpg,stim_fb/negf.jpg,stim_fb/posf.jpg,stim_01/b.jpg,stim_01/a.jpg,1,1,f,0,40,40,2,f,1,1.5328800415,01,01,60.0183208835,PLT_learning_01,N,2014_Feb_24_1751,P15,
stim_fb/ques.jpg,stim_fb/negf.jpg,stim_fb/posf.jpg,stim_01/d.jpg,stim_01/c.jpg,1,2,f,0,41,41,24,f,1,0.783117308893,01,01,60.0183208835,PLT_learning_01,N,2014_Feb_24_1751,P15,
stim_fb/ques.jpg,stim_fb/posf.jpg,stim_fb/negf.jpg,stim_01/a.jpg,stim_01/b.jpg,2,1,j,0,42,42,19,None,0,,01,01,60.0183208835,PLT_learning_01,N,2014_Feb_24_1751,P15,
stim_fb/ques.jpg,stim_fb/negf.jpg,stim_fb/posf.jpg,stim_01/e.jpg,stim_01/f.jpg,2,3,j,0,43,43,53,f,0,0.916425202819,01,01,60.0183208835,PLT_learning_01,N,2014_Feb_24_1751,P15,
stim_fb/ques.jpg,stim_fb/negf.jpg,stim_fb/posf.jpg,stim_01/e.jpg,stim_01/f.jpg,2,3,j,0,44,44,55,j,1,1.31628376629,01,01,60.0183208835,PLT_learning_01,N,2014_Feb_24_1751,P15,
stim_fb/ques.jpg,stim_fb/negf.jpg,stim_fb/posf.jpg,stim_01/d.jpg,stim_01/c.jpg,1,2,f,0,45,45,23,None,0,,01,01,60.0183208835,PLT_learning_01,N,2014_Feb_24_1751,P15,
stim_fb/ques.jpg,stim_fb/negf.jpg,stim_fb/posf.jpg,stim_01/f.jpg,stim_01/e.jpg,1,3,f,0,46,46,42,j,0,0.733110614206,01,01,60.0183208835,PLT_learning_01,N,2014_Feb_24_1751,P15,
stim_fb/ques.jpg,stim_fb/posf.jpg,stim_fb/negf.jpg,stim_01/f.jpg,stim_01/e.jpg,1,3,f,0,47,47,49,j,0,0.799788560989,01,01,60.0183208835,PLT_learning_01,N,2014_Feb_24_1751,P15,
stim_fb/ques.jpg,stim_fb/posf.jpg,stim_fb/negf.jpg,stim_01/d.jpg,stim_01/c.jpg,1,2,f,0,48,48,29,f,1,0.93303288246,01,01,60.0183208835,PLT_learning_01,N,2014_Feb_24_1751,P15,
stim_fb/ques.jpg,stim_fb/negf.jpg,stim_fb/posf.jpg,stim_01/c.jpg,stim_01/d.jpg,2,2,j,0,49,49,32,j,1,0.799824665979,01,01,60.0183208835,PLT_learning_01,N,2014_Feb_24_1751,P15,
stim_fb/ques.jpg,stim_fb/negf.jpg,stim_fb/posf.jpg,stim_01/f.jpg,stim_01/e.jpg,1,3,f,0,50,50,43,j,0,0.899718790084,01,01,60.0183208835,PLT_learning_01,N,2014_Feb_24_1751,P15,
stim_fb/ques.jpg,stim_fb/negf.jpg,stim_fb/posf.jpg,stim_01/e.jpg,stim_01/f.jpg,2,3,j,0,51,51,52,f,0,0.899769550606,01,01,60.0183208835,PLT_learning_01,N,2014_Feb_24_1751,P15,
stim_fb/ques.jpg,stim_fb/negf.jpg,stim_fb/posf.jpg,stim_01/b.jpg,stim_01/a.jpg,1,1,f,0,52,52,0,j,0,0.69980970068,01,01,60.0183208835,PLT_learning_01,N,2014_Feb_24_1751,P15,
stim_fb/ques.jpg,stim_fb/posf.jpg,stim_fb/negf.jpg,stim_01/c.jpg,stim_01/d.jpg,2,2,j,0,53,53,37,f,0,1.24965010188,01,01,60.0183208835,PLT_learning_01,N,2014_Feb_24_1751,P15,
stim_fb/ques.jpg,stim_fb/posf.jpg,stim_fb/negf.jpg,stim_01/e.jpg,stim_01/f.jpg,2,3,j,0,54,54,58,f,0,0.899771051345,01,01,60.0183208835,PLT_learning_01,N,2014_Feb_24_1751,P15,
stim_fb/ques.jpg,stim_fb/negf.jpg,stim_fb/posf.jpg,stim_01/b.jpg,stim_01/a.jpg,1,1,f,0,55,55,3,f,1,0.749786927918,01,01,60.0183208835,PLT_learning_01,N,2014_Feb_24_1751,P15,
stim_fb/ques.jpg,stim_fb/negf.jpg,stim_fb/posf.jpg,stim_01/a.jpg,stim_01/b.jpg,2,1,j,0,56,56,15,j,1,1.56620985406,01,01,60.0183208835,PLT_learning_01,N,2014_Feb_24_1751,P15,
stim_fb/ques.jpg,stim_fb/negf.jpg,stim_fb/posf.jpg,stim_01/f.jpg,stim_01/e.jpg,1,3,f,0,57,57,41,j,0,0.866411753295,01,01,60.0183208835,PLT_learning_01,N,2014_Feb_24_1751,P15,
stim_fb/ques.jpg,stim_fb/negf.jpg,stim_fb/posf.jpg,stim_01/c.jpg,stim_01/d.jpg,2,2,j,0,58,58,35,j,1,1.1662171322,01,01,60.0183208835,PLT_learning_01,N,2014_Feb_24_1751,P15,
stim_fb/ques.jpg,stim_fb/negf.jpg,stim_fb/posf.jpg,stim_01/c.jpg,stim_01/d.jpg,2,2,j,0,59,59,30,j,1,0.94957562725,01,01,60.0183208835,PLT_learning_01,N,2014_Feb_24_1751,P15,
stim_fb/ques.jpg,stim_fb/negf.jpg,stim_fb/posf.jpg,stim_01/a.jpg,stim_01/b.jpg,2,1,j,1,0,60,11,f,0,1.21628141442,01,01,60.0183208835,PLT_learning_01,N,2014_Feb_24_1751,P15,
stim_fb/ques.jpg,stim_fb/negf.jpg,stim_fb/posf.jpg,stim_01/e.jpg,stim_01/f.jpg,2,3,j,1,1,61,54,j,1,1.2996331396,01,01,60.0183208835,PLT_learning_01,N,2014_Feb_24_1751,P15,
stim_fb/ques.jpg,stim_fb/posf.jpg,stim_fb/negf.jpg,stim_01/d.jpg,stim_01/c.jpg,1,2,f,1,2,62,28,j,0,1.3329238096,01,01,60.0183208835,PLT_learning_01,N,2014_Feb_24_1751,P15,
stim_fb/ques.jpg,stim_fb/negf.jpg,stim_fb/posf.jpg,stim_01/e.jpg,stim_01/f.jpg,2,3,j,1,3,63,53,j,1,1.24964462523,01,01,60.0183208835,PLT_learning_01,N,2014_Feb_24_1751,P15,
stim_fb/ques.jpg,stim_fb/posf.jpg,stim_fb/negf.jpg,stim_01/b.jpg,stim_01/a.jpg,1,1,f,1,4,64,8,j,0,0.733178069338,01,01,60.0183208835,PLT_learning_01,N,2014_Feb_24_1751,P15,
stim_fb/ques.jpg,stim_fb/negf.jpg,stim_fb/posf.jpg,stim_01/a.jpg,stim_01/b.jpg,2,1,j,1,5,65,15,j,1,0.766458640161,01,01,60.0183208835,PLT_learning_01,N,2014_Feb_24_1751,P15,
stim_fb/ques.jpg,stim_fb/negf.jpg,stim_fb/posf.jpg,stim_01/c.jpg,stim_01/d.jpg,2,2,j,1,6,66,36,j,1,0.766469190457,01,01,60.0183208835,PLT_learning_01,N,2014_Feb_24_1751,P15,
stim_fb/ques.jpg,stim_fb/negf.jpg,stim_fb/posf.jpg,stim_01/a.jpg,stim_01/b.jpg,2,1,j,1,7,67,14,j,1,0.349918854745,01,01,60.0183208835,PLT_learning_01,N,2014_Feb_24_1751,P15,
stim_fb/ques.jpg,stim_fb/negf.jpg,stim_fb/posf.jpg,stim_01/d.jpg,stim_01/c.jpg,1,2,f,1,8,68,23,j,0,0.748779410682,01,01,60.0183208835,PLT_learning_01,N,2014_Feb_24_1751,P15,
stim_fb/ques.jpg,stim_fb/negf.jpg,stim_fb/posf.jpg,stim_01/f.jpg,stim_01/e.jpg,1,3,f,1,9,69,40,f,1,0.899775520484,01,01,60.0183208835,PLT_learning_01,N,2014_Feb_24_1751,P15,
stim_fb/ques.jpg,stim_fb/negf.jpg,stim_fb/posf.jpg,stim_01/f.jpg,stim_01/e.jpg,1,3,f,1,10,70,43,f,1,0.299965347629,01,01,60.0183208835,PLT_learning_01,N,2014_Feb_24_1751,P15,
stim_fb/ques.jpg,stim_fb/posf.jpg,stim_fb/negf.jpg,stim_01/c.jpg,stim_01/d.jpg,2,2,j,1,11,71,39,f,0,0.566535126804,01,01,60.0183208835,PLT_learning_01,N,2014_Feb_24_1751,P15,
stim_fb/ques.jpg,stim_fb/negf.jpg,stim_fb/posf.jpg,stim_01/b.jpg,stim_01/a.jpg,1,1,f,1,12,72,6,f,1,0.349925985518,01,01,60.0183208835,PLT_learning_01,N,2014_Feb_24_1751,P15,
stim_fb/ques.jpg,stim_fb/negf.jpg,stim_fb/posf.jpg,stim_01/a.jpg,stim_01/b.jpg,2,1,j,1,13,73,13,f,0,0.599833165164,01,01,60.0183208835,PLT_learning_01,N,2014_Feb_24_1751,P15,
stim_fb/ques.jpg,stim_fb/negf.jpg,stim_fb/posf.jpg,stim_01/d.jpg,stim_01/c.jpg,1,2,f,1,14,74,21,j,0,0.316624545681,01,01,60.0183208835,PLT_learning_01,N,2014_Feb_24_1751,P15,
stim_fb/ques.jpg,stim_fb/negf.jpg,stim_fb/posf.jpg,stim_01/b.jpg,stim_01/a.jpg,1,1,f,1,15,75,4,j,0,0.933060960444,01,01,60.0183208835,PLT_learning_01,N,2014_Feb_24_1751,P15,
stim_fb/ques.jpg,stim_fb/negf.jpg,stim_fb/posf.jpg,stim_01/b.jpg,stim_01/a.jpg,1,1,f,1,16,76,3,f,1,0.983053841701,01,01,60.0183208835,PLT_learning_01,N,2014_Feb_24_1751,P15,
stim_fb/ques.jpg,stim_fb/negf.jpg,stim_fb/posf.jpg,stim_01/f.jpg,stim_01/e.jpg,1,3,f,1,17,77,41,f,1,0.483135931308,01,01,60.0183208835,PLT_learning_01,N,2014_Feb_24_1751,P15,
stim_fb/ques.jpg,stim_fb/posf.jpg,stim_fb/negf.jpg,stim_01/e.jpg,stim_01/f.jpg,2,3,j,1,18,78,59,f,0,0.383220583304,01,01,60.0183208835,PLT_learning_01,N,2014_Feb_24_1751,P15,
stim_fb/ques.jpg,stim_fb/negf.jpg,stim_fb/posf.jpg,stim_01/c.jpg,stim_01/d.jpg,2,2,j,1,19,79,32,f,0,0.766444023729,01,01,60.0183208835,PLT_learning_01,N,2014_Feb_24_1751,P15,
stim_fb/ques.jpg,stim_fb/negf.jpg,stim_fb/posf.jpg,stim_01/e.jpg,stim_01/f.jpg,2,3,j,1,20,80,52,j,1,0.933065462665,01,01,60.0183208835,PLT_learning_01,N,2014_Feb_24_1751,P15,
stim_fb/ques.jpg,stim_fb/negf.jpg,stim_fb/posf.jpg,stim_01/c.jpg,stim_01/d.jpg,2,2,j,1,21,81,33,j,1,0.533169988195,01,01,60.0183208835,PLT_learning_01,N,2014_Feb_24_1751,P15,
stim_fb/ques.jpg,stim_fb/negf.jpg,stim_fb/posf.jpg,stim_01/e.jpg,stim_01/f.jpg,2,3,j,1,22,82,51,j,1,0.51655748453,01,01,60.0183208835,PLT_learning_01,N,2014_Feb_24_1751,P15,
stim_fb/ques.jpg,stim_fb/negf.jpg,stim_fb/posf.jpg,stim_01/f.jpg,stim_01/e.jpg,1,3,f,1,23,83,42,j,0,0.499865856647,01,01,60.0183208835,PLT_learning_01,N,2014_Feb_24_1751,P15,
stim_fb/ques.jpg,stim_fb/negf.jpg,stim_fb/posf.jpg,stim_01/d.jpg,stim_01/c.jpg,1,2,f,1,24,84,26,f,1,0.683104096961,01,01,60.0183208835,PLT_learning_01,N,2014_Feb_24_1751,P15,
stim_fb/ques.jpg,stim_fb/negf.jpg,stim_fb/posf.jpg,stim_01/c.jpg,stim_01/d.jpg,2,2,j,1,25,85,30,f,0,0.200016884082,01,01,60.0183208835,PLT_learning_01,N,2014_Feb_24_1751,P15,
stim_fb/ques.jpg,stim_fb/posf.jpg,stim_fb/negf.jpg,stim_01/d.jpg,stim_01/c.jpg,1,2,f,1,26,86,29,j,0,1.43294294329,01,01,60.0183208835,PLT_learning_01,N,2014_Feb_24_1751,P15,
stim_fb/ques.jpg,stim_fb/negf.jpg,stim_fb/posf.jpg,stim_01/b.jpg,stim_01/a.jpg,1,1,f,1,27,87,1,j,0,0.833109522486,01,01,60.0183208835,PLT_learning_01,N,2014_Feb_24_1751,P15,
stim_fb/ques.jpg,stim_fb/negf.jpg,stim_fb/posf.jpg,stim_01/c.jpg,stim_01/d.jpg,2,2,j,1,28,88,31,j,1,1.2829331208,01,01,60.0183208835,PLT_learning_01,N,2014_Feb_24_1751,P15,
stim_fb/ques.jpg,stim_fb/negf.jpg,stim_fb/posf.jpg,stim_01/a.jpg,stim_01/b.jpg,2,1,j,1,29,89,12,j,1,0.316627011827,01,01,60.0183208835,PLT_learning_01,N,2014_Feb_24_1751,P15,
stim_fb/ques.jpg,stim_fb/posf.jpg,stim_fb/negf.jpg,stim_01/f.jpg,stim_01/e.jpg,1,3,f,1,30,90,49,j,0,0.783064788988,01,01,60.0183208835,PLT_learning_01,N,2014_Feb_24_1751,P15,
stim_fb/ques.jpg,stim_fb/negf.jpg,stim_fb/posf.jpg,stim_01/c.jpg,stim_01/d.jpg,2,2,j,1,31,91,35,f,0,0.666530119322,01,01,60.0183208835,PLT_learning_01,N,2014_Feb_24_1751,P15,
stim_fb/ques.jpg,stim_fb/posf.jpg,stim_fb/negf.jpg,stim_01/a.jpg,stim_01/b.jpg,2,1,j,1,32,92,19,f,0,0.816428694521,01,01,60.0183208835,PLT_learning_01,N,2014_Feb_24_1751,P15,
stim_fb/ques.jpg,stim_fb/negf.jpg,stim_fb/posf.jpg,stim_01/f.jpg,stim_01/e.jpg,1,3,f,1,33,93,44,f,1,0.383241807205,01,01,60.0183208835,PLT_learning_01,N,2014_Feb_24_1751,P15,
stim_fb/ques.jpg,stim_fb/posf.jpg,stim_fb/negf.jpg,stim_01/f.jpg,stim_01/e.jpg,1,3,f,1,34,94,47,f,1,0.333259040159,01,01,60.0183208835,PLT_learning_01,N,2014_Feb_24_1751,P15,
stim_fb/ques.jpg,stim_fb/posf.jpg,stim_fb/negf.jpg,stim_01/f.jpg,stim_01/e.jpg,1,3,f,1,35,95,48,j,0,0.69982476222,01,01,60.0183208835,PLT_learning_01,N,2014_Feb_24_1751,P15,
stim_fb/ques.jpg,stim_fb/posf.jpg,stim_fb/negf.jpg,stim_01/e.jpg,stim_01/f.jpg,2,3,j,1,36,96,58,j,1,0.81648219487,01,01,60.0183208835,PLT_learning_01,N,2014_Feb_24_1751,P15,
stim_fb/ques.jpg,stim_fb/negf.jpg,stim_fb/posf.jpg,stim_01/a.jpg,stim_01/b.jpg,2,1,j,1,37,97,17,j,1,1.38297703025,01,01,60.0183208835,PLT_learning_01,N,2014_Feb_24_1751,P15,
stim_fb/ques.jpg,stim_fb/posf.jpg,stim_fb/negf.jpg,stim_01/e.jpg,stim_01/f.jpg,2,3,j,1,38,98,56,f,0,1.23298243171,01,01,60.0183208835,PLT_learning_01,N,2014_Feb_24_1751,P15,
stim_fb/ques.jpg,stim_fb/negf.jpg,stim_fb/posf.jpg,stim_01/a.jpg,stim_01/b.jpg,2,1,j,1,39,99,10,f,0,0.983012972834,01,01,60.0183208835,PLT_learning_01,N,2014_Feb_24_1751,P15,
stim_fb/ques.jpg,stim_fb/posf.jpg,stim_fb/negf.jpg,stim_01/e.jpg,stim_01/f.jpg,2,3,j,1,40,100,57,f,0,1.04968328058,01,01,60.0183208835,PLT_learning_01,N,2014_Feb_24_1751,P15,
stim_fb/ques.jpg,stim_fb/negf.jpg,stim_fb/posf.jpg,stim_01/b.jpg,stim_01/a.jpg,1,1,f,1,41,101,7,f,1,0.666499999248,01,01,60.0183208835,PLT_learning_01,N,2014_Feb_24_1751,P15,
stim_fb/ques.jpg,stim_fb/negf.jpg,stim_fb/posf.jpg,stim_01/e.jpg,stim_01/f.jpg,2,3,j,1,42,102,55,j,1,0.949726161456,01,01,60.0183208835,PLT_learning_01,N,2014_Feb_24_1751,P15,
stim_fb/ques.jpg,stim_fb/negf.jpg,stim_fb/posf.jpg,stim_01/c.jpg,stim_01/d.jpg,2,2,j,1,43,103,34,f,0,0.916411536755,01,01,60.0183208835,PLT_learning_01,N,2014_Feb_24_1751,P15,
stim_fb/ques.jpg,stim_fb/posf.jpg,stim_fb/negf.jpg,stim_01/b.jpg,stim_01/a.jpg,1,1,f,1,44,104,9,j,0,0.949781947504,01,01,60.0183208835,PLT_learning_01,N,2014_Feb_24_1751,P15,
stim_fb/ques.jpg,stim_fb/posf.jpg,stim_fb/negf.jpg,stim_01/c.jpg,stim_01/d.jpg,2,2,j,1,45,105,37,j,1,0.666526573483,01,01,60.0183208835,PLT_learning_01,N,2014_Feb_24_1751,P15,
stim_fb/ques.jpg,stim_fb/negf.jpg,stim_fb/posf.jpg,stim_01/b.jpg,stim_01/a.jpg,1,1,f,1,46,106,0,j,0,0.983051237208,01,01,60.0183208835,PLT_learning_01,N,2014_Feb_24_1751,P15,
stim_fb/ques.jpg,stim_fb/posf.jpg,stim_fb/negf.jpg,stim_01/a.jpg,stim_01/b.jpg,2,1,j,1,47,107,18,f,0,1.03303909595,01,01,60.0183208835,PLT_learning_01,N,2014_Feb_24_1751,P15,
stim_fb/ques.jpg,stim_fb/posf.jpg,stim_fb/negf.jpg,stim_01/d.jpg,stim_01/c.jpg,1,2,f,1,48,108,27,f,1,1.08303921023,01,01,60.0183208835,PLT_learning_01,N,2014_Feb_24_1751,P15,
stim_fb/ques.jpg,stim_fb/posf.jpg,stim_fb/negf.jpg,stim_01/c.jpg,stim_01/d.jpg,2,2,j,1,49,109,38,j,1,0.566512600657,01,01,60.0183208835,PLT_learning_01,N,2014_Feb_24_1751,P15,
stim_fb/ques.jpg,stim_fb/negf.jpg,stim_fb/posf.jpg,stim_01/f.jpg,stim_01/e.jpg,1,3,f,1,50,110,45,j,0,1.21631578409,01,01,60.0183208835,PLT_learning_01,N,2014_Feb_24_1751,P15,
stim_fb/ques.jpg,stim_fb/negf.jpg,stim_fb/posf.jpg,stim_01/d.jpg,stim_01/c.jpg,1,2,f,1,51,111,24,f,1,1.18298105127,01,01,60.0183208835,PLT_learning_01,N,2014_Feb_24_1751,P15,
stim_fb/ques.jpg,stim_fb/negf.jpg,stim_fb/posf.jpg,stim_01/d.jpg,stim_01/c.jpg,1,2,f,1,52,112,25,f,1,0.549844933495,01,01,60.0183208835,PLT_learning_01,N,2014_Feb_24_1751,P15,
stim_fb/ques.jpg,stim_fb/posf.jpg,stim_fb/negf.jpg,stim_01/f.jpg,stim_01/e.jpg,1,3,f,1,53,113,46,j,0,1.16634478839,01,01,60.0183208835,PLT_learning_01,N,2014_Feb_24_1751,P15,
stim_fb/ques.jpg,stim_fb/negf.jpg,stim_fb/posf.jpg,stim_01/d.jpg,stim_01/c.jpg,1,2,f,1,54,114,22,f,1,0.949737857611,01,01,60.0183208835,PLT_learning_01,N,2014_Feb_24_1751,P15,
stim_fb/ques.jpg,stim_fb/negf.jpg,stim_fb/posf.jpg,stim_01/b.jpg,stim_01/a.jpg,1,1,f,1,55,115,5,j,0,0.799865712288,01,01,60.0183208835,PLT_learning_01,N,2014_Feb_24_1751,P15,
stim_fb/ques.jpg,stim_fb/negf.jpg,stim_fb/posf.jpg,stim_01/e.jpg,stim_01/f.jpg,2,3,j,1,56,116,50,f,0,1.51621317434,01,01,60.0183208835,PLT_learning_01,N,2014_Feb_24_1751,P15,
stim_fb/ques.jpg,stim_fb/negf.jpg,stim_fb/posf.jpg,stim_01/b.jpg,stim_01/a.jpg,1,1,f,1,57,117,2,f,1,0.983035300485,01,01,60.0183208835,PLT_learning_01,N,2014_Feb_24_1751,P15,
stim_fb/ques.jpg,stim_fb/negf.jpg,stim_fb/posf.jpg,stim_01/a.jpg,stim_01/b.jpg,2,1,j,1,58,118,16,f,0,1.06635525447,01,01,60.0183208835,PLT_learning_01,N,2014_Feb_24_1751,P15,
stim_fb/ques.jpg,stim_fb/negf.jpg,stim_fb/posf.jpg,stim_01/d.jpg,stim_01/c.jpg,1,2,f,1,59,119,20,f,1,1.03306543861,01,01,60.0183208835,PLT_learning_01,N,2014_Feb_24_1751,P15,
stim_fb/ques.jpg,stim_fb/negf.jpg,stim_fb/posf.jpg,stim_01/c.jpg,stim_01/d.jpg,2,2,j,2,0,120,30,j,1,0.949727990015,01,01,60.0183208835,PLT_learning_01,N,2014_Feb_24_1751,P15,
stim_fb/ques.jpg,stim_fb/negf.jpg,stim_fb/posf.jpg,stim_01/d.jpg,stim_01/c.jpg,1,2,f,2,1,121,25,j,0,1.36627257239,01,01,60.0183208835,PLT_learning_01,N,2014_Feb_24_1751,P15,
stim_fb/ques.jpg,stim_fb/negf.jpg,stim_fb/posf.jpg,stim_01/c.jpg,stim_01/d.jpg,2,2,j,2,2,122,32,j,1,0.949737707235,01,01,60.0183208835,PLT_learning_01,N,2014_Feb_24_1751,P15,
stim_fb/ques.jpg,stim_fb/posf.jpg,stim_fb/negf.jpg,stim_01/d.jpg,stim_01/c.jpg,1,2,f,2,3,123,29,j,0,1.33292977647,01,01,60.0183208835,PLT_learning_01,N,2014_Feb_24_1751,P15,
stim_fb/ques.jpg,stim_fb/posf.jpg,stim_fb/negf.jpg,stim_01/e.jpg,stim_01/f.jpg,2,3,j,2,4,124,56,j,1,0.899758455951,01,01,60.0183208835,PLT_learning_01,N,2014_Feb_24_1751,P15,
stim_fb/ques.jpg,stim_fb/negf.jpg,stim_fb/posf.jpg,stim_01/a.jpg,stim_01/b.jpg,2,1,j,2,5,125,11,j,1,1.23296707544,01,01,60.0183208835,PLT_learning_01,N,2014_Feb_24_1751,P15,
stim_fb/ques.jpg,stim_fb/negf.jpg,stim_fb/posf.jpg,stim_01/e.jpg,stim_01/f.jpg,2,3,j,2,6,126,51,f,0,1.13297607687,01,01,60.0183208835,PLT_learning_01,N,2014_Feb_24_1751,P15,
stim_fb/ques.jpg,stim_fb/negf.jpg,stim_fb/posf.jpg,stim_01/c.jpg,stim_01/d.jpg,2,2,j,2,7,127,36,j,1,0.933079829474,01,01,60.0183208835,PLT_learning_01,N,2014_Feb_24_1751,P15,
stim_fb/ques.jpg,stim_fb/posf.jpg,stim_fb/negf.jpg,stim_01/f.jpg,stim_01/e.jpg,1,3,f,2,8,128,47,j,0,1.06635451162,01,01,60.0183208835,PLT_learning_01,N,2014_Feb_24_1751,P15,
stim_fb/ques.jpg,stim_fb/negf.jpg,stim_fb/posf.jpg,stim_01/f.jpg,stim_01/e.jpg,1,3,f,2,9,129,44,j,0,1.332887864,01,01,60.0183208835,PLT_learning_01,N,2014_Feb_24_1751,P15,
stim_fb/ques.jpg,stim_fb/negf.jpg,stim_fb/posf.jpg,stim_01/c.jpg,stim_01/d.jpg,2,2,j,2,10,130,34,j,1,0.749970114512,01,01,60.0183208835,PLT_learning_01,N,2014_Feb_24_1751,P15,
stim_fb/ques.jpg,stim_fb/posf.jpg,stim_fb/negf.jpg,stim_01/c.jpg,stim_01/d.jpg,2,2,j,2,11,131,37,j,1,0.599874963347,01,01,60.0183208835,PLT_learning_01,N,2014_Feb_24_1751,P15,
stim_fb/ques.jpg,stim_fb/negf.jpg,stim_fb/posf.jpg,stim_01/b.jpg,stim_01/a.jpg,1,1,f,2,12,132,4,j,0,1.04968560537,01,01,60.0183208835,PLT_learning_01,N,2014_Feb_24_1751,P15,
stim_fb/ques.jpg,stim_fb/negf.jpg,stim_fb/posf.jpg,stim_01/b.jpg,stim_01/a.jpg,1,1,f,2,13,133,2,f,1,0.849765376199,01,01,60.0183208835,PLT_learning_01,N,2014_Feb_24_1751,P15,
stim_fb/ques.jpg,stim_fb/posf.jpg,stim_fb/negf.jpg,stim_01/b.jpg,stim_01/a.jpg,1,1,f,2,14,134,8,f,1,0.883099904513,01,01,60.0183208835,PLT_learning_01,N,2014_Feb_24_1751,P15,
stim_fb/ques.jpg,stim_fb/negf.jpg,stim_fb/posf.jpg,stim_01/d.jpg,stim_01/c.jpg,1,2,f,2,15,135,24,j,0,1.44968548206,01,01,60.0183208835,PLT_learning_01,N,2014_Feb_24_1751,P15,
stim_fb/ques.jpg,stim_fb/negf.jpg,stim_fb/posf.jpg,stim_01/d.jpg,stim_01/c.jpg,1,2,f,2,16,136,21,f,1,1.43289113616,01,01,60.0183208835,PLT_learning_01,N,2014_Feb_24_1751,P15,
stim_fb/ques.jpg,stim_fb/posf.jpg,stim_fb/negf.jpg,stim_01/f.jpg,stim_01/e.jpg,1,3,f,2,17,137,48,j,0,0.94973041105,01,01,60.0183208835,PLT_learning_01,N,2014_Feb_24_1751,P15,
stim_fb/ques.jpg,stim_fb/negf.jpg,stim_fb/posf.jpg,stim_01/b.jpg,stim_01/a.jpg,1,1,f,2,18,138,1,j,0,1.1163937414,01,01,60.0183208835,PLT_learning_01,N,2014_Feb_24_1751,P15,
stim_fb/ques.jpg,stim_fb/negf.jpg,stim_fb/posf.jpg,stim_01/a.jpg,stim_01/b.jpg,2,1,j,2,19,139,17,f,0,0.999708663845,01,01,60.0183208835,PLT_learning_01,N,2014_Feb_24_1751,P15,
stim_fb/ques.jpg,stim_fb/negf.jpg,stim_fb/posf.jpg,stim_01/b.jpg,stim_01/a.jpg,1,1,f,2,20,140,0,j,0,1.44956826791,01,01,60.0183208835,PLT_learning_01,N,2014_Feb_24_1751,P15,
stim_fb/ques.jpg,stim_fb/negf.jpg,stim_fb/posf.jpg,stim_01/c.jpg,stim_01/d.jpg,2,2,j,2,21,141,35,j,1,0.899738907225,01,01,60.0183208835,PLT_learning_01,N,2014_Feb_24_1751,P15,
stim_fb/ques.jpg,stim_fb/negf.jpg,stim_fb/posf.jpg,stim_01/f.jpg,stim_01/e.jpg,1,3,f,2,22,142,45,j,0,0.816420420899,01,01,60.0183208835,PLT_learning_01,N,2014_Feb_24_1751,P15,
stim_fb/ques.jpg,stim_fb/negf.jpg,stim_fb/posf.jpg,stim_01/c.jpg,stim_01/d.jpg,2,2,j,2,23,143,33,j,1,0.816456119879,01,01,60.0183208835,PLT_learning_01,N,2014_Feb_24_1751,P15,
stim_fb/ques.jpg,stim_fb/negf.jpg,stim_fb/posf.jpg,stim_01/c.jpg,stim_01/d.jpg,2,2,j,2,24,144,31,j,1,0.549860755935,01,01,60.0183208835,PLT_learning_01,N,2014_Feb_24_1751,P15,
stim_fb/ques.jpg,stim_fb/posf.jpg,stim_fb/negf.jpg,stim_01/a.jpg,stim_01/b.jpg,2,1,j,2,25,145,18,j,1,1.06636163938,01,01,60.0183208835,PLT_learning_01,N,2014_Feb_24_1751,P15,
stim_fb/ques.jpg,stim_fb/posf.jpg,stim_fb/negf.jpg,stim_01/f.jpg,stim_01/e.jpg,1,3,f,2,26,146,46,f,1,1.11633984707,01,01,60.0183208835,PLT_learning_01,N,2014_Feb_24_1751,P15,
stim_fb/ques.jpg,stim_fb/posf.jpg,stim_fb/negf.jpg,stim_01/f.jpg,stim_01/e.jpg,1,3,f,2,27,147,49,j,0,0.999734982443,01,01,60.0183208835,PLT_learning_01,N,2014_Feb_24_1751,P15,
stim_fb/ques.jpg,stim_fb/negf.jpg,stim_fb/posf.jpg,stim_01/a.jpg,stim_01/b.jpg,2,1,j,2,28,148,14,f,0,1.48288049864,01,01,60.0183208835,PLT_learning_01,N,2014_Feb_24_1751,P15,
stim_fb/ques.jpg,stim_fb/posf.jpg,stim_fb/negf.jpg,stim_01/e.jpg,stim_01/f.jpg,2,3,j,2,29,149,59,f,0,1.6328492688,01,01,60.0183208835,PLT_learning_01,N,2014_Feb_24_1751,P15,
stim_fb/ques.jpg,stim_fb/negf.jpg,stim_fb/posf.jpg,stim_01/e.jpg,stim_01/f.jpg,2,3,j,2,30,150,52,f,0,0.949711984122,01,01,60.0183208835,PLT_learning_01,N,2014_Feb_24_1751,P15,
stim_fb/ques.jpg,stim_fb/negf.jpg,stim_fb/posf.jpg,stim_01/f.jpg,stim_01/e.jpg,1,3,f,2,31,151,41,j,0,1.03304291246,01,01,60.0183208835,PLT_learning_01,N,2014_Feb_24_1751,P15,
stim_fb/ques.jpg,stim_fb/negf.jpg,stim_fb/posf.jpg,stim_01/e.jpg,stim_01/f.jpg,2,3,j,2,32,152,54,j,1,1.19970271201,01,01,60.0183208835,PLT_learning_01,N,2014_Feb_24_1751,P15,
stim_fb/ques.jpg,stim_fb/negf.jpg,stim_fb/posf.jpg,stim_01/d.jpg,stim_01/c.jpg,1,2,f,2,33,153,26,j,0,1.03303575763,01,01,60.0183208835,PLT_learning_01,N,2014_Feb_24_1751,P15,
stim_fb/ques.jpg,stim_fb/negf.jpg,stim_fb/posf.jpg,stim_01/e.jpg,stim_01/f.jpg,2,3,j,2,34,154,55,j,1,1.16630161578,01,01,60.0183208835,PLT_learning_01,N,2014_Feb_24_1751,P15,
stim_fb/ques.jpg,stim_fb/negf.jpg,stim_fb/posf.jpg,stim_01/f.jpg,stim_01/e.jpg,1,3,f,2,35,155,42,f,1,0.699807066112,01,01,60.0183208835,PLT_learning_01,N,2014_Feb_24_1751,P15,
stim_fb/ques.jpg,stim_fb/posf.jpg,stim_fb/negf.jpg,stim_01/a.jpg,stim_01/b.jpg,2,1,j,2,36,156,19,j,1,1.14966762656,01,01,60.0183208835,PLT_learning_01,N,2014_Feb_24_1751,P15,
stim_fb/ques.jpg,stim_fb/negf.jpg,stim_fb/posf.jpg,stim_01/d.jpg,stim_01/c.jpg,1,2,f,2,37,157,23,j,0,1.466294885,01,01,60.0183208835,PLT_learning_01,N,2014_Feb_24_1751,P15,
stim_fb/ques.jpg,stim_fb/posf.jpg,stim_fb/negf.jpg,stim_01/e.jpg,stim_01/f.jpg,2,3,j,2,38,158,57,j,1,1.04975942136,01,01,60.0183208835,PLT_learning_01,N,2014_Feb_24_1751,P15,
stim_fb/ques.jpg,stim_fb/negf.jpg,stim_fb/posf.jpg,stim_01/f.jpg,stim_01/e.jpg,1,3,f,2,39,159,40,f,1,1.56620689769,01,01,60.0183208835,PLT_learning_01,N,2014_Feb_24_1751,P15,
stim_fb/ques.jpg,stim_fb/posf.jpg,stim_fb/negf.jpg,stim_01/d.jpg,stim_01/c.jpg,1,2,f,2,40,160,27,f,1,1.08303086443,01,01,60.0183208835,PLT_learning_01,N,2014_Feb_24_1751,P15,
stim_fb/ques.jpg,stim_fb/negf.jpg,stim_fb/posf.jpg,stim_01/a.jpg,stim_01/b.jpg,2,1,j,2,41,161,16,None,0,,01,01,60.0183208835,PLT_learning_01,N,2014_Feb_24_1751,P15,
stim_fb/ques.jpg,stim_fb/negf.jpg,stim_fb/posf.jpg,stim_01/a.jpg,stim_01/b.jpg,2,1,j,2,42,162,12,f,0,0.583162186751,01,01,60.0183208835,PLT_learning_01,N,2014_Feb_24_1751,P15,
stim_fb/ques.jpg,stim_fb/negf.jpg,stim_fb/posf.jpg,stim_01/e.jpg,stim_01/f.jpg,2,3,j,2,43,163,50,j,1,0.666512089383,01,01,60.0183208835,PLT_learning_01,N,2014_Feb_24_1751,P15,
stim_fb/ques.jpg,stim_fb/negf.jpg,stim_fb/posf.jpg,stim_01/d.jpg,stim_01/c.jpg,1,2,f,2,44,164,22,f,1,0.766467434079,01,01,60.0183208835,PLT_learning_01,N,2014_Feb_24_1751,P15,
stim_fb/ques.jpg,stim_fb/negf.jpg,stim_fb/posf.jpg,stim_01/b.jpg,stim_01/a.jpg,1,1,f,2,45,165,7,j,0,0.833108096933,01,01,60.0183208835,PLT_learning_01,N,2014_Feb_24_1751,P15,
stim_fb/ques.jpg,stim_fb/negf.jpg,stim_fb/posf.jpg,stim_01/d.jpg,stim_01/c.jpg,1,2,f,2,46,166,20,f,1,1.09966710927,01,01,60.0183208835,PLT_learning_01,N,2014_Feb_24_1751,P15,
stim_fb/ques.jpg,stim_fb/negf.jpg,stim_fb/posf.jpg,stim_01/a.jpg,stim_01/b.jpg,2,1,j,2,47,167,15,j,1,1.44957995805,01,01,60.0183208835,PLT_learning_01,N,2014_Feb_24_1751,P15,
stim_fb/ques.jpg,stim_fb/negf.jpg,stim_fb/posf.jpg,stim_01/a.jpg,stim_01/b.jpg,2,1,j,2,48,168,10,j,1,1.16735786347,01,01,60.0183208835,PLT_learning_01,N,2014_Feb_24_1751,P15,
stim_fb/ques.jpg,stim_fb/negf.jpg,stim_fb/posf.jpg,stim_01/b.jpg,stim_01/a.jpg,1,1,f,2,49,169,6,f,1,1.38292615244,01,01,60.0183208835,PLT_learning_01,N,2014_Feb_24_1751,P15,
stim_fb/ques.jpg,stim_fb/posf.jpg,stim_fb/negf.jpg,stim_01/c.jpg,stim_01/d.jpg,2,2,j,2,50,170,38,j,1,0.649834732068,01,01,60.0183208835,PLT_learning_01,N,2014_Feb_24_1751,P15,
stim_fb/ques.jpg,stim_fb/negf.jpg,stim_fb/posf.jpg,stim_01/f.jpg,stim_01/e.jpg,1,3,f,2,51,171,43,j,0,1.59945687927,01,01,60.0183208835,PLT_learning_01,N,2014_Feb_24_1751,P15,
stim_fb/ques.jpg,stim_fb/negf.jpg,stim_fb/posf.jpg,stim_01/b.jpg,stim_01/a.jpg,1,1,f,2,52,172,5,None,0,,01,01,60.0183208835,PLT_learning_01,N,2014_Feb_24_1751,P15,
stim_fb/ques.jpg,stim_fb/posf.jpg,stim_fb/negf.jpg,stim_01/b.jpg,stim_01/a.jpg,1,1,f,2,53,173,9,f,1,0.649842704943,01,01,60.0183208835,PLT_learning_01,N,2014_Feb_24_1751,P15,
stim_fb/ques.jpg,stim_fb/negf.jpg,stim_fb/posf.jpg,stim_01/b.jpg,stim_01/a.jpg,1,1,f,2,54,174,3,j,0,0.93310091503,01,01,60.0183208835,PLT_learning_01,N,2014_Feb_24_1751,P15,
stim_fb/ques.jpg,stim_fb/negf.jpg,stim_fb/posf.jpg,stim_01/a.jpg,stim_01/b.jpg,2,1,j,2,55,175,13,j,1,0.866429232863,01,01,60.0183208835,PLT_learning_01,N,2014_Feb_24_1751,P15,
stim_fb/ques.jpg,stim_fb/posf.jpg,stim_fb/negf.jpg,stim_01/d.jpg,stim_01/c.jpg,1,2,f,2,56,176,28,f,1,0.883070873151,01,01,60.0183208835,PLT_learning_01,N,2014_Feb_24_1751,P15,
stim_fb/ques.jpg,stim_fb/negf.jpg,stim_fb/posf.jpg,stim_01/e.jpg,stim_01/f.jpg,2,3,j,2,57,177,53,j,1,0.583182324945,01,01,60.0183208835,PLT_learning_01,N,2014_Feb_24_1751,P15,
stim_fb/ques.jpg,stim_fb/posf.jpg,stim_fb/negf.jpg,stim_01/c.jpg,stim_01/d.jpg,2,2,j,2,58,178,39,j,1,0.433231268938,01,01,60.0183208835,PLT_learning_01,N,2014_Feb_24_1751,P15,
stim_fb/ques.jpg,stim_fb/posf.jpg,stim_fb/negf.jpg,stim_01/e.jpg,stim_01/f.jpg,2,3,j,2,59,179,58,f,0,0.766455328907,01,01,60.0183208835,PLT_learning_01,N,2014_Feb_24_1751,P15,
stim_fb/ques.jpg,stim_fb/negf.jpg,stim_fb/posf.jpg,stim_01/c.jpg,stim_01/d.jpg,2,2,j,3,0,180,33,j,1,1.24960981647,01,01,60.0183208835,PLT_learning_01,N,2014_Feb_24_1751,P15,
stim_fb/ques.jpg,stim_fb/negf.jpg,stim_fb/posf.jpg,stim_01/c.jpg,stim_01/d.jpg,2,2,j,3,1,181,36,j,1,0.766449091359,01,01,60.0183208835,PLT_learning_01,N,2014_Feb_24_1751,P15,
stim_fb/ques.jpg,stim_fb/negf.jpg,stim_fb/posf.jpg,stim_01/a.jpg,stim_01/b.jpg,2,1,j,3,2,182,14,j,1,1.06635139886,01,01,60.0183208835,PLT_learning_01,N,2014_Feb_24_1751,P15,
stim_fb/ques.jpg,stim_fb/negf.jpg,stim_fb/posf.jpg,stim_01/a.jpg,stim_01/b.jpg,2,1,j,3,3,183,10,j,1,0.599856274765,01,01,60.0183208835,PLT_learning_01,N,2014_Feb_24_1751,P15,
stim_fb/ques.jpg,stim_fb/posf.jpg,stim_fb/negf.jpg,stim_01/b.jpg,stim_01/a.jpg,1,1,f,3,4,184,9,f,1,1.11638794896,01,01,60.0183208835,PLT_learning_01,N,2014_Feb_24_1751,P15,
stim_fb/ques.jpg,stim_fb/posf.jpg,stim_fb/negf.jpg,stim_01/f.jpg,stim_01/e.jpg,1,3,f,3,5,185,49,j,0,1.23297048894,01,01,60.0183208835,PLT_learning_01,N,2014_Feb_24_1751,P15,
stim_fb/ques.jpg,stim_fb/posf.jpg,stim_fb/negf.jpg,stim_01/c.jpg,stim_01/d.jpg,2,2,j,3,6,186,39,j,1,0.699828554672,01,01,60.0183208835,PLT_learning_01,N,2014_Feb_24_1751,P15,
stim_fb/ques.jpg,stim_fb/negf.jpg,stim_fb/posf.jpg,stim_01/b.jpg,stim_01/a.jpg,1,1,f,3,7,187,5,f,1,0.816436435816,01,01,60.0183208835,PLT_learning_01,N,2014_Feb_24_1751,P15,
stim_fb/ques.jpg,stim_fb/posf.jpg,stim_fb/negf.jpg,stim_01/c.jpg,stim_01/d.jpg,2,2,j,3,8,188,37,f,0,1.29960259246,01,01,60.0183208835,PLT_learning_01,N,2014_Feb_24_1751,P15,
stim_fb/ques.jpg,stim_fb/negf.jpg,stim_fb/posf.jpg,stim_01/f.jpg,stim_01/e.jpg,1,3,f,3,9,189,42,f,1,0.61646416493,01,01,60.0183208835,PLT_learning_01,N,2014_Feb_24_1751,P15,
stim_fb/ques.jpg,stim_fb/negf.jpg,stim_fb/posf.jpg,stim_01/e.jpg,stim_01/f.jpg,2,3,j,3,10,190,53,f,0,0.68316926339,01,01,60.0183208835,PLT_learning_01,N,2014_Feb_24_1751,P15,
stim_fb/ques.jpg,stim_fb/posf.jpg,stim_fb/negf.jpg,stim_01/f.jpg,stim_01/e.jpg,1,3,f,3,11,191,48,j,0,0.51656909948,01,01,60.0183208835,PLT_learning_01,N,2014_Feb_24_1751,P15,
stim_fb/ques.jpg,stim_fb/negf.jpg,stim_fb/posf.jpg,stim_01/b.jpg,stim_01/a.jpg,1,1,f,3,12,192,2,j,0,0.33327742799,01,01,60.0183208835,PLT_learning_01,N,2014_Feb_24_1751,P15,
stim_fb/ques.jpg,stim_fb/negf.jpg,stim_fb/posf.jpg,stim_01/a.jpg,stim_01/b.jpg,2,1,j,3,13,193,12,j,1,1.16632725167,01,01,60.0183208835,PLT_learning_01,N,2014_Feb_24_1751,P15,
stim_fb/ques.jpg,stim_fb/negf.jpg,stim_fb/posf.jpg,stim_01/f.jpg,stim_01/e.jpg,1,3,f,3,14,194,40,f,1,0.333249034218,01,01,60.0183208835,PLT_learning_01,N,2014_Feb_24_1751,P15,
stim_fb/ques.jpg,stim_fb/negf.jpg,stim_fb/posf.jpg,stim_01/e.jpg,stim_01/f.jpg,2,3,j,3,15,195,50,f,0,0.566502492462,01,01,60.0183208835,PLT_learning_01,N,2014_Feb_24_1751,P15,
stim_fb/ques.jpg,stim_fb/negf.jpg,stim_fb/posf.jpg,stim_01/b.jpg,stim_01/a.jpg,1,1,f,3,16,196,4,f,1,1.23293726213,01,01,60.0183208835,PLT_learning_01,N,2014_Feb_24_1751,P15,
stim_fb/ques.jpg,stim_fb/negf.jpg,stim_fb/posf.jpg,stim_01/b.jpg,stim_01/a.jpg,1,1,f,3,17,197,6,f,1,0.566518281817,01,01,60.0183208835,PLT_learning_01,N,2014_Feb_24_1751,P15,
stim_fb/ques.jpg,stim_fb/posf.jpg,stim_fb/negf.jpg,stim_01/f.jpg,stim_01/e.jpg,1,3,f,3,18,198,47,f,1,0.38324863422,01,01,60.0183208835,PLT_learning_01,N,2014_Feb_24_1751,P15,
stim_fb/ques.jpg,stim_fb/negf.jpg,stim_fb/posf.jpg,stim_01/a.jpg,stim_01/b.jpg,2,1,j,3,19,199,13,j,1,0.666518519411,01,01,60.0183208835,PLT_learning_01,N,2014_Feb_24_1751,P15,
stim_fb/ques.jpg,stim_fb/posf.jpg,stim_fb/negf.jpg,stim_01/d.jpg,stim_01/c.jpg,1,2,f,3,20,200,29,j,0,0.249964851391,01,01,60.0183208835,PLT_learning_01,N,2014_Feb_24_1751,P15,
stim_fb/ques.jpg,stim_fb/negf.jpg,stim_fb/posf.jpg,stim_01/b.jpg,stim_01/a.jpg,1,1,f,3,21,201,7,j,0,0.416582606145,01,01,60.0183208835,PLT_learning_01,N,2014_Feb_24_1751,P15,
stim_fb/ques.jpg,stim_fb/posf.jpg,stim_fb/negf.jpg,stim_01/d.jpg,stim_01/c.jpg,1,2,f,3,22,202,28,j,0,0.266626353185,01,01,60.0183208835,PLT_learning_01,N,2014_Feb_24_1751,P15,
stim_fb/ques.jpg,stim_fb/posf.jpg,stim_fb/negf.jpg,stim_01/e.jpg,stim_01/f.jpg,2,3,j,3,23,203,59,f,0,0.266581063301,01,01,60.0183208835,PLT_learning_01,N,2014_Feb_24_1751,P15,
stim_fb/ques.jpg,stim_fb/negf.jpg,stim_fb/posf.jpg,stim_01/c.jpg,stim_01/d.jpg,2,2,j,3,24,204,32,j,1,0.433211254051,01,01,60.0183208835,PLT_learning_01,N,2014_Feb_24_1751,P15,
stim_fb/ques.jpg,stim_fb/negf.jpg,stim_fb/posf.jpg,stim_01/b.jpg,stim_01/a.jpg,1,1,f,3,25,205,1,j,0,0.41658332193,01,01,60.0183208835,PLT_learning_01,N,2014_Feb_24_1751,P15,
stim_fb/ques.jpg,stim_fb/negf.jpg,stim_fb/posf.jpg,stim_01/b.jpg,stim_01/a.jpg,1,1,f,3,26,206,3,j,0,0.849721193073,01,01,60.0183208835,PLT_learning_01,N,2014_Feb_24_1751,P15,
stim_fb/ques.jpg,stim_fb/negf.jpg,stim_fb/posf.jpg,stim_01/f.jpg,stim_01/e.jpg,1,3,f,3,27,207,43,f,1,0.649840572627,01,01,60.0183208835,PLT_learning_01,N,2014_Feb_24_1751,P15,
stim_fb/ques.jpg,stim_fb/posf.jpg,stim_fb/negf.jpg,stim_01/c.jpg,stim_01/d.jpg,2,2,j,3,28,208,38,f,0,0.483261133375,01,01,60.0183208835,PLT_learning_01,N,2014_Feb_24_1751,P15,
stim_fb/ques.jpg,stim_fb/negf.jpg,stim_fb/posf.jpg,stim_01/c.jpg,stim_01/d.jpg,2,2,j,3,29,209,35,j,1,0.483188733919,01,01,60.0183208835,PLT_learning_01,N,2014_Feb_24_1751,P15,
stim_fb/ques.jpg,stim_fb/posf.jpg,stim_fb/negf.jpg,stim_01/a.jpg,stim_01/b.jpg,2,1,j,3,30,210,19,f,0,0.44990505936,01,01,60.0183208835,PLT_learning_01,N,2014_Feb_24_1751,P15,
stim_fb/ques.jpg,stim_fb/negf.jpg,stim_fb/posf.jpg,stim_01/d.jpg,stim_01/c.jpg,1,2,f,3,31,211,20,j,0,0.433200532327,01,01,60.0183208835,PLT_learning_01,N,2014_Feb_24_1751,P15,
stim_fb/ques.jpg,stim_fb/negf.jpg,stim_fb/posf.jpg,stim_01/d.jpg,stim_01/c.jpg,1,2,f,3,32,212,26,f,1,0.833114812671,01,01,60.0183208835,PLT_learning_01,N,2014_Feb_24_1751,P15,
stim_fb/ques.jpg,stim_fb/negf.jpg,stim_fb/posf.jpg,stim_01/a.jpg,stim_01/b.jpg,2,1,j,3,33,213,17,f,0,0.366615493116,01,01,60.0183208835,PLT_learning_01,N,2014_Feb_24_1751,P15,
stim_fb/ques.jpg,stim_fb/posf.jpg,stim_fb/negf.jpg,stim_01/d.jpg,stim_01/c.jpg,1,2,f,3,34,214,27,f,1,1.48290913903,01,01,60.0183208835,PLT_learning_01,N,2014_Feb_24_1751,P15,
stim_fb/ques.jpg,stim_fb/negf.jpg,stim_fb/posf.jpg,stim_01/a.jpg,stim_01/b.jpg,2,1,j,3,35,215,11,j,1,0.849679440003,01,01,60.0183208835,PLT_learning_01,N,2014_Feb_24_1751,P15,
stim_fb/ques.jpg,stim_fb/negf.jpg,stim_fb/posf.jpg,stim_01/b.jpg,stim_01/a.jpg,1,1,f,3,36,216,0,j,0,1.09968979782,01,01,60.0183208835,PLT_learning_01,N,2014_Feb_24_1751,P15,
stim_fb/ques.jpg,stim_fb/negf.jpg,stim_fb/posf.jpg,stim_01/e.jpg,stim_01/f.jpg,2,3,j,3,37,217,54,f,0,0.949742711708,01,01,60.0183208835,PLT_learning_01,N,2014_Feb_24_1751,P15,
stim_fb/ques.jpg,stim_fb/posf.jpg,stim_fb/negf.jpg,stim_01/e.jpg,stim_01/f.jpg,2,3,j,3,38,218,56,j,1,0.483211178864,01,01,60.0183208835,PLT_learning_01,N,2014_Feb_24_1751,P15,
stim_fb/ques.jpg,stim_fb/negf.jpg,stim_fb/posf.jpg,stim_01/d.jpg,stim_01/c.jpg,1,2,f,3,39,219,24,j,0,0.383247825204,01,01,60.0183208835,PLT_learning_01,N,2014_Feb_24_1751,P15,
stim_fb/ques.jpg,stim_fb/posf.jpg,stim_fb/negf.jpg,stim_01/b.jpg,stim_01/a.jpg,1,1,f,3,40,220,8,j,0,1.23298406177,01,01,60.0183208835,PLT_learning_01,N,2014_Feb_24_1751,P15,
stim_fb/ques.jpg,stim_fb/negf.jpg,stim_fb/posf.jpg,stim_01/c.jpg,stim_01/d.jpg,2,2,j,3,41,221,31,j,1,0.433248519937,01,01,60.0183208835,PLT_learning_01,N,2014_Feb_24_1751,P15,
stim_fb/ques.jpg,stim_fb/negf.jpg,stim_fb/posf.jpg,stim_01/e.jpg,stim_01/f.jpg,2,3,j,3,42,222,51,j,1,0.583142012467,01,01,60.0183208835,PLT_learning_01,N,2014_Feb_24_1751,P15,
stim_fb/ques.jpg,stim_fb/negf.jpg,stim_fb/posf.jpg,stim_01/e.jpg,stim_01/f.jpg,2,3,j,3,43,223,52,j,1,0.766528513319,01,01,60.0183208835,PLT_learning_01,N,2014_Feb_24_1751,P15,
stim_fb/ques.jpg,stim_fb/negf.jpg,stim_fb/posf.jpg,stim_01/f.jpg,stim_01/e.jpg,1,3,f,3,44,224,45,f,1,0.533206213488,01,01,60.0183208835,PLT_learning_01,N,2014_Feb_24_1751,P15,
stim_fb/ques.jpg,stim_fb/negf.jpg,stim_fb/posf.jpg,stim_01/d.jpg,stim_01/c.jpg,1,2,f,3,45,225,23,j,0,0.816462426597,01,01,60.0183208835,PLT_learning_01,N,2014_Feb_24_1751,P15,
stim_fb/ques.jpg,stim_fb/negf.jpg,stim_fb/posf.jpg,stim_01/a.jpg,stim_01/b.jpg,2,1,j,3,46,226,16,f,0,1.41625912888,01,01,60.0183208835,PLT_learning_01,N,2014_Feb_24_1751,P15,
stim_fb/ques.jpg,stim_fb/posf.jpg,stim_fb/negf.jpg,stim_01/e.jpg,stim_01/f.jpg,2,3,j,3,47,227,57,j,1,0.749804645075,01,01,60.0183208835,PLT_learning_01,N,2014_Feb_24_1751,P15,
stim_fb/ques.jpg,stim_fb/negf.jpg,stim_fb/posf.jpg,stim_01/d.jpg,stim_01/c.jpg,1,2,f,3,48,228,21,f,1,0.949781953521,01,01,60.0183208835,PLT_learning_01,N,2014_Feb_24_1751,P15,
stim_fb/ques.jpg,stim_fb/negf.jpg,stim_fb/posf.jpg,stim_01/d.jpg,stim_01/c.jpg,1,2,f,3,49,229,22,f,1,0.499897071451,01,01,60.0183208835,PLT_learning_01,N,2014_Feb_24_1751,P15,
stim_fb/ques.jpg,stim_fb/negf.jpg,stim_fb/posf.jpg,stim_01/d.jpg,stim_01/c.jpg,1,2,f,3,50,230,25,f,1,0.849765102517,01,01,60.0183208835,PLT_learning_01,N,2014_Feb_24_1751,P15,
stim_fb/ques.jpg,stim_fb/negf.jpg,stim_fb/posf.jpg,stim_01/c.jpg,stim_01/d.jpg,2,2,j,3,51,231,34,j,1,0.699810214959,01,01,60.0183208835,PLT_learning_01,N,2014_Feb_24_1751,P15,
stim_fb/ques.jpg,stim_fb/negf.jpg,stim_fb/posf.jpg,stim_01/f.jpg,stim_01/e.jpg,1,3,f,3,52,232,44,j,0,1.34961763295,01,01,60.0183208835,PLT_learning_01,N,2014_Feb_24_1751,P15,
stim_fb/ques.jpg,stim_fb/posf.jpg,stim_fb/negf.jpg,stim_01/a.jpg,stim_01/b.jpg,2,1,j,3,53,233,18,j,1,0.716476110705,01,01,60.0183208835,PLT_learning_01,N,2014_Feb_24_1751,P15,
stim_fb/ques.jpg,stim_fb/negf.jpg,stim_fb/posf.jpg,stim_01/c.jpg,stim_01/d.jpg,2,2,j,3,54,234,30,j,1,0.633168499484,01,01,60.0183208835,PLT_learning_01,N,2014_Feb_24_1751,P15,
stim_fb/ques.jpg,stim_fb/posf.jpg,stim_fb/negf.jpg,stim_01/e.jpg,stim_01/f.jpg,2,3,j,3,55,235,58,j,1,0.399893877493,01,01,60.0183208835,PLT_learning_01,N,2014_Feb_24_1751,P15,
stim_fb/ques.jpg,stim_fb/negf.jpg,stim_fb/posf.jpg,stim_01/f.jpg,stim_01/e.jpg,1,3,f,3,56,236,41,f,1,0.983068918278,01,01,60.0183208835,PLT_learning_01,N,2014_Feb_24_1751,P15,
stim_fb/ques.jpg,stim_fb/posf.jpg,stim_fb/negf.jpg,stim_01/f.jpg,stim_01/e.jpg,1,3,f,3,57,237,46,f,1,0.649829859925,01,01,60.0183208835,PLT_learning_01,N,2014_Feb_24_1751,P15,
stim_fb/ques.jpg,stim_fb/negf.jpg,stim_fb/posf.jpg,stim_01/a.jpg,stim_01/b.jpg,2,1,j,3,58,238,15,j,1,1.06632548327,01,01,60.0183208835,PLT_learning_01,N,2014_Feb_24_1751,P15,
stim_fb/ques.jpg,stim_fb/negf.jpg,stim_fb/posf.jpg,stim_01/e.jpg,stim_01/f.jpg,2,3,j,3,59,239,55,j,1,0.716507298439,01,01,60.0183208835,PLT_learning_01,N,2014_Feb_24_1751,P15,
stim_fb/ques.jpg,stim_fb/negf.jpg,stim_fb/posf.jpg,stim_01/e.jpg,stim_01/f.jpg,2,3,j,4,0,240,54,j,1,1.14966698296,01,01,60.0183208835,PLT_learning_01,N,2014_Feb_24_1751,P15,
stim_fb/ques.jpg,stim_fb/negf.jpg,stim_fb/posf.jpg,stim_01/d.jpg,stim_01/c.jpg,1,2,f,4,1,241,20,f,1,0.866452622162,01,01,60.0183208835,PLT_learning_01,N,2014_Feb_24_1751,P15,
stim_fb/ques.jpg,stim_fb/negf.jpg,stim_fb/posf.jpg,stim_01/c.jpg,stim_01/d.jpg,2,2,j,4,2,242,30,j,1,0.766456595065,01,01,60.0183208835,PLT_learning_01,N,2014_Feb_24_1751,P15,
stim_fb/ques.jpg,stim_fb/negf.jpg,stim_fb/posf.jpg,stim_01/e.jpg,stim_01/f.jpg,2,3,j,4,3,243,51,j,1,1.34961291419,01,01,60.0183208835,PLT_learning_01,N,2014_Feb_24_1751,P15,
stim_fb/ques.jpg,stim_fb/negf.jpg,stim_fb/posf.jpg,stim_01/a.jpg,stim_01/b.jpg,2,1,j,4,4,244,16,j,1,1.43293654935,01,01,60.0183208835,PLT_learning_01,N,2014_Feb_24_1751,P15,
stim_fb/ques.jpg,stim_fb/negf.jpg,stim_fb/posf.jpg,stim_01/c.jpg,stim_01/d.jpg,2,2,j,4,5,245,32,j,1,0.699812530733,01,01,60.0183208835,PLT_learning_01,N,2014_Feb_24_1751,P15,
stim_fb/ques.jpg,stim_fb/negf.jpg,stim_fb/posf.jpg,stim_01/e.jpg,stim_01/f.jpg,2,3,j,4,6,246,52,f,0,0.916428953165,01,01,60.0183208835,PLT_learning_01,N,2014_Feb_24_1751,P15,
stim_fb/ques.jpg,stim_fb/negf.jpg,stim_fb/posf.jpg,stim_01/f.jpg,stim_01/e.jpg,1,3,f,4,7,247,43,j,0,0.933071125783,01,01,60.0183208835,PLT_learning_01,N,2014_Feb_24_1751,P15,
stim_fb/ques.jpg,stim_fb/negf.jpg,stim_fb/posf.jpg,stim_01/c.jpg,stim_01/d.jpg,2,2,j,4,8,248,33,j,1,0.733125561459,01,01,60.0183208835,PLT_learning_01,N,2014_Feb_24_1751,P15,
stim_fb/ques.jpg,stim_fb/negf.jpg,stim_fb/posf.jpg,stim_01/d.jpg,stim_01/c.jpg,1,2,f,4,9,249,21,f,1,0.58319249329,01,01,60.0183208835,PLT_learning_01,N,2014_Feb_24_1751,P15,
stim_fb/ques.jpg,stim_fb/posf.jpg,stim_fb/negf.jpg,stim_01/e.jpg,stim_01/f.jpg,2,3,j,4,10,250,56,f,0,0.549810037519,01,01,60.0183208835,PLT_learning_01,N,2014_Feb_24_1751,P15,
stim_fb/ques.jpg,stim_fb/negf.jpg,stim_fb/posf.jpg,stim_01/b.jpg,stim_01/a.jpg,1,1,f,4,11,251,1,j,0,1.11636218675,01,01,60.0183208835,PLT_learning_01,N,2014_Feb_24_1751,P15,
stim_fb/ques.jpg,stim_fb/negf.jpg,stim_fb/posf.jpg,stim_01/c.jpg,stim_01/d.jpg,2,2,j,4,12,252,31,j,1,0.566519283315,01,01,60.0183208835,PLT_learning_01,N,2014_Feb_24_1751,P15,
stim_fb/ques.jpg,stim_fb/posf.jpg,stim_fb/negf.jpg,stim_01/b.jpg,stim_01/a.jpg,1,1,f,4,13,253,9,f,1,0.666496826339,01,01,60.0183208835,PLT_learning_01,N,2014_Feb_24_1751,P15,
stim_fb/ques.jpg,stim_fb/negf.jpg,stim_fb/posf.jpg,stim_01/c.jpg,stim_01/d.jpg,2,2,j,4,14,254,36,j,1,0.53323344035,01,01,60.0183208835,PLT_learning_01,N,2014_Feb_24_1751,P15,
stim_fb/ques.jpg,stim_fb/negf.jpg,stim_fb/posf.jpg,stim_01/a.jpg,stim_01/b.jpg,2,1,j,4,15,255,14,j,1,0.899723030656,01,01,60.0183208835,PLT_learning_01,N,2014_Feb_24_1751,P15,
stim_fb/ques.jpg,stim_fb/posf.jpg,stim_fb/negf.jpg,stim_01/a.jpg,stim_01/b.jpg,2,1,j,4,16,256,19,j,1,0.583180207668,01,01,60.0183208835,PLT_learning_01,N,2014_Feb_24_1751,P15,
stim_fb/ques.jpg,stim_fb/negf.jpg,stim_fb/posf.jpg,stim_01/b.jpg,stim_01/a.jpg,1,1,f,4,17,257,2,f,1,0.999720874279,01,01,60.0183208835,PLT_learning_01,N,2014_Feb_24_1751,P15,
stim_fb/ques.jpg,stim_fb/posf.jpg,stim_fb/negf.jpg,stim_01/c.jpg,stim_01/d.jpg,2,2,j,4,18,258,39,j,1,0.566557216865,01,01,60.0183208835,PLT_learning_01,N,2014_Feb_24_1751,P15,
stim_fb/ques.jpg,stim_fb/negf.jpg,stim_fb/posf.jpg,stim_01/c.jpg,stim_01/d.jpg,2,2,j,4,19,259,35,j,1,0.649813423959,01,01,60.0183208835,PLT_learning_01,N,2014_Feb_24_1751,P15,
stim_fb/ques.jpg,stim_fb/negf.jpg,stim_fb/posf.jpg,stim_01/f.jpg,stim_01/e.jpg,1,3,f,4,20,260,45,j,0,0.683144156814,01,01,60.0183208835,PLT_learning_01,N,2014_Feb_24_1751,P15,
stim_fb/ques.jpg,stim_fb/negf.jpg,stim_fb/posf.jpg,stim_01/a.jpg,stim_01/b.jpg,2,1,j,4,21,261,13,j,1,0.649828208811,01,01,60.0183208835,PLT_learning_01,N,2014_Feb_24_1751,P15,
stim_fb/ques.jpg,stim_fb/negf.jpg,stim_fb/posf.jpg,stim_01/f.jpg,stim_01/e.jpg,1,3,f,4,22,262,41,f,1,0.966401028563,01,01,60.0183208835,PLT_learning_01,N,2014_Feb_24_1751,P15,
stim_fb/ques.jpg,stim_fb/posf.jpg,stim_fb/negf.jpg,stim_01/d.jpg,stim_01/c.jpg,1,2,f,4,23,263,28,j,0,0.616504669892,01,01,60.0183208835,PLT_learning_01,N,2014_Feb_24_1751,P15,
stim_fb/ques.jpg,stim_fb/negf.jpg,stim_fb/posf.jpg,stim_01/e.jpg,stim_01/f.jpg,2,3,j,4,24,264,55,f,0,0.933078151291,01,01,60.0183208835,PLT_learning_01,N,2014_Feb_24_1751,P15,
stim_fb/ques.jpg,stim_fb/negf.jpg,stim_fb/posf.jpg,stim_01/b.jpg,stim_01/a.jpg,1,1,f,4,25,265,3,f,1,0.966381143,01,01,60.0183208835,PLT_learning_01,N,2014_Feb_24_1751,P15,
stim_fb/ques.jpg,stim_fb/negf.jpg,stim_fb/posf.jpg,stim_01/b.jpg,stim_01/a.jpg,1,1,f,4,26,266,6,f,1,0.633193016594,01,01,60.0183208835,PLT_learning_01,N,2014_Feb_24_1751,P15,
stim_fb/ques.jpg,stim_fb/negf.jpg,stim_fb/posf.jpg,stim_01/a.jpg,stim_01/b.jpg,2,1,j,4,27,267,11,j,1,0.649841501941,01,01,60.0183208835,PLT_learning_01,N,2014_Feb_24_1751,P15,
stim_fb/ques.jpg,stim_fb/posf.jpg,stim_fb/negf.jpg,stim_01/b.jpg,stim_01/a.jpg,1,1,f,4,28,268,8,j,0,1.39958412643,01,01,60.0183208835,PLT_learning_01,N,2014_Feb_24_1751,P15,
stim_fb/ques.jpg,stim_fb/posf.jpg,stim_fb/negf.jpg,stim_01/a.jpg,stim_01/b.jpg,2,1,j,4,29,269,18,j,1,0.749800717287,01,01,60.0183208835,PLT_learning_01,N,2014_Feb_24_1751,P15,
stim_fb/ques.jpg,stim_fb/negf.jpg,stim_fb/posf.jpg,stim_01/f.jpg,stim_01/e.jpg,1,3,f,4,30,270,40,f,1,0.683146683106,01,01,60.0183208835,PLT_learning_01,N,2014_Feb_24_1751,P15,
stim_fb/ques.jpg,stim_fb/posf.jpg,stim_fb/negf.jpg,stim_01/f.jpg,stim_01/e.jpg,1,3,f,4,31,271,47,j,0,0.799790266239,01,01,60.0183208835,PLT_learning_01,N,2014_Feb_24_1751,P15,
stim_fb/ques.jpg,stim_fb/posf.jpg,stim_fb/negf.jpg,stim_01/c.jpg,stim_01/d.jpg,2,2,j,4,32,272,37,j,1,0.64983126142,01,01,60.0183208835,PLT_learning_01,N,2014_Feb_24_1751,P15,
stim_fb/ques.jpg,stim_fb/negf.jpg,stim_fb/posf.jpg,stim_01/d.jpg,stim_01/c.jpg,1,2,f,4,33,273,23,j,0,1.06637407839,01,01,60.0183208835,PLT_learning_01,N,2014_Feb_24_1751,P15,
stim_fb/ques.jpg,stim_fb/negf.jpg,stim_fb/posf.jpg,stim_01/b.jpg,stim_01/a.jpg,1,1,f,4,34,274,5,j,0,1.46620872625,01,01,60.0183208835,PLT_learning_01,N,2014_Feb_24_1751,P15,
stim_fb/ques.jpg,stim_fb/negf.jpg,stim_fb/posf.jpg,stim_01/d.jpg,stim_01/c.jpg,1,2,f,4,35,275,24,f,1,0.683147997384,01,01,60.0183208835,PLT_learning_01,N,2014_Feb_24_1751,P15,
stim_fb/ques.jpg,stim_fb/posf.jpg,stim_fb/negf.jpg,stim_01/e.jpg,stim_01/f.jpg,2,3,j,4,36,276,58,j,1,0.916423028397,01,01,60.0183208835,PLT_learning_01,N,2014_Feb_24_1751,P15,
stim_fb/ques.jpg,stim_fb/negf.jpg,stim_fb/posf.jpg,stim_01/e.jpg,stim_01/f.jpg,2,3,j,4,37,277,50,f,0,0.816435458379,01,01,60.0183208835,PLT_learning_01,N,2014_Feb_24_1751,P15,
stim_fb/ques.jpg,stim_fb/negf.jpg,stim_fb/posf.jpg,stim_01/f.jpg,stim_01/e.jpg,1,3,f,4,38,278,42,f,1,0.883091504573,01,01,60.0183208835,PLT_learning_01,N,2014_Feb_24_1751,P15,
stim_fb/ques.jpg,stim_fb/negf.jpg,stim_fb/posf.jpg,stim_01/d.jpg,stim_01/c.jpg,1,2,f,4,39,279,25,f,1,0.916402147355,01,01,60.0183208835,PLT_learning_01,N,2014_Feb_24_1751,P15,
stim_fb/ques.jpg,stim_fb/negf.jpg,stim_fb/posf.jpg,stim_01/d.jpg,stim_01/c.jpg,1,2,f,4,40,280,26,f,1,0.666493112083,01,01,60.0183208835,PLT_learning_01,N,2014_Feb_24_1751,P15,
stim_fb/ques.jpg,stim_fb/negf.jpg,stim_fb/posf.jpg,stim_01/b.jpg,stim_01/a.jpg,1,1,f,4,41,281,4,j,0,0.766427509567,01,01,60.0183208835,PLT_learning_01,N,2014_Feb_24_1751,P15,
stim_fb/ques.jpg,stim_fb/posf.jpg,stim_fb/negf.jpg,stim_01/f.jpg,stim_01/e.jpg,1,3,f,4,42,282,46,j,0,1.31628301141,01,01,60.0183208835,PLT_learning_01,N,2014_Feb_24_1751,P15,
stim_fb/ques.jpg,stim_fb/negf.jpg,stim_fb/posf.jpg,stim_01/e.jpg,stim_01/f.jpg,2,3,j,4,43,283,53,j,1,1.06633764258,01,01,60.0183208835,PLT_learning_01,N,2014_Feb_24_1751,P15,
stim_fb/ques.jpg,stim_fb/negf.jpg,stim_fb/posf.jpg,stim_01/a.jpg,stim_01/b.jpg,2,1,j,4,44,284,15,j,1,0.766411954795,01,01,60.0183208835,PLT_learning_01,N,2014_Feb_24_1751,P15,
stim_fb/ques.jpg,stim_fb/posf.jpg,stim_fb/negf.jpg,stim_01/e.jpg,stim_01/f.jpg,2,3,j,4,45,285,57,j,1,0.599857850691,01,01,60.0183208835,PLT_learning_01,N,2014_Feb_24_1751,P15,
stim_fb/ques.jpg,stim_fb/posf.jpg,stim_fb/negf.jpg,stim_01/f.jpg,stim_01/e.jpg,1,3,f,4,46,286,48,j,0,1.24965508229,01,01,60.0183208835,PLT_learning_01,N,2014_Feb_24_1751,P15,
stim_fb/ques.jpg,stim_fb/negf.jpg,stim_fb/posf.jpg,stim_01/a.jpg,stim_01/b.jpg,2,1,j,4,47,287,10,j,1,0.566532158406,01,01,60.0183208835,PLT_learning_01,N,2014_Feb_24_1751,P15,
stim_fb/ques.jpg,stim_fb/negf.jpg,stim_fb/posf.jpg,stim_01/c.jpg,stim_01/d.jpg,2,2,j,4,48,288,34,f,0,1.09972048631,01,01,60.0183208835,PLT_learning_01,N,2014_Feb_24_1751,P15,
stim_fb/ques.jpg,stim_fb/negf.jpg,stim_fb/posf.jpg,stim_01/b.jpg,stim_01/a.jpg,1,1,f,4,49,289,7,f,1,0.766481912167,01,01,60.0183208835,PLT_learning_01,N,2014_Feb_24_1751,P15,
stim_fb/ques.jpg,stim_fb/posf.jpg,stim_fb/negf.jpg,stim_01/f.jpg,stim_01/e.jpg,1,3,f,4,50,290,49,f,1,0.949782176071,01,01,60.0183208835,PLT_learning_01,N,2014_Feb_24_1751,P15,
stim_fb/ques.jpg,stim_fb/negf.jpg,stim_fb/posf.jpg,stim_01/d.jpg,stim_01/c.jpg,1,2,f,4,51,291,22,f,1,0.949835544092,01,01,60.0183208835,PLT_learning_01,N,2014_Feb_24_1751,P15,
stim_fb/ques.jpg,stim_fb/negf.jpg,stim_fb/posf.jpg,stim_01/a.jpg,stim_01/b.jpg,2,1,j,4,52,292,17,j,1,0.616500937587,01,01,60.0183208835,PLT_learning_01,N,2014_Feb_24_1751,P15,
stim_fb/ques.jpg,stim_fb/posf.jpg,stim_fb/negf.jpg,stim_01/d.jpg,stim_01/c.jpg,1,2,f,4,53,293,29,f,1,0.699804605978,01,01,60.0183208835,PLT_learning_01,N,2014_Feb_24_1751,P15,
stim_fb/ques.jpg,stim_fb/negf.jpg,stim_fb/posf.jpg,stim_01/b.jpg,stim_01/a.jpg,1,1,f,4,54,294,0,f,1,0.76646790325,01,01,60.0183208835,PLT_learning_01,N,2014_Feb_24_1751,P15,
stim_fb/ques.jpg,stim_fb/negf.jpg,stim_fb/posf.jpg,stim_01/f.jpg,stim_01/e.jpg,1,3,f,4,55,295,44,f,1,0.849775743038,01,01,60.0183208835,PLT_learning_01,N,2014_Feb_24_1751,P15,
stim_fb/ques.jpg,stim_fb/posf.jpg,stim_fb/negf.jpg,stim_01/c.jpg,stim_01/d.jpg,2,2,j,4,56,296,38,j,1,0.816443539523,01,01,60.0183208835,PLT_learning_01,N,2014_Feb_24_1751,P15,
stim_fb/ques.jpg,stim_fb/posf.jpg,stim_fb/negf.jpg,stim_01/e.jpg,stim_01/f.jpg,2,3,j,4,57,297,59,j,1,0.616519436695,01,01,60.0183208835,PLT_learning_01,N,2014_Feb_24_1751,P15,
stim_fb/ques.jpg,stim_fb/posf.jpg,stim_fb/negf.jpg,stim_01/d.jpg,stim_01/c.jpg,1,2,f,4,58,298,27,f,1,0.733145266579,01,01,60.0183208835,PLT_learning_01,N,2014_Feb_24_1751,P15,
stim_fb/ques.jpg,stim_fb/negf.jpg,stim_fb/posf.jpg,stim_01/a.jpg,stim_01/b.jpg,2,1,j,4,59,299,12,j,1,0.599791306831,01,01,60.0183208835,PLT_learning_01,N,2014_Feb_24_1751,P15,
stim_fb/ques.jpg,stim_fb/posf.jpg,stim_fb/negf.jpg,stim_01/f.jpg,stim_01/e.jpg,1,3,f,5,0,300,48,j,0,1.36627845806,01,01,60.0183208835,PLT_learning_01,N,2014_Feb_24_1751,P15,
stim_fb/ques.jpg,stim_fb/negf.jpg,stim_fb/posf.jpg,stim_01/a.jpg,stim_01/b.jpg,2,1,j,5,1,301,10,j,1,0.783124340418,01,01,60.0183208835,PLT_learning_01,N,2014_Feb_24_1751,P15,
stim_fb/ques.jpg,stim_fb/posf.jpg,stim_fb/negf.jpg,stim_01/f.jpg,stim_01/e.jpg,1,3,f,5,2,302,49,f,1,0.899759340155,01,01,60.0183208835,PLT_learning_01,N,2014_Feb_24_1751,P15,
stim_fb/ques.jpg,stim_fb/posf.jpg,stim_fb/negf.jpg,stim_01/e.jpg,stim_01/f.jpg,2,3,j,5,3,303,57,j,1,0.666489067,01,01,60.0183208835,PLT_learning_01,N,2014_Feb_24_1751,P15,
stim_fb/ques.jpg,stim_fb/negf.jpg,stim_fb/posf.jpg,stim_01/c.jpg,stim_01/d.jpg,2,2,j,5,4,304,30,j,1,1.08332403516,01,01,60.0183208835,PLT_learning_01,N,2014_Feb_24_1751,P15,
stim_fb/ques.jpg,stim_fb/posf.jpg,stim_fb/negf.jpg,stim_01/e.jpg,stim_01/f.jpg,2,3,j,5,5,305,59,j,1,0.849774946055,01,01,60.0183208835,PLT_learning_01,N,2014_Feb_24_1751,P15,
stim_fb/ques.jpg,stim_fb/negf.jpg,stim_fb/posf.jpg,stim_01/c.jpg,stim_01/d.jpg,2,2,j,5,6,306,31,j,1,0.966357549194,01,01,60.0183208835,PLT_learning_01,N,2014_Feb_24_1751,P15,
stim_fb/ques.jpg,stim_fb/negf.jpg,stim_fb/posf.jpg,stim_01/b.jpg,stim_01/a.jpg,1,1,f,5,7,307,5,f,1,0.749802193968,01,01,60.0183208835,PLT_learning_01,N,2014_Feb_24_1751,P15,
stim_fb/ques.jpg,stim_fb/negf.jpg,stim_fb/posf.jpg,stim_01/f.jpg,stim_01/e.jpg,1,3,f,5,8,308,45,f,1,0.933060846157,01,01,60.0183208835,PLT_learning_01,N,2014_Feb_24_1751,P15,
stim_fb/ques.jpg,stim_fb/negf.jpg,stim_fb/posf.jpg,stim_01/e.jpg,stim_01/f.jpg,2,3,j,5,9,309,50,j,1,0.649838461366,01,01,60.0183208835,PLT_learning_01,N,2014_Feb_24_1751,P15,
stim_fb/ques.jpg,stim_fb/posf.jpg,stim_fb/negf.jpg,stim_01/f.jpg,stim_01/e.jpg,1,3,f,5,10,310,47,f,1,0.716425641913,01,01,60.0183208835,PLT_learning_01,N,2014_Feb_24_1751,P15,
stim_fb/ques.jpg,stim_fb/posf.jpg,stim_fb/negf.jpg,stim_01/c.jpg,stim_01/d.jpg,2,2,j,5,11,311,37,f,0,1.23297658814,01,01,60.0183208835,PLT_learning_01,N,2014_Feb_24_1751,P15,
stim_fb/ques.jpg,stim_fb/negf.jpg,stim_fb/posf.jpg,stim_01/c.jpg,stim_01/d.jpg,2,2,j,5,12,312,36,f,0,0.683129931353,01,01,60.0183208835,PLT_learning_01,N,2014_Feb_24_1751,P15,
stim_fb/ques.jpg,stim_fb/negf.jpg,stim_fb/posf.jpg,stim_01/b.jpg,stim_01/a.jpg,1,1,f,5,13,313,6,f,1,0.766468670161,01,01,60.0183208835,PLT_learning_01,N,2014_Feb_24_1751,P15,
stim_fb/ques.jpg,stim_fb/negf.jpg,stim_fb/posf.jpg,stim_01/a.jpg,stim_01/b.jpg,2,1,j,5,14,314,15,j,1,1.03300572778,01,01,60.0183208835,PLT_learning_01,N,2014_Feb_24_1751,P15,
stim_fb/ques.jpg,stim_fb/posf.jpg,stim_fb/negf.jpg,stim_01/c.jpg,stim_01/d.jpg,2,2,j,5,15,315,39,f,0,0.966389049707,01,01,60.0183208835,PLT_learning_01,N,2014_Feb_24_1751,P15,
stim_fb/ques.jpg,stim_fb/negf.jpg,stim_fb/posf.jpg,stim_01/b.jpg,stim_01/a.jpg,1,1,f,5,16,316,4,f,1,0.616514378089,01,01,60.0183208835,PLT_learning_01,N,2014_Feb_24_1751,P15,
stim_fb/ques.jpg,stim_fb/negf.jpg,stim_fb/posf.jpg,stim_01/d.jpg,stim_01/c.jpg,1,2,f,5,17,317,26,j,0,1.0830076255,01,01,60.0183208835,PLT_learning_01,N,2014_Feb_24_1751,P15,
stim_fb/ques.jpg,stim_fb/negf.jpg,stim_fb/posf.jpg,stim_01/d.jpg,stim_01/c.jpg,1,2,f,5,18,318,21,j,0,0.949734741844,01,01,60.0183208835,PLT_learning_01,N,2014_Feb_24_1751,P15,
stim_fb/ques.jpg,stim_fb/posf.jpg,stim_fb/negf.jpg,stim_01/b.jpg,stim_01/a.jpg,1,1,f,5,19,319,8,f,1,0.733029793762,01,01,60.0183208835,PLT_learning_01,N,2014_Feb_24_1751,P15,
stim_fb/ques.jpg,stim_fb/posf.jpg,stim_fb/negf.jpg,stim_01/d.jpg,stim_01/c.jpg,1,2,f,5,20,320,28,f,1,1.08302889151,01,01,60.0183208835,PLT_learning_01,N,2014_Feb_24_1751,P15,
stim_fb/ques.jpg,stim_fb/negf.jpg,stim_fb/posf.jpg,stim_01/f.jpg,stim_01/e.jpg,1,3,f,5,21,321,44,f,1,0.899755592818,01,01,60.0183208835,PLT_learning_01,N,2014_Feb_24_1751,P15,
stim_fb/ques.jpg,stim_fb/negf.jpg,stim_fb/posf.jpg,stim_01/d.jpg,stim_01/c.jpg,1,2,f,5,22,322,20,f,1,1.09969316622,01,01,60.0183208835,PLT_learning_01,N,2014_Feb_24_1751,P15,
stim_fb/ques.jpg,stim_fb/negf.jpg,stim_fb/posf.jpg,stim_01/b.jpg,stim_01/a.jpg,1,1,f,5,23,323,7,f,1,0.61649056774,01,01,60.0183208835,PLT_learning_01,N,2014_Feb_24_1751,P15,
stim_fb/ques.jpg,stim_fb/negf.jpg,stim_fb/posf.jpg,stim_01/e.jpg,stim_01/f.jpg,2,3,j,5,24,324,55,j,1,0.68316491455,01,01,60.0183208835,PLT_learning_01,N,2014_Feb_24_1751,P15,
stim_fb/ques.jpg,stim_fb/negf.jpg,stim_fb/posf.jpg,stim_01/f.jpg,stim_01/e.jpg,1,3,f,5,25,325,43,f,1,1.18299690679,01,01,60.0183208835,PLT_learning_01,N,2014_Feb_24_1751,P15,
stim_fb/ques.jpg,stim_fb/posf.jpg,stim_fb/negf.jpg,stim_01/d.jpg,stim_01/c.jpg,1,2,f,5,26,326,27,f,1,0.783129426094,01,01,60.0183208835,PLT_learning_01,N,2014_Feb_24_1751,P15,
stim_fb/ques.jpg,stim_fb/negf.jpg,stim_fb/posf.jpg,stim_01/e.jpg,stim_01/f.jpg,2,3,j,5,27,327,51,j,1,0.899718378059,01,01,60.0183208835,PLT_learning_01,N,2014_Feb_24_1751,P15,
stim_fb/ques.jpg,stim_fb/posf.jpg,stim_fb/negf.jpg,stim_01/f.jpg,stim_01/e.jpg,1,3,f,5,28,328,46,f,1,1.01638040315,01,01,60.0183208835,PLT_learning_01,N,2014_Feb_24_1751,P15,
stim_fb/ques.jpg,stim_fb/negf.jpg,stim_fb/posf.jpg,stim_01/c.jpg,stim_01/d.jpg,2,2,j,5,29,329,32,f,0,1.01638095052,01,01,60.0183208835,PLT_learning_01,N,2014_Feb_24_1751,P15,
stim_fb/ques.jpg,stim_fb/negf.jpg,stim_fb/posf.jpg,stim_01/b.jpg,stim_01/a.jpg,1,1,f,5,30,330,1,f,1,0.749786882803,01,01,60.0183208835,PLT_learning_01,N,2014_Feb_24_1751,P15,
stim_fb/ques.jpg,stim_fb/posf.jpg,stim_fb/negf.jpg,stim_01/d.jpg,stim_01/c.jpg,1,2,f,5,31,331,29,f,1,0.966419575794,01,01,60.0183208835,PLT_learning_01,N,2014_Feb_24_1751,P15,
stim_fb/ques.jpg,stim_fb/posf.jpg,stim_fb/negf.jpg,stim_01/a.jpg,stim_01/b.jpg,2,1,j,5,32,332,19,j,1,0.816448950005,01,01,60.0183208835,PLT_learning_01,N,2014_Feb_24_1751,P15,
stim_fb/ques.jpg,stim_fb/negf.jpg,stim_fb/posf.jpg,stim_01/a.jpg,stim_01/b.jpg,2,1,j,5,33,333,16,j,1,0.566555962738,01,01,60.0183208835,PLT_learning_01,N,2014_Feb_24_1751,P15,
stim_fb/ques.jpg,stim_fb/negf.jpg,stim_fb/posf.jpg,stim_01/c.jpg,stim_01/d.jpg,2,2,j,5,34,334,33,j,1,0.716472555847,01,01,60.0183208835,PLT_learning_01,N,2014_Feb_24_1751,P15,
stim_fb/ques.jpg,stim_fb/negf.jpg,stim_fb/posf.jpg,stim_01/d.jpg,stim_01/c.jpg,1,2,f,5,35,335,24,f,1,0.59989062338,01,01,60.0183208835,PLT_learning_01,N,2014_Feb_24_1751,P15,
stim_fb/ques.jpg,stim_fb/negf.jpg,stim_fb/posf.jpg,stim_01/b.jpg,stim_01/a.jpg,1,1,f,5,36,336,3,f,1,0.583211864574,01,01,60.0183208835,PLT_learning_01,N,2014_Feb_24_1751,P15,
stim_fb/ques.jpg,stim_fb/posf.jpg,stim_fb/negf.jpg,stim_01/e.jpg,stim_01/f.jpg,2,3,j,5,37,337,56,j,1,0.549845592137,01,01,60.0183208835,PLT_learning_01,N,2014_Feb_24_1751,P15,
stim_fb/ques.jpg,stim_fb/negf.jpg,stim_fb/posf.jpg,stim_01/c.jpg,stim_01/d.jpg,2,2,j,5,38,338,34,j,1,0.816484300118,01,01,60.0183208835,PLT_learning_01,N,2014_Feb_24_1751,P15,
stim_fb/ques.jpg,stim_fb/negf.jpg,stim_fb/posf.jpg,stim_01/f.jpg,stim_01/e.jpg,1,3,f,5,39,339,42,f,1,0.499889754214,01,01,60.0183208835,PLT_learning_01,N,2014_Feb_24_1751,P15,
stim_fb/ques.jpg,stim_fb/negf.jpg,stim_fb/posf.jpg,stim_01/f.jpg,stim_01/e.jpg,1,3,f,5,40,340,41,f,1,0.466508092421,01,01,60.0183208835,PLT_learning_01,N,2014_Feb_24_1751,P15,
stim_fb/ques.jpg,stim_fb/posf.jpg,stim_fb/negf.jpg,stim_01/a.jpg,stim_01/b.jpg,2,1,j,5,41,341,18,j,1,0.68316988293,01,01,60.0183208835,PLT_learning_01,N,2014_Feb_24_1751,P15,
stim_fb/ques.jpg,stim_fb/negf.jpg,stim_fb/posf.jpg,stim_01/a.jpg,stim_01/b.jpg,2,1,j,5,42,342,13,j,1,0.583172616749,01,01,60.0183208835,PLT_learning_01,N,2014_Feb_24_1751,P15,
stim_fb/ques.jpg,stim_fb/negf.jpg,stim_fb/posf.jpg,stim_01/b.jpg,stim_01/a.jpg,1,1,f,5,43,343,0,f,1,0.516536447092,01,01,60.0183208835,PLT_learning_01,N,2014_Feb_24_1751,P15,
stim_fb/ques.jpg,stim_fb/posf.jpg,stim_fb/negf.jpg,stim_01/e.jpg,stim_01/f.jpg,2,3,j,5,44,344,58,j,1,0.583035092968,01,01,60.0183208835,PLT_learning_01,N,2014_Feb_24_1751,P15,
stim_fb/ques.jpg,stim_fb/negf.jpg,stim_fb/posf.jpg,stim_01/b.jpg,stim_01/a.jpg,1,1,f,5,45,345,2,f,1,0.583192881255,01,01,60.0183208835,PLT_learning_01,N,2014_Feb_24_1751,P15,
stim_fb/ques.jpg,stim_fb/negf.jpg,stim_fb/posf.jpg,stim_01/a.jpg,stim_01/b.jpg,2,1,j,5,46,346,14,j,1,0.633174670867,01,01,60.0183208835,PLT_learning_01,N,2014_Feb_24_1751,P15,
stim_fb/ques.jpg,stim_fb/negf.jpg,stim_fb/posf.jpg,stim_01/d.jpg,stim_01/c.jpg,1,2,f,5,47,347,23,f,1,0.699814130723,01,01,60.0183208835,PLT_learning_01,N,2014_Feb_24_1751,P15,
stim_fb/ques.jpg,stim_fb/negf.jpg,stim_fb/posf.jpg,stim_01/d.jpg,stim_01/c.jpg,1,2,f,5,48,348,22,f,1,0.63316104691,01,01,60.0183208835,PLT_learning_01,N,2014_Feb_24_1751,P15,
stim_fb/ques.jpg,stim_fb/posf.jpg,stim_fb/negf.jpg,stim_01/c.jpg,stim_01/d.jpg,2,2,j,5,49,349,38,j,1,0.499867417537,01,01,60.0183208835,PLT_learning_01,N,2014_Feb_24_1751,P15,
stim_fb/ques.jpg,stim_fb/negf.jpg,stim_fb/posf.jpg,stim_01/a.jpg,stim_01/b.jpg,2,1,j,5,50,350,11,j,1,0.666489292562,01,01,60.0183208835,PLT_learning_01,N,2014_Feb_24_1751,P15,
stim_fb/ques.jpg,stim_fb/negf.jpg,stim_fb/posf.jpg,stim_01/d.jpg,stim_01/c.jpg,1,2,f,5,51,351,25,f,1,0.733106737542,01,01,60.0183208835,PLT_learning_01,N,2014_Feb_24_1751,P15,
stim_fb/ques.jpg,stim_fb/negf.jpg,stim_fb/posf.jpg,stim_01/c.jpg,stim_01/d.jpg,2,2,j,5,52,352,35,j,1,0.616528140392,01,01,60.0183208835,PLT_learning_01,N,2014_Feb_24_1751,P15,
stim_fb/ques.jpg,stim_fb/negf.jpg,stim_fb/posf.jpg,stim_01/a.jpg,stim_01/b.jpg,2,1,j,5,53,353,17,j,1,0.849770549092,01,01,60.0183208835,PLT_learning_01,N,2014_Feb_24_1751,P15,
stim_fb/ques.jpg,stim_fb/posf.jpg,stim_fb/negf.jpg,stim_01/b.jpg,stim_01/a.jpg,1,1,f,5,54,354,9,f,1,0.883098190239,01,01,60.0183208835,PLT_learning_01,N,2014_Feb_24_1751,P15,
stim_fb/ques.jpg,stim_fb/negf.jpg,stim_fb/posf.jpg,stim_01/e.jpg,stim_01/f.jpg,2,3,j,5,55,355,52,j,1,0.516523845687,01,01,60.0183208835,PLT_learning_01,N,2014_Feb_24_1751,P15,
stim_fb/ques.jpg,stim_fb/negf.jpg,stim_fb/posf.jpg,stim_01/f.jpg,stim_01/e.jpg,1,3,f,5,56,356,40,f,1,0.583193825609,01,01,60.0183208835,PLT_learning_01,N,2014_Feb_24_1751,P15,
stim_fb/ques.jpg,stim_fb/negf.jpg,stim_fb/posf.jpg,stim_01/e.jpg,stim_01/f.jpg,2,3,j,5,57,357,54,j,1,0.449881958782,01,01,60.0183208835,PLT_learning_01,N,2014_Feb_24_1751,P15,
stim_fb/ques.jpg,stim_fb/negf.jpg,stim_fb/posf.jpg,stim_01/e.jpg,stim_01/f.jpg,2,3,j,5,58,358,53,j,1,0.466575619732,01,01,60.0183208835,PLT_learning_01,N,2014_Feb_24_1751,P15,
stim_fb/ques.jpg,stim_fb/negf.jpg,stim_fb/posf.jpg,stim_01/a.jpg,stim_01/b.jpg,2,1,j,5,59,359,12,j,1,0.883103221779,01,01,60.0183208835,PLT_learning_01,N,2014_Feb_24_1751,P15,
