Fb3,Fb2,Fb1,Symbol2,Symbol1,PosCond,Pair,Correct,trials.thisRepN,trials.thisTrialN,trials.thisN,trials.thisIndex,Response.keys,Response.corr,Response.rt,Version,Session Number,frameRate,expName,StimCondition,date,Participant,
stim_fb/ques.jpg,stim_fb/negf.jpg,stim_fb/posf.jpg,stim_01/e.jpg,stim_01/f.jpg,2,3,j,0,0,0,55,j,1,1.63288301592,01,01,60.014710262,PLT_learning_01,N,2014_Feb_25_1714,P16,
stim_fb/ques.jpg,stim_fb/negf.jpg,stim_fb/posf.jpg,stim_01/f.jpg,stim_01/e.jpg,1,3,f,0,1,1,45,f,1,0.733199356396,01,01,60.014710262,PLT_learning_01,N,2014_Feb_25_1714,P16,
stim_fb/ques.jpg,stim_fb/posf.jpg,stim_fb/negf.jpg,stim_01/f.jpg,stim_01/e.jpg,1,3,f,0,2,2,49,f,1,0.933057799565,01,01,60.014710262,PLT_learning_01,N,2014_Feb_25_1714,P16,
stim_fb/ques.jpg,stim_fb/posf.jpg,stim_fb/negf.jpg,stim_01/a.jpg,stim_01/b.jpg,2,1,j,0,3,3,18,f,0,1.33292479605,01,01,60.014710262,PLT_learning_01,N,2014_Feb_25_1714,P16,
stim_fb/ques.jpg,stim_fb/negf.jpg,stim_fb/posf.jpg,stim_01/a.jpg,stim_01/b.jpg,2,1,j,0,4,4,13,f,0,0.666498964669,01,01,60.014710262,PLT_learning_01,N,2014_Feb_25_1714,P16,
stim_fb/ques.jpg,stim_fb/negf.jpg,stim_fb/posf.jpg,stim_01/a.jpg,stim_01/b.jpg,2,1,j,0,5,5,10,f,0,1.14967505508,01,01,60.014710262,PLT_learning_01,N,2014_Feb_25_1714,P16,
stim_fb/ques.jpg,stim_fb/negf.jpg,stim_fb/posf.jpg,stim_01/f.jpg,stim_01/e.jpg,1,3,f,0,6,6,40,f,1,0.799787956482,01,01,60.014710262,PLT_learning_01,N,2014_Feb_25_1714,P16,
stim_fb/ques.jpg,stim_fb/negf.jpg,stim_fb/posf.jpg,stim_01/d.jpg,stim_01/c.jpg,1,2,f,0,7,7,25,None,0,,01,01,60.014710262,PLT_learning_01,N,2014_Feb_25_1714,P16,
stim_fb/ques.jpg,stim_fb/negf.jpg,stim_fb/posf.jpg,stim_01/a.jpg,stim_01/b.jpg,2,1,j,0,8,8,17,f,0,0.699833826813,01,01,60.014710262,PLT_learning_01,N,2014_Feb_25_1714,P16,
stim_fb/ques.jpg,stim_fb/posf.jpg,stim_fb/negf.jpg,stim_01/b.jpg,stim_01/a.jpg,1,1,f,0,9,9,9,f,1,0.616521039692,01,01,60.014710262,PLT_learning_01,N,2014_Feb_25_1714,P16,
stim_fb/ques.jpg,stim_fb/negf.jpg,stim_fb/posf.jpg,stim_01/e.jpg,stim_01/f.jpg,2,3,j,0,10,10,52,j,1,0.966359510078,01,01,60.014710262,PLT_learning_01,N,2014_Feb_25_1714,P16,
stim_fb/ques.jpg,stim_fb/posf.jpg,stim_fb/negf.jpg,stim_01/b.jpg,stim_01/a.jpg,1,1,f,0,11,11,8,f,1,1.13306616943,01,01,60.014710262,PLT_learning_01,N,2014_Feb_25_1714,P16,
stim_fb/ques.jpg,stim_fb/negf.jpg,stim_fb/posf.jpg,stim_01/d.jpg,stim_01/c.jpg,1,2,f,0,12,12,24,f,1,1.01635471312,01,01,60.014710262,PLT_learning_01,N,2014_Feb_25_1714,P16,
stim_fb/ques.jpg,stim_fb/negf.jpg,stim_fb/posf.jpg,stim_01/a.jpg,stim_01/b.jpg,2,1,j,0,13,13,16,j,1,1.03302781784,01,01,60.014710262,PLT_learning_01,N,2014_Feb_25_1714,P16,
stim_fb/ques.jpg,stim_fb/posf.jpg,stim_fb/negf.jpg,stim_01/e.jpg,stim_01/f.jpg,2,3,j,0,14,14,56,j,1,1.06636058375,01,01,60.014710262,PLT_learning_01,N,2014_Feb_25_1714,P16,
stim_fb/ques.jpg,stim_fb/negf.jpg,stim_fb/posf.jpg,stim_01/c.jpg,stim_01/d.jpg,2,2,j,0,15,15,30,j,1,0.966418929181,01,01,60.014710262,PLT_learning_01,N,2014_Feb_25_1714,P16,
stim_fb/ques.jpg,stim_fb/posf.jpg,stim_fb/negf.jpg,stim_01/a.jpg,stim_01/b.jpg,2,1,j,0,16,16,19,j,1,1.03304908986,01,01,60.014710262,PLT_learning_01,N,2014_Feb_25_1714,P16,
stim_fb/ques.jpg,stim_fb/posf.jpg,stim_fb/negf.jpg,stim_01/c.jpg,stim_01/d.jpg,2,2,j,0,17,17,38,j,1,0.883105892436,01,01,60.014710262,PLT_learning_01,N,2014_Feb_25_1714,P16,
stim_fb/ques.jpg,stim_fb/negf.jpg,stim_fb/posf.jpg,stim_01/c.jpg,stim_01/d.jpg,2,2,j,0,18,18,34,j,1,0.999755051466,01,01,60.014710262,PLT_learning_01,N,2014_Feb_25_1714,P16,
stim_fb/ques.jpg,stim_fb/posf.jpg,stim_fb/negf.jpg,stim_01/f.jpg,stim_01/e.jpg,1,3,f,0,19,19,47,f,1,0.733181849761,01,01,60.014710262,PLT_learning_01,N,2014_Feb_25_1714,P16,
stim_fb/ques.jpg,stim_fb/negf.jpg,stim_fb/posf.jpg,stim_01/f.jpg,stim_01/e.jpg,1,3,f,0,20,20,41,j,0,1.21631246983,01,01,60.014710262,PLT_learning_01,N,2014_Feb_25_1714,P16,
stim_fb/ques.jpg,stim_fb/negf.jpg,stim_fb/posf.jpg,stim_01/b.jpg,stim_01/a.jpg,1,1,f,0,21,21,4,f,1,0.749802966895,01,01,60.014710262,PLT_learning_01,N,2014_Feb_25_1714,P16,
stim_fb/ques.jpg,stim_fb/posf.jpg,stim_fb/negf.jpg,stim_01/d.jpg,stim_01/c.jpg,1,2,f,0,22,22,29,f,1,0.699828861438,01,01,60.014710262,PLT_learning_01,N,2014_Feb_25_1714,P16,
stim_fb/ques.jpg,stim_fb/negf.jpg,stim_fb/posf.jpg,stim_01/a.jpg,stim_01/b.jpg,2,1,j,0,23,23,12,j,1,0.799809977369,01,01,60.014710262,PLT_learning_01,N,2014_Feb_25_1714,P16,
stim_fb/ques.jpg,stim_fb/negf.jpg,stim_fb/posf.jpg,stim_01/a.jpg,stim_01/b.jpg,2,1,j,0,24,24,15,j,1,0.833129627596,01,01,60.014710262,PLT_learning_01,N,2014_Feb_25_1714,P16,
stim_fb/ques.jpg,stim_fb/negf.jpg,stim_fb/posf.jpg,stim_01/e.jpg,stim_01/f.jpg,2,3,j,0,25,25,53,f,0,0.883086461004,01,01,60.014710262,PLT_learning_01,N,2014_Feb_25_1714,P16,
stim_fb/ques.jpg,stim_fb/posf.jpg,stim_fb/negf.jpg,stim_01/d.jpg,stim_01/c.jpg,1,2,f,0,26,26,27,f,1,0.783113751025,01,01,60.014710262,PLT_learning_01,N,2014_Feb_25_1714,P16,
stim_fb/ques.jpg,stim_fb/negf.jpg,stim_fb/posf.jpg,stim_01/a.jpg,stim_01/b.jpg,2,1,j,0,27,27,14,j,1,0.849786329426,01,01,60.014710262,PLT_learning_01,N,2014_Feb_25_1714,P16,
stim_fb/ques.jpg,stim_fb/negf.jpg,stim_fb/posf.jpg,stim_01/d.jpg,stim_01/c.jpg,1,2,f,0,28,28,26,f,1,1.13299767972,01,01,60.014710262,PLT_learning_01,N,2014_Feb_25_1714,P16,
stim_fb/ques.jpg,stim_fb/negf.jpg,stim_fb/posf.jpg,stim_01/f.jpg,stim_01/e.jpg,1,3,f,0,29,29,44,f,1,1.13299888873,01,01,60.014710262,PLT_learning_01,N,2014_Feb_25_1714,P16,
stim_fb/ques.jpg,stim_fb/negf.jpg,stim_fb/posf.jpg,stim_01/c.jpg,stim_01/d.jpg,2,2,j,0,30,30,31,f,0,1.11638838204,01,01,60.014710262,PLT_learning_01,N,2014_Feb_25_1714,P16,
stim_fb/ques.jpg,stim_fb/negf.jpg,stim_fb/posf.jpg,stim_01/b.jpg,stim_01/a.jpg,1,1,f,0,31,31,0,j,0,1.36625040113,01,01,60.014710262,PLT_learning_01,N,2014_Feb_25_1714,P16,
stim_fb/ques.jpg,stim_fb/negf.jpg,stim_fb/posf.jpg,stim_01/e.jpg,stim_01/f.jpg,2,3,j,0,32,32,54,f,0,1.51620524958,01,01,60.014710262,PLT_learning_01,N,2014_Feb_25_1714,P16,
stim_fb/ques.jpg,stim_fb/negf.jpg,stim_fb/posf.jpg,stim_01/d.jpg,stim_01/c.jpg,1,2,f,0,33,33,23,f,1,0.949755231916,01,01,60.014710262,PLT_learning_01,N,2014_Feb_25_1714,P16,
stim_fb/ques.jpg,stim_fb/negf.jpg,stim_fb/posf.jpg,stim_01/b.jpg,stim_01/a.jpg,1,1,f,0,34,34,2,f,1,0.966432727573,01,01,60.014710262,PLT_learning_01,N,2014_Feb_25_1714,P16,
stim_fb/ques.jpg,stim_fb/negf.jpg,stim_fb/posf.jpg,stim_01/a.jpg,stim_01/b.jpg,2,1,j,0,35,35,11,j,1,0.816490167744,01,01,60.014710262,PLT_learning_01,N,2014_Feb_25_1714,P16,
stim_fb/ques.jpg,stim_fb/negf.jpg,stim_fb/posf.jpg,stim_01/b.jpg,stim_01/a.jpg,1,1,f,0,36,36,5,f,1,0.949674510718,01,01,60.014710262,PLT_learning_01,N,2014_Feb_25_1714,P16,
stim_fb/ques.jpg,stim_fb/posf.jpg,stim_fb/negf.jpg,stim_01/e.jpg,stim_01/f.jpg,2,3,j,0,37,37,59,j,1,0.983051549988,01,01,60.014710262,PLT_learning_01,N,2014_Feb_25_1714,P16,
stim_fb/ques.jpg,stim_fb/negf.jpg,stim_fb/posf.jpg,stim_01/b.jpg,stim_01/a.jpg,1,1,f,0,38,38,3,f,1,0.933056286794,01,01,60.014710262,PLT_learning_01,N,2014_Feb_25_1714,P16,
stim_fb/ques.jpg,stim_fb/posf.jpg,stim_fb/negf.jpg,stim_01/f.jpg,stim_01/e.jpg,1,3,f,0,39,39,48,j,0,1.06637493853,01,01,60.014710262,PLT_learning_01,N,2014_Feb_25_1714,P16,
stim_fb/ques.jpg,stim_fb/negf.jpg,stim_fb/posf.jpg,stim_01/b.jpg,stim_01/a.jpg,1,1,f,0,40,40,7,f,1,0.783119375042,01,01,60.014710262,PLT_learning_01,N,2014_Feb_25_1714,P16,
stim_fb/ques.jpg,stim_fb/negf.jpg,stim_fb/posf.jpg,stim_01/b.jpg,stim_01/a.jpg,1,1,f,0,41,41,1,f,1,0.716476597921,01,01,60.014710262,PLT_learning_01,N,2014_Feb_25_1714,P16,
stim_fb/ques.jpg,stim_fb/negf.jpg,stim_fb/posf.jpg,stim_01/b.jpg,stim_01/a.jpg,1,1,f,0,42,42,6,f,1,0.666475253569,01,01,60.014710262,PLT_learning_01,N,2014_Feb_25_1714,P16,
stim_fb/ques.jpg,stim_fb/negf.jpg,stim_fb/posf.jpg,stim_01/e.jpg,stim_01/f.jpg,2,3,j,0,43,43,51,j,1,0.933050001127,01,01,60.014710262,PLT_learning_01,N,2014_Feb_25_1714,P16,
stim_fb/ques.jpg,stim_fb/negf.jpg,stim_fb/posf.jpg,stim_01/c.jpg,stim_01/d.jpg,2,2,j,0,44,44,36,j,1,1.28293152382,01,01,60.014710262,PLT_learning_01,N,2014_Feb_25_1714,P16,
stim_fb/ques.jpg,stim_fb/posf.jpg,stim_fb/negf.jpg,stim_01/c.jpg,stim_01/d.jpg,2,2,j,0,45,45,37,j,1,1.01636907392,01,01,60.014710262,PLT_learning_01,N,2014_Feb_25_1714,P16,
stim_fb/ques.jpg,stim_fb/posf.jpg,stim_fb/negf.jpg,stim_01/d.jpg,stim_01/c.jpg,1,2,f,0,46,46,28,j,0,0.866434059894,01,01,60.014710262,PLT_learning_01,N,2014_Feb_25_1714,P16,
stim_fb/ques.jpg,stim_fb/posf.jpg,stim_fb/negf.jpg,stim_01/e.jpg,stim_01/f.jpg,2,3,j,0,47,47,57,f,0,1.06639671581,01,01,60.014710262,PLT_learning_01,N,2014_Feb_25_1714,P16,
stim_fb/ques.jpg,stim_fb/negf.jpg,stim_fb/posf.jpg,stim_01/d.jpg,stim_01/c.jpg,1,2,f,0,48,48,20,j,0,0.849760669469,01,01,60.014710262,PLT_learning_01,N,2014_Feb_25_1714,P16,
stim_fb/ques.jpg,stim_fb/negf.jpg,stim_fb/posf.jpg,stim_01/f.jpg,stim_01/e.jpg,1,3,f,0,49,49,43,j,0,0.816422604341,01,01,60.014710262,PLT_learning_01,N,2014_Feb_25_1714,P16,
stim_fb/ques.jpg,stim_fb/negf.jpg,stim_fb/posf.jpg,stim_01/c.jpg,stim_01/d.jpg,2,2,j,0,50,50,33,j,1,1.26633978993,01,01,60.014710262,PLT_learning_01,N,2014_Feb_25_1714,P16,
stim_fb/ques.jpg,stim_fb/posf.jpg,stim_fb/negf.jpg,stim_01/c.jpg,stim_01/d.jpg,2,2,j,0,51,51,39,j,1,0.633155666498,01,01,60.014710262,PLT_learning_01,N,2014_Feb_25_1714,P16,
stim_fb/ques.jpg,stim_fb/negf.jpg,stim_fb/posf.jpg,stim_01/c.jpg,stim_01/d.jpg,2,2,j,0,52,52,32,j,1,0.983064767935,01,01,60.014710262,PLT_learning_01,N,2014_Feb_25_1714,P16,
stim_fb/ques.jpg,stim_fb/negf.jpg,stim_fb/posf.jpg,stim_01/c.jpg,stim_01/d.jpg,2,2,j,0,53,53,35,j,1,0.599840037293,01,01,60.014710262,PLT_learning_01,N,2014_Feb_25_1714,P16,
stim_fb/ques.jpg,stim_fb/posf.jpg,stim_fb/negf.jpg,stim_01/e.jpg,stim_01/f.jpg,2,3,j,0,54,54,58,f,0,0.899762928098,01,01,60.014710262,PLT_learning_01,N,2014_Feb_25_1714,P16,
stim_fb/ques.jpg,stim_fb/posf.jpg,stim_fb/negf.jpg,stim_01/f.jpg,stim_01/e.jpg,1,3,f,0,55,55,46,j,0,0.999589139931,01,01,60.014710262,PLT_learning_01,N,2014_Feb_25_1714,P16,
stim_fb/ques.jpg,stim_fb/negf.jpg,stim_fb/posf.jpg,stim_01/d.jpg,stim_01/c.jpg,1,2,f,0,56,56,22,f,1,1.01636977466,01,01,60.014710262,PLT_learning_01,N,2014_Feb_25_1714,P16,
stim_fb/ques.jpg,stim_fb/negf.jpg,stim_fb/posf.jpg,stim_01/e.jpg,stim_01/f.jpg,2,3,j,0,57,57,50,f,0,1.28282274569,01,01,60.014710262,PLT_learning_01,N,2014_Feb_25_1714,P16,
stim_fb/ques.jpg,stim_fb/negf.jpg,stim_fb/posf.jpg,stim_01/d.jpg,stim_01/c.jpg,1,2,f,0,58,58,21,f,1,0.883065291238,01,01,60.014710262,PLT_learning_01,N,2014_Feb_25_1714,P16,
stim_fb/ques.jpg,stim_fb/negf.jpg,stim_fb/posf.jpg,stim_01/f.jpg,stim_01/e.jpg,1,3,f,0,59,59,42,j,0,1.09970118721,01,01,60.014710262,PLT_learning_01,N,2014_Feb_25_1714,P16,
stim_fb/ques.jpg,stim_fb/negf.jpg,stim_fb/posf.jpg,stim_01/d.jpg,stim_01/c.jpg,1,2,f,1,0,60,22,f,1,0.89974263953,01,01,60.014710262,PLT_learning_01,N,2014_Feb_25_1714,P16,
stim_fb/ques.jpg,stim_fb/negf.jpg,stim_fb/posf.jpg,stim_01/e.jpg,stim_01/f.jpg,2,3,j,1,1,61,53,f,0,0.849802455621,01,01,60.014710262,PLT_learning_01,N,2014_Feb_25_1714,P16,
stim_fb/ques.jpg,stim_fb/negf.jpg,stim_fb/posf.jpg,stim_01/b.jpg,stim_01/a.jpg,1,1,f,1,2,62,0,f,1,0.833107324005,01,01,60.014710262,PLT_learning_01,N,2014_Feb_25_1714,P16,
stim_fb/ques.jpg,stim_fb/negf.jpg,stim_fb/posf.jpg,stim_01/b.jpg,stim_01/a.jpg,1,1,f,1,3,63,3,f,1,0.983092758701,01,01,60.014710262,PLT_learning_01,N,2014_Feb_25_1714,P16,
stim_fb/ques.jpg,stim_fb/negf.jpg,stim_fb/posf.jpg,stim_01/a.jpg,stim_01/b.jpg,2,1,j,1,4,64,14,j,1,0.916420441951,01,01,60.014710262,PLT_learning_01,N,2014_Feb_25_1714,P16,
stim_fb/ques.jpg,stim_fb/posf.jpg,stim_fb/negf.jpg,stim_01/f.jpg,stim_01/e.jpg,1,3,f,1,5,65,49,j,0,1.11635351614,01,01,60.014710262,PLT_learning_01,N,2014_Feb_25_1714,P16,
stim_fb/ques.jpg,stim_fb/negf.jpg,stim_fb/posf.jpg,stim_01/a.jpg,stim_01/b.jpg,2,1,j,1,6,66,17,j,1,0.916426787769,01,01,60.014710262,PLT_learning_01,N,2014_Feb_25_1714,P16,
stim_fb/ques.jpg,stim_fb/negf.jpg,stim_fb/posf.jpg,stim_01/f.jpg,stim_01/e.jpg,1,3,f,1,7,67,44,j,0,1.2163092067,01,01,60.014710262,PLT_learning_01,N,2014_Feb_25_1714,P16,
stim_fb/ques.jpg,stim_fb/negf.jpg,stim_fb/posf.jpg,stim_01/f.jpg,stim_01/e.jpg,1,3,f,1,8,68,41,j,0,0.74983484034,01,01,60.014710262,PLT_learning_01,N,2014_Feb_25_1714,P16,
stim_fb/ques.jpg,stim_fb/posf.jpg,stim_fb/negf.jpg,stim_01/b.jpg,stim_01/a.jpg,1,1,f,1,9,69,8,f,1,0.833116514914,01,01,60.014710262,PLT_learning_01,N,2014_Feb_25_1714,P16,
stim_fb/ques.jpg,stim_fb/posf.jpg,stim_fb/negf.jpg,stim_01/c.jpg,stim_01/d.jpg,2,2,j,1,10,70,38,j,1,0.833105507477,01,01,60.014710262,PLT_learning_01,N,2014_Feb_25_1714,P16,
stim_fb/ques.jpg,stim_fb/posf.jpg,stim_fb/negf.jpg,stim_01/e.jpg,stim_01/f.jpg,2,3,j,1,11,71,57,f,0,0.666495770709,01,01,60.014710262,PLT_learning_01,N,2014_Feb_25_1714,P16,
stim_fb/ques.jpg,stim_fb/negf.jpg,stim_fb/posf.jpg,stim_01/e.jpg,stim_01/f.jpg,2,3,j,1,12,72,51,f,0,0.683152998849,01,01,60.014710262,PLT_learning_01,N,2014_Feb_25_1714,P16,
stim_fb/ques.jpg,stim_fb/negf.jpg,stim_fb/posf.jpg,stim_01/a.jpg,stim_01/b.jpg,2,1,j,1,13,73,15,j,1,1.28297702724,01,01,60.014710262,PLT_learning_01,N,2014_Feb_25_1714,P16,
stim_fb/ques.jpg,stim_fb/negf.jpg,stim_fb/posf.jpg,stim_01/c.jpg,stim_01/d.jpg,2,2,j,1,14,74,32,j,1,0.966398860159,01,01,60.014710262,PLT_learning_01,N,2014_Feb_25_1714,P16,
stim_fb/ques.jpg,stim_fb/posf.jpg,stim_fb/negf.jpg,stim_01/e.jpg,stim_01/f.jpg,2,3,j,1,15,75,59,f,0,1.48289563537,01,01,60.014710262,PLT_learning_01,N,2014_Feb_25_1714,P16,
stim_fb/ques.jpg,stim_fb/negf.jpg,stim_fb/posf.jpg,stim_01/c.jpg,stim_01/d.jpg,2,2,j,1,16,76,33,j,1,0.699813261554,01,01,60.014710262,PLT_learning_01,N,2014_Feb_25_1714,P16,
stim_fb/ques.jpg,stim_fb/negf.jpg,stim_fb/posf.jpg,stim_01/a.jpg,stim_01/b.jpg,2,1,j,1,17,77,16,j,1,0.766423178773,01,01,60.014710262,PLT_learning_01,N,2014_Feb_25_1714,P16,
stim_fb/ques.jpg,stim_fb/negf.jpg,stim_fb/posf.jpg,stim_01/b.jpg,stim_01/a.jpg,1,1,f,1,18,78,4,f,1,0.599834380192,01,01,60.014710262,PLT_learning_01,N,2014_Feb_25_1714,P16,
stim_fb/ques.jpg,stim_fb/negf.jpg,stim_fb/posf.jpg,stim_01/e.jpg,stim_01/f.jpg,2,3,j,1,19,79,55,f,0,0.74975573116,01,01,60.014710262,PLT_learning_01,N,2014_Feb_25_1714,P16,
stim_fb/ques.jpg,stim_fb/posf.jpg,stim_fb/negf.jpg,stim_01/a.jpg,stim_01/b.jpg,2,1,j,1,20,80,19,j,1,0.683188012121,01,01,60.014710262,PLT_learning_01,N,2014_Feb_25_1714,P16,
stim_fb/ques.jpg,stim_fb/negf.jpg,stim_fb/posf.jpg,stim_01/e.jpg,stim_01/f.jpg,2,3,j,1,21,81,52,f,0,0.883081179841,01,01,60.014710262,PLT_learning_01,N,2014_Feb_25_1714,P16,
stim_fb/ques.jpg,stim_fb/negf.jpg,stim_fb/posf.jpg,stim_01/b.jpg,stim_01/a.jpg,1,1,f,1,22,82,6,f,1,0.79976105142,01,01,60.014710262,PLT_learning_01,N,2014_Feb_25_1714,P16,
stim_fb/ques.jpg,stim_fb/negf.jpg,stim_fb/posf.jpg,stim_01/a.jpg,stim_01/b.jpg,2,1,j,1,23,83,12,j,1,0.683120704355,01,01,60.014710262,PLT_learning_01,N,2014_Feb_25_1714,P16,
stim_fb/ques.jpg,stim_fb/negf.jpg,stim_fb/posf.jpg,stim_01/d.jpg,stim_01/c.jpg,1,2,f,1,24,84,23,f,1,1.13303039526,01,01,60.014710262,PLT_learning_01,N,2014_Feb_25_1714,P16,
stim_fb/ques.jpg,stim_fb/negf.jpg,stim_fb/posf.jpg,stim_01/b.jpg,stim_01/a.jpg,1,1,f,1,25,85,5,f,1,0.764566741604,01,01,60.014710262,PLT_learning_01,N,2014_Feb_25_1714,P16,
stim_fb/ques.jpg,stim_fb/negf.jpg,stim_fb/posf.jpg,stim_01/f.jpg,stim_01/e.jpg,1,3,f,1,26,86,40,j,0,0.866444369591,01,01,60.014710262,PLT_learning_01,N,2014_Feb_25_1714,P16,
stim_fb/ques.jpg,stim_fb/posf.jpg,stim_fb/negf.jpg,stim_01/d.jpg,stim_01/c.jpg,1,2,f,1,27,87,27,f,1,0.866418438959,01,01,60.014710262,PLT_learning_01,N,2014_Feb_25_1714,P16,
stim_fb/ques.jpg,stim_fb/posf.jpg,stim_fb/negf.jpg,stim_01/e.jpg,stim_01/f.jpg,2,3,j,1,28,88,58,j,1,1.14966784911,01,01,60.014710262,PLT_learning_01,N,2014_Feb_25_1714,P16,
stim_fb/ques.jpg,stim_fb/posf.jpg,stim_fb/negf.jpg,stim_01/a.jpg,stim_01/b.jpg,2,1,j,1,29,89,18,j,1,0.699816136721,01,01,60.014710262,PLT_learning_01,N,2014_Feb_25_1714,P16,
stim_fb/ques.jpg,stim_fb/negf.jpg,stim_fb/posf.jpg,stim_01/d.jpg,stim_01/c.jpg,1,2,f,1,30,90,21,f,1,0.733149260533,01,01,60.014710262,PLT_learning_01,N,2014_Feb_25_1714,P16,
stim_fb/ques.jpg,stim_fb/negf.jpg,stim_fb/posf.jpg,stim_01/c.jpg,stim_01/d.jpg,2,2,j,1,31,91,30,j,1,0.83312329381,01,01,60.014710262,PLT_learning_01,N,2014_Feb_25_1714,P16,
stim_fb/ques.jpg,stim_fb/negf.jpg,stim_fb/posf.jpg,stim_01/c.jpg,stim_01/d.jpg,2,2,j,1,32,92,35,j,1,0.766482429456,01,01,60.014710262,PLT_learning_01,N,2014_Feb_25_1714,P16,
stim_fb/ques.jpg,stim_fb/negf.jpg,stim_fb/posf.jpg,stim_01/f.jpg,stim_01/e.jpg,1,3,f,1,33,93,45,j,0,1.01638903768,01,01,60.014710262,PLT_learning_01,N,2014_Feb_25_1714,P16,
stim_fb/ques.jpg,stim_fb/negf.jpg,stim_fb/posf.jpg,stim_01/c.jpg,stim_01/d.jpg,2,2,j,1,34,94,34,j,1,0.866587463252,01,01,60.014710262,PLT_learning_01,N,2014_Feb_25_1714,P16,
stim_fb/ques.jpg,stim_fb/negf.jpg,stim_fb/posf.jpg,stim_01/b.jpg,stim_01/a.jpg,1,1,f,1,35,95,2,f,1,1.08303756513,01,01,60.014710262,PLT_learning_01,N,2014_Feb_25_1714,P16,
stim_fb/ques.jpg,stim_fb/posf.jpg,stim_fb/negf.jpg,stim_01/f.jpg,stim_01/e.jpg,1,3,f,1,36,96,48,f,1,1.16634040646,01,01,60.014710262,PLT_learning_01,N,2014_Feb_25_1714,P16,
stim_fb/ques.jpg,stim_fb/negf.jpg,stim_fb/posf.jpg,stim_01/e.jpg,stim_01/f.jpg,2,3,j,1,37,97,54,f,0,1.29962255321,01,01,60.014710262,PLT_learning_01,N,2014_Feb_25_1714,P16,
stim_fb/ques.jpg,stim_fb/posf.jpg,stim_fb/negf.jpg,stim_01/c.jpg,stim_01/d.jpg,2,2,j,1,38,98,37,j,1,0.816423960722,01,01,60.014710262,PLT_learning_01,N,2014_Feb_25_1714,P16,
stim_fb/ques.jpg,stim_fb/negf.jpg,stim_fb/posf.jpg,stim_01/f.jpg,stim_01/e.jpg,1,3,f,1,39,99,43,j,0,1.04971636003,01,01,60.014710262,PLT_learning_01,N,2014_Feb_25_1714,P16,
stim_fb/ques.jpg,stim_fb/negf.jpg,stim_fb/posf.jpg,stim_01/e.jpg,stim_01/f.jpg,2,3,j,1,40,100,50,j,1,1.21631313148,01,01,60.014710262,PLT_learning_01,N,2014_Feb_25_1714,P16,
stim_fb/ques.jpg,stim_fb/posf.jpg,stim_fb/negf.jpg,stim_01/c.jpg,stim_01/d.jpg,2,2,j,1,41,101,39,j,1,0.783110845783,01,01,60.014710262,PLT_learning_01,N,2014_Feb_25_1714,P16,
stim_fb/ques.jpg,stim_fb/negf.jpg,stim_fb/posf.jpg,stim_01/d.jpg,stim_01/c.jpg,1,2,f,1,42,102,20,f,1,0.716546702657,01,01,60.014710262,PLT_learning_01,N,2014_Feb_25_1714,P16,
stim_fb/ques.jpg,stim_fb/negf.jpg,stim_fb/posf.jpg,stim_01/a.jpg,stim_01/b.jpg,2,1,j,1,43,103,13,j,1,0.916384448237,01,01,60.014710262,PLT_learning_01,N,2014_Feb_25_1714,P16,
stim_fb/ques.jpg,stim_fb/posf.jpg,stim_fb/negf.jpg,stim_01/d.jpg,stim_01/c.jpg,1,2,f,1,44,104,29,f,1,1.08302848851,01,01,60.014710262,PLT_learning_01,N,2014_Feb_25_1714,P16,
stim_fb/ques.jpg,stim_fb/posf.jpg,stim_fb/negf.jpg,stim_01/b.jpg,stim_01/a.jpg,1,1,f,1,45,105,9,f,1,0.766498489485,01,01,60.014710262,PLT_learning_01,N,2014_Feb_25_1714,P16,
stim_fb/ques.jpg,stim_fb/negf.jpg,stim_fb/posf.jpg,stim_01/b.jpg,stim_01/a.jpg,1,1,f,1,46,106,1,j,0,0.766476224991,01,01,60.014710262,PLT_learning_01,N,2014_Feb_25_1714,P16,
stim_fb/ques.jpg,stim_fb/posf.jpg,stim_fb/negf.jpg,stim_01/d.jpg,stim_01/c.jpg,1,2,f,1,47,107,28,f,1,0.949701289464,01,01,60.014710262,PLT_learning_01,N,2014_Feb_25_1714,P16,
stim_fb/ques.jpg,stim_fb/negf.jpg,stim_fb/posf.jpg,stim_01/a.jpg,stim_01/b.jpg,2,1,j,1,48,108,11,j,1,0.71648922339,01,01,60.014710262,PLT_learning_01,N,2014_Feb_25_1714,P16,
stim_fb/ques.jpg,stim_fb/posf.jpg,stim_fb/negf.jpg,stim_01/f.jpg,stim_01/e.jpg,1,3,f,1,49,109,47,j,0,1.2496138014,01,01,60.014710262,PLT_learning_01,N,2014_Feb_25_1714,P16,
stim_fb/ques.jpg,stim_fb/negf.jpg,stim_fb/posf.jpg,stim_01/d.jpg,stim_01/c.jpg,1,2,f,1,50,110,26,f,1,0.983032055398,01,01,60.014710262,PLT_learning_01,N,2014_Feb_25_1714,P16,
stim_fb/ques.jpg,stim_fb/negf.jpg,stim_fb/posf.jpg,stim_01/b.jpg,stim_01/a.jpg,1,1,f,1,51,111,7,j,0,1.06641272472,01,01,60.014710262,PLT_learning_01,N,2014_Feb_25_1714,P16,
stim_fb/ques.jpg,stim_fb/negf.jpg,stim_fb/posf.jpg,stim_01/a.jpg,stim_01/b.jpg,2,1,j,1,52,112,10,j,1,0.783112253292,01,01,60.014710262,PLT_learning_01,N,2014_Feb_25_1714,P16,
stim_fb/ques.jpg,stim_fb/posf.jpg,stim_fb/negf.jpg,stim_01/f.jpg,stim_01/e.jpg,1,3,f,1,53,113,46,j,0,1.44956684536,01,01,60.014710262,PLT_learning_01,N,2014_Feb_25_1714,P16,
stim_fb/ques.jpg,stim_fb/negf.jpg,stim_fb/posf.jpg,stim_01/d.jpg,stim_01/c.jpg,1,2,f,1,54,114,25,f,1,0.78318239111,01,01,60.014710262,PLT_learning_01,N,2014_Feb_25_1714,P16,
stim_fb/ques.jpg,stim_fb/negf.jpg,stim_fb/posf.jpg,stim_01/c.jpg,stim_01/d.jpg,2,2,j,1,55,115,36,j,1,0.783122159984,01,01,60.014710262,PLT_learning_01,N,2014_Feb_25_1714,P16,
stim_fb/ques.jpg,stim_fb/negf.jpg,stim_fb/posf.jpg,stim_01/d.jpg,stim_01/c.jpg,1,2,f,1,56,116,24,f,1,0.666482994865,01,01,60.014710262,PLT_learning_01,N,2014_Feb_25_1714,P16,
stim_fb/ques.jpg,stim_fb/posf.jpg,stim_fb/negf.jpg,stim_01/e.jpg,stim_01/f.jpg,2,3,j,1,57,117,56,f,0,1.03304706581,01,01,60.014710262,PLT_learning_01,N,2014_Feb_25_1714,P16,
stim_fb/ques.jpg,stim_fb/negf.jpg,stim_fb/posf.jpg,stim_01/c.jpg,stim_01/d.jpg,2,2,j,1,58,118,31,j,1,0.999722540432,01,01,60.014710262,PLT_learning_01,N,2014_Feb_25_1714,P16,
stim_fb/ques.jpg,stim_fb/negf.jpg,stim_fb/posf.jpg,stim_01/f.jpg,stim_01/e.jpg,1,3,f,1,59,119,42,j,0,1.01638222871,01,01,60.014710262,PLT_learning_01,N,2014_Feb_25_1714,P16,
stim_fb/ques.jpg,stim_fb/negf.jpg,stim_fb/posf.jpg,stim_01/b.jpg,stim_01/a.jpg,1,1,f,2,0,120,5,f,1,0.933093573733,01,01,60.014710262,PLT_learning_01,N,2014_Feb_25_1714,P16,
stim_fb/ques.jpg,stim_fb/negf.jpg,stim_fb/posf.jpg,stim_01/e.jpg,stim_01/f.jpg,2,3,j,2,1,121,54,f,0,0.749762759679,01,01,60.014710262,PLT_learning_01,N,2014_Feb_25_1714,P16,
stim_fb/ques.jpg,stim_fb/negf.jpg,stim_fb/posf.jpg,stim_01/d.jpg,stim_01/c.jpg,1,2,f,2,2,122,23,f,1,0.76642510357,01,01,60.014710262,PLT_learning_01,N,2014_Feb_25_1714,P16,
stim_fb/ques.jpg,stim_fb/negf.jpg,stim_fb/posf.jpg,stim_01/a.jpg,stim_01/b.jpg,2,1,j,2,3,123,17,j,1,0.749759749175,01,01,60.014710262,PLT_learning_01,N,2014_Feb_25_1714,P16,
stim_fb/ques.jpg,stim_fb/posf.jpg,stim_fb/negf.jpg,stim_01/a.jpg,stim_01/b.jpg,2,1,j,2,4,124,18,j,1,0.783120884805,01,01,60.014710262,PLT_learning_01,N,2014_Feb_25_1714,P16,
stim_fb/ques.jpg,stim_fb/negf.jpg,stim_fb/posf.jpg,stim_01/d.jpg,stim_01/c.jpg,1,2,f,2,5,125,22,f,1,0.849777066338,01,01,60.014710262,PLT_learning_01,N,2014_Feb_25_1714,P16,
stim_fb/ques.jpg,stim_fb/negf.jpg,stim_fb/posf.jpg,stim_01/a.jpg,stim_01/b.jpg,2,1,j,2,6,126,13,j,1,1.08302610657,01,01,60.014710262,PLT_learning_01,N,2014_Feb_25_1714,P16,
stim_fb/ques.jpg,stim_fb/negf.jpg,stim_fb/posf.jpg,stim_01/f.jpg,stim_01/e.jpg,1,3,f,2,7,127,43,j,0,1.03311446079,01,01,60.014710262,PLT_learning_01,N,2014_Feb_25_1714,P16,
stim_fb/ques.jpg,stim_fb/negf.jpg,stim_fb/posf.jpg,stim_01/e.jpg,stim_01/f.jpg,2,3,j,2,8,128,55,f,0,1.24963187044,01,01,60.014710262,PLT_learning_01,N,2014_Feb_25_1714,P16,
stim_fb/ques.jpg,stim_fb/negf.jpg,stim_fb/posf.jpg,stim_01/e.jpg,stim_01/f.jpg,2,3,j,2,9,129,53,f,0,1.19965721761,01,01,60.014710262,PLT_learning_01,N,2014_Feb_25_1714,P16,
stim_fb/ques.jpg,stim_fb/negf.jpg,stim_fb/posf.jpg,stim_01/c.jpg,stim_01/d.jpg,2,2,j,2,10,130,33,j,1,0.966571234803,01,01,60.014710262,PLT_learning_01,N,2014_Feb_25_1714,P16,
stim_fb/ques.jpg,stim_fb/negf.jpg,stim_fb/posf.jpg,stim_01/a.jpg,stim_01/b.jpg,2,1,j,2,11,131,10,j,1,0.849776918971,01,01,60.014710262,PLT_learning_01,N,2014_Feb_25_1714,P16,
stim_fb/ques.jpg,stim_fb/negf.jpg,stim_fb/posf.jpg,stim_01/c.jpg,stim_01/d.jpg,2,2,j,2,12,132,31,j,1,1.0830213036,01,01,60.014710262,PLT_learning_01,N,2014_Feb_25_1714,P16,
stim_fb/ques.jpg,stim_fb/negf.jpg,stim_fb/posf.jpg,stim_01/a.jpg,stim_01/b.jpg,2,1,j,2,13,133,14,j,1,1.24964307637,01,01,60.014710262,PLT_learning_01,N,2014_Feb_25_1714,P16,
stim_fb/ques.jpg,stim_fb/negf.jpg,stim_fb/posf.jpg,stim_01/c.jpg,stim_01/d.jpg,2,2,j,2,14,134,30,j,1,0.833084030947,01,01,60.014710262,PLT_learning_01,N,2014_Feb_25_1714,P16,
stim_fb/ques.jpg,stim_fb/posf.jpg,stim_fb/negf.jpg,stim_01/c.jpg,stim_01/d.jpg,2,2,j,2,15,135,39,j,1,1.03305682514,01,01,60.014710262,PLT_learning_01,N,2014_Feb_25_1714,P16,
stim_fb/ques.jpg,stim_fb/posf.jpg,stim_fb/negf.jpg,stim_01/f.jpg,stim_01/e.jpg,1,3,f,2,16,136,46,f,1,1.54954462899,01,01,60.014710262,PLT_learning_01,N,2014_Feb_25_1714,P16,
stim_fb/ques.jpg,stim_fb/negf.jpg,stim_fb/posf.jpg,stim_01/b.jpg,stim_01/a.jpg,1,1,f,2,17,137,7,None,0,,01,01,60.014710262,PLT_learning_01,N,2014_Feb_25_1714,P16,
stim_fb/ques.jpg,stim_fb/negf.jpg,stim_fb/posf.jpg,stim_01/e.jpg,stim_01/f.jpg,2,3,j,2,18,138,52,f,0,0.816443437267,01,01,60.014710262,PLT_learning_01,N,2014_Feb_25_1714,P16,
stim_fb/ques.jpg,stim_fb/negf.jpg,stim_fb/posf.jpg,stim_01/f.jpg,stim_01/e.jpg,1,3,f,2,19,139,44,j,0,0.666340683153,01,01,60.014710262,PLT_learning_01,N,2014_Feb_25_1714,P16,
stim_fb/ques.jpg,stim_fb/negf.jpg,stim_fb/posf.jpg,stim_01/d.jpg,stim_01/c.jpg,1,2,f,2,20,140,26,f,1,0.849769379178,01,01,60.014710262,PLT_learning_01,N,2014_Feb_25_1714,P16,
stim_fb/ques.jpg,stim_fb/negf.jpg,stim_fb/posf.jpg,stim_01/a.jpg,stim_01/b.jpg,2,1,j,2,21,141,12,j,1,0.749811123225,01,01,60.014710262,PLT_learning_01,N,2014_Feb_25_1714,P16,
stim_fb/ques.jpg,stim_fb/negf.jpg,stim_fb/posf.jpg,stim_01/b.jpg,stim_01/a.jpg,1,1,f,2,22,142,1,f,1,0.883039270381,01,01,60.014710262,PLT_learning_01,N,2014_Feb_25_1714,P16,
stim_fb/ques.jpg,stim_fb/negf.jpg,stim_fb/posf.jpg,stim_01/d.jpg,stim_01/c.jpg,1,2,f,2,23,143,20,f,1,1.08298353245,01,01,60.014710262,PLT_learning_01,N,2014_Feb_25_1714,P16,
stim_fb/ques.jpg,stim_fb/posf.jpg,stim_fb/negf.jpg,stim_01/a.jpg,stim_01/b.jpg,2,1,j,2,24,144,19,j,1,0.849802230058,01,01,60.014710262,PLT_learning_01,N,2014_Feb_25_1714,P16,
stim_fb/ques.jpg,stim_fb/posf.jpg,stim_fb/negf.jpg,stim_01/e.jpg,stim_01/f.jpg,2,3,j,2,25,145,57,j,1,1.09969173164,01,01,60.014710262,PLT_learning_01,N,2014_Feb_25_1714,P16,
stim_fb/ques.jpg,stim_fb/posf.jpg,stim_fb/negf.jpg,stim_01/f.jpg,stim_01/e.jpg,1,3,f,2,26,146,48,j,0,0.966389660228,01,01,60.014710262,PLT_learning_01,N,2014_Feb_25_1714,P16,
stim_fb/ques.jpg,stim_fb/posf.jpg,stim_fb/negf.jpg,stim_01/d.jpg,stim_01/c.jpg,1,2,f,2,27,147,27,f,1,0.883081185855,01,01,60.014710262,PLT_learning_01,N,2014_Feb_25_1714,P16,
stim_fb/ques.jpg,stim_fb/posf.jpg,stim_fb/negf.jpg,stim_01/e.jpg,stim_01/f.jpg,2,3,j,2,28,148,59,j,1,1.64949718574,01,01,60.014710262,PLT_learning_01,N,2014_Feb_25_1714,P16,
stim_fb/ques.jpg,stim_fb/negf.jpg,stim_fb/posf.jpg,stim_01/a.jpg,stim_01/b.jpg,2,1,j,2,29,149,16,j,1,1.03304739964,01,01,60.014710262,PLT_learning_01,N,2014_Feb_25_1714,P16,
stim_fb/ques.jpg,stim_fb/negf.jpg,stim_fb/posf.jpg,stim_01/f.jpg,stim_01/e.jpg,1,3,f,2,30,150,42,f,1,0.96639980752,01,01,60.014710262,PLT_learning_01,N,2014_Feb_25_1714,P16,
stim_fb/ques.jpg,stim_fb/negf.jpg,stim_fb/posf.jpg,stim_01/e.jpg,stim_01/f.jpg,2,3,j,2,31,151,51,j,1,0.73314436132,01,01,60.014710262,PLT_learning_01,N,2014_Feb_25_1714,P16,
stim_fb/ques.jpg,stim_fb/negf.jpg,stim_fb/posf.jpg,stim_01/c.jpg,stim_01/d.jpg,2,2,j,2,32,152,34,j,1,0.883086334689,01,01,60.014710262,PLT_learning_01,N,2014_Feb_25_1714,P16,
stim_fb/ques.jpg,stim_fb/negf.jpg,stim_fb/posf.jpg,stim_01/b.jpg,stim_01/a.jpg,1,1,f,2,33,153,6,f,1,1.066371916,01,01,60.014710262,PLT_learning_01,N,2014_Feb_25_1714,P16,
stim_fb/ques.jpg,stim_fb/negf.jpg,stim_fb/posf.jpg,stim_01/b.jpg,stim_01/a.jpg,1,1,f,2,34,154,0,f,1,0.683165287479,01,01,60.014710262,PLT_learning_01,N,2014_Feb_25_1714,P16,
stim_fb/ques.jpg,stim_fb/negf.jpg,stim_fb/posf.jpg,stim_01/a.jpg,stim_01/b.jpg,2,1,j,2,35,155,15,j,1,0.749771472395,01,01,60.014710262,PLT_learning_01,N,2014_Feb_25_1714,P16,
stim_fb/ques.jpg,stim_fb/posf.jpg,stim_fb/negf.jpg,stim_01/b.jpg,stim_01/a.jpg,1,1,f,2,36,156,8,f,1,0.583161522094,01,01,60.014710262,PLT_learning_01,N,2014_Feb_25_1714,P16,
stim_fb/ques.jpg,stim_fb/posf.jpg,stim_fb/negf.jpg,stim_01/e.jpg,stim_01/f.jpg,2,3,j,2,37,157,56,f,0,0.93312113142,01,01,60.014710262,PLT_learning_01,N,2014_Feb_25_1714,P16,
stim_fb/ques.jpg,stim_fb/posf.jpg,stim_fb/negf.jpg,stim_01/c.jpg,stim_01/d.jpg,2,2,j,2,38,158,37,j,1,0.949759292036,01,01,60.014710262,PLT_learning_01,N,2014_Feb_25_1714,P16,
stim_fb/ques.jpg,stim_fb/posf.jpg,stim_fb/negf.jpg,stim_01/f.jpg,stim_01/e.jpg,1,3,f,2,39,159,47,j,0,1.23299558349,01,01,60.014710262,PLT_learning_01,N,2014_Feb_25_1714,P16,
stim_fb/ques.jpg,stim_fb/negf.jpg,stim_fb/posf.jpg,stim_01/b.jpg,stim_01/a.jpg,1,1,f,2,40,160,3,f,1,1.39957671296,01,01,60.014710262,PLT_learning_01,N,2014_Feb_25_1714,P16,
stim_fb/ques.jpg,stim_fb/negf.jpg,stim_fb/posf.jpg,stim_01/a.jpg,stim_01/b.jpg,2,1,j,2,41,161,11,j,1,0.866406679649,01,01,60.014710262,PLT_learning_01,N,2014_Feb_25_1714,P16,
stim_fb/ques.jpg,stim_fb/negf.jpg,stim_fb/posf.jpg,stim_01/c.jpg,stim_01/d.jpg,2,2,j,2,42,162,32,j,1,0.899796723333,01,01,60.014710262,PLT_learning_01,N,2014_Feb_25_1714,P16,
stim_fb/ques.jpg,stim_fb/negf.jpg,stim_fb/posf.jpg,stim_01/c.jpg,stim_01/d.jpg,2,2,j,2,43,163,35,j,1,0.883087754228,01,01,60.014710262,PLT_learning_01,N,2014_Feb_25_1714,P16,
stim_fb/ques.jpg,stim_fb/negf.jpg,stim_fb/posf.jpg,stim_01/b.jpg,stim_01/a.jpg,1,1,f,2,44,164,2,f,1,0.933079279103,01,01,60.014710262,PLT_learning_01,N,2014_Feb_25_1714,P16,
stim_fb/ques.jpg,stim_fb/posf.jpg,stim_fb/negf.jpg,stim_01/e.jpg,stim_01/f.jpg,2,3,j,2,45,165,58,f,0,0.883148755272,01,01,60.014710262,PLT_learning_01,N,2014_Feb_25_1714,P16,
stim_fb/ques.jpg,stim_fb/negf.jpg,stim_fb/posf.jpg,stim_01/f.jpg,stim_01/e.jpg,1,3,f,2,46,166,40,j,0,0.933082482086,01,01,60.014710262,PLT_learning_01,N,2014_Feb_25_1714,P16,
stim_fb/ques.jpg,stim_fb/negf.jpg,stim_fb/posf.jpg,stim_01/d.jpg,stim_01/c.jpg,1,2,f,2,47,167,25,f,1,0.983068151367,01,01,60.014710262,PLT_learning_01,N,2014_Feb_25_1714,P16,
stim_fb/ques.jpg,stim_fb/negf.jpg,stim_fb/posf.jpg,stim_01/d.jpg,stim_01/c.jpg,1,2,f,2,48,168,24,f,1,1.03304229893,01,01,60.014710262,PLT_learning_01,N,2014_Feb_25_1714,P16,
stim_fb/ques.jpg,stim_fb/negf.jpg,stim_fb/posf.jpg,stim_01/f.jpg,stim_01/e.jpg,1,3,f,2,49,169,41,j,0,0.833111886377,01,01,60.014710262,PLT_learning_01,N,2014_Feb_25_1714,P16,
stim_fb/ques.jpg,stim_fb/posf.jpg,stim_fb/negf.jpg,stim_01/f.jpg,stim_01/e.jpg,1,3,f,2,50,170,49,j,0,0.933120608116,01,01,60.014710262,PLT_learning_01,N,2014_Feb_25_1714,P16,
stim_fb/ques.jpg,stim_fb/negf.jpg,stim_fb/posf.jpg,stim_01/d.jpg,stim_01/c.jpg,1,2,f,2,51,171,21,f,1,1.06639892332,01,01,60.014710262,PLT_learning_01,N,2014_Feb_25_1714,P16,
stim_fb/ques.jpg,stim_fb/posf.jpg,stim_fb/negf.jpg,stim_01/b.jpg,stim_01/a.jpg,1,1,f,2,52,172,9,f,1,1.08303458169,01,01,60.014710262,PLT_learning_01,N,2014_Feb_25_1714,P16,
stim_fb/ques.jpg,stim_fb/negf.jpg,stim_fb/posf.jpg,stim_01/b.jpg,stim_01/a.jpg,1,1,f,2,53,173,4,f,1,0.616521758483,01,01,60.014710262,PLT_learning_01,N,2014_Feb_25_1714,P16,
stim_fb/ques.jpg,stim_fb/posf.jpg,stim_fb/negf.jpg,stim_01/c.jpg,stim_01/d.jpg,2,2,j,2,54,174,38,j,1,1.28293052233,01,01,60.014710262,PLT_learning_01,N,2014_Feb_25_1714,P16,
stim_fb/ques.jpg,stim_fb/posf.jpg,stim_fb/negf.jpg,stim_01/d.jpg,stim_01/c.jpg,1,2,f,2,55,175,29,f,1,1.01639095947,01,01,60.014710262,PLT_learning_01,N,2014_Feb_25_1714,P16,
stim_fb/ques.jpg,stim_fb/negf.jpg,stim_fb/posf.jpg,stim_01/f.jpg,stim_01/e.jpg,1,3,f,2,56,176,45,f,1,0.999723096818,01,01,60.014710262,PLT_learning_01,N,2014_Feb_25_1714,P16,
stim_fb/ques.jpg,stim_fb/posf.jpg,stim_fb/negf.jpg,stim_01/d.jpg,stim_01/c.jpg,1,2,f,2,57,177,28,f,1,0.983073056594,01,01,60.014710262,PLT_learning_01,N,2014_Feb_25_1714,P16,
stim_fb/ques.jpg,stim_fb/negf.jpg,stim_fb/posf.jpg,stim_01/c.jpg,stim_01/d.jpg,2,2,j,2,58,178,36,f,0,1.4662101097,01,01,60.014710262,PLT_learning_01,N,2014_Feb_25_1714,P16,
stim_fb/ques.jpg,stim_fb/negf.jpg,stim_fb/posf.jpg,stim_01/e.jpg,stim_01/f.jpg,2,3,j,2,59,179,50,j,1,0.916428877978,01,01,60.014710262,PLT_learning_01,N,2014_Feb_25_1714,P16,
stim_fb/ques.jpg,stim_fb/negf.jpg,stim_fb/posf.jpg,stim_01/d.jpg,stim_01/c.jpg,1,2,f,3,0,180,26,f,1,1.11635062594,01,01,60.014710262,PLT_learning_01,N,2014_Feb_25_1714,P16,
stim_fb/ques.jpg,stim_fb/posf.jpg,stim_fb/negf.jpg,stim_01/e.jpg,stim_01/f.jpg,2,3,j,3,1,181,57,j,1,1.43291741265,01,01,60.014710262,PLT_learning_01,N,2014_Feb_25_1714,P16,
stim_fb/ques.jpg,stim_fb/negf.jpg,stim_fb/posf.jpg,stim_01/b.jpg,stim_01/a.jpg,1,1,f,3,2,182,7,f,1,0.833082163293,01,01,60.014710262,PLT_learning_01,N,2014_Feb_25_1714,P16,
stim_fb/ques.jpg,stim_fb/posf.jpg,stim_fb/negf.jpg,stim_01/b.jpg,stim_01/a.jpg,1,1,f,3,3,183,8,f,1,0.783173028774,01,01,60.014710262,PLT_learning_01,N,2014_Feb_25_1714,P16,
stim_fb/ques.jpg,stim_fb/negf.jpg,stim_fb/posf.jpg,stim_01/b.jpg,stim_01/a.jpg,1,1,f,3,4,184,1,f,1,1.01638373847,01,01,60.014710262,PLT_learning_01,N,2014_Feb_25_1714,P16,
stim_fb/ques.jpg,stim_fb/negf.jpg,stim_fb/posf.jpg,stim_01/f.jpg,stim_01/e.jpg,1,3,f,3,5,185,40,j,0,0.783127657687,01,01,60.014710262,PLT_learning_01,N,2014_Feb_25_1714,P16,
stim_fb/ques.jpg,stim_fb/negf.jpg,stim_fb/posf.jpg,stim_01/e.jpg,stim_01/f.jpg,2,3,j,3,6,186,53,j,1,0.599876879121,01,01,60.014710262,PLT_learning_01,N,2014_Feb_25_1714,P16,
stim_fb/ques.jpg,stim_fb/negf.jpg,stim_fb/posf.jpg,stim_01/f.jpg,stim_01/e.jpg,1,3,f,3,7,187,44,f,1,1.01637767836,01,01,60.014710262,PLT_learning_01,N,2014_Feb_25_1714,P16,
stim_fb/ques.jpg,stim_fb/negf.jpg,stim_fb/posf.jpg,stim_01/d.jpg,stim_01/c.jpg,1,2,f,3,8,188,25,f,1,1.08301950812,01,01,60.014710262,PLT_learning_01,N,2014_Feb_25_1714,P16,
stim_fb/ques.jpg,stim_fb/posf.jpg,stim_fb/negf.jpg,stim_01/f.jpg,stim_01/e.jpg,1,3,f,3,9,189,47,f,1,1.36628957075,01,01,60.014710262,PLT_learning_01,N,2014_Feb_25_1714,P16,
stim_fb/ques.jpg,stim_fb/negf.jpg,stim_fb/posf.jpg,stim_01/e.jpg,stim_01/f.jpg,2,3,j,3,10,190,52,f,0,0.716475800933,01,01,60.014710262,PLT_learning_01,N,2014_Feb_25_1714,P16,
stim_fb/ques.jpg,stim_fb/posf.jpg,stim_fb/negf.jpg,stim_01/a.jpg,stim_01/b.jpg,2,1,j,3,11,191,19,j,1,0.933030933602,01,01,60.014710262,PLT_learning_01,N,2014_Feb_25_1714,P16,
stim_fb/ques.jpg,stim_fb/negf.jpg,stim_fb/posf.jpg,stim_01/a.jpg,stim_01/b.jpg,2,1,j,3,12,192,17,j,1,0.9830426478,01,01,60.014710262,PLT_learning_01,N,2014_Feb_25_1714,P16,
stim_fb/ques.jpg,stim_fb/negf.jpg,stim_fb/posf.jpg,stim_01/a.jpg,stim_01/b.jpg,2,1,j,3,13,193,16,f,0,0.883099672935,01,01,60.014710262,PLT_learning_01,N,2014_Feb_25_1714,P16,
stim_fb/ques.jpg,stim_fb/negf.jpg,stim_fb/posf.jpg,stim_01/c.jpg,stim_01/d.jpg,2,2,j,3,14,194,31,j,1,0.933107573627,01,01,60.014710262,PLT_learning_01,N,2014_Feb_25_1714,P16,
stim_fb/ques.jpg,stim_fb/negf.jpg,stim_fb/posf.jpg,stim_01/e.jpg,stim_01/f.jpg,2,3,j,3,15,195,55,None,0,,01,01,60.014710262,PLT_learning_01,N,2014_Feb_25_1714,P16,
stim_fb/ques.jpg,stim_fb/negf.jpg,stim_fb/posf.jpg,stim_01/f.jpg,stim_01/e.jpg,1,3,f,3,16,196,41,f,1,1.21632674942,01,01,60.014710262,PLT_learning_01,N,2014_Feb_25_1714,P16,
stim_fb/ques.jpg,stim_fb/posf.jpg,stim_fb/negf.jpg,stim_01/c.jpg,stim_01/d.jpg,2,2,j,3,17,197,38,j,1,0.93308038887,01,01,60.014710262,PLT_learning_01,N,2014_Feb_25_1714,P16,
stim_fb/ques.jpg,stim_fb/posf.jpg,stim_fb/negf.jpg,stim_01/f.jpg,stim_01/e.jpg,1,3,f,3,18,198,48,j,0,0.999754985301,01,01,60.014710262,PLT_learning_01,N,2014_Feb_25_1714,P16,
stim_fb/ques.jpg,stim_fb/negf.jpg,stim_fb/posf.jpg,stim_01/b.jpg,stim_01/a.jpg,1,1,f,3,19,199,6,f,1,1.28302505996,01,01,60.014710262,PLT_learning_01,N,2014_Feb_25_1714,P16,
stim_fb/ques.jpg,stim_fb/negf.jpg,stim_fb/posf.jpg,stim_01/a.jpg,stim_01/b.jpg,2,1,j,3,20,200,13,j,1,0.749789418124,01,01,60.014710262,PLT_learning_01,N,2014_Feb_25_1714,P16,
stim_fb/ques.jpg,stim_fb/negf.jpg,stim_fb/posf.jpg,stim_01/c.jpg,stim_01/d.jpg,2,2,j,3,21,201,34,j,1,0.766455271765,01,01,60.014710262,PLT_learning_01,N,2014_Feb_25_1714,P16,
stim_fb/ques.jpg,stim_fb/posf.jpg,stim_fb/negf.jpg,stim_01/d.jpg,stim_01/c.jpg,1,2,f,3,22,202,28,f,1,0.799790082781,01,01,60.014710262,PLT_learning_01,N,2014_Feb_25_1714,P16,
stim_fb/ques.jpg,stim_fb/negf.jpg,stim_fb/posf.jpg,stim_01/a.jpg,stim_01/b.jpg,2,1,j,3,23,203,14,j,1,1.46624759814,01,01,60.014710262,PLT_learning_01,N,2014_Feb_25_1714,P16,
stim_fb/ques.jpg,stim_fb/negf.jpg,stim_fb/posf.jpg,stim_01/c.jpg,stim_01/d.jpg,2,2,j,3,24,204,35,j,1,0.68316897467,01,01,60.014710262,PLT_learning_01,N,2014_Feb_25_1714,P16,
stim_fb/ques.jpg,stim_fb/negf.jpg,stim_fb/posf.jpg,stim_01/c.jpg,stim_01/d.jpg,2,2,j,3,25,205,36,j,1,0.683200451124,01,01,60.014710262,PLT_learning_01,N,2014_Feb_25_1714,P16,
stim_fb/ques.jpg,stim_fb/posf.jpg,stim_fb/negf.jpg,stim_01/e.jpg,stim_01/f.jpg,2,3,j,3,26,206,58,j,1,0.783107023256,01,01,60.014710262,PLT_learning_01,N,2014_Feb_25_1714,P16,
stim_fb/ques.jpg,stim_fb/posf.jpg,stim_fb/negf.jpg,stim_01/c.jpg,stim_01/d.jpg,2,2,j,3,27,207,39,j,1,0.649856734912,01,01,60.014710262,PLT_learning_01,N,2014_Feb_25_1714,P16,
stim_fb/ques.jpg,stim_fb/posf.jpg,stim_fb/negf.jpg,stim_01/e.jpg,stim_01/f.jpg,2,3,j,3,28,208,59,j,1,1.21629063541,01,01,60.014710262,PLT_learning_01,N,2014_Feb_25_1714,P16,
stim_fb/ques.jpg,stim_fb/posf.jpg,stim_fb/negf.jpg,stim_01/f.jpg,stim_01/e.jpg,1,3,f,3,29,209,46,j,0,1.2329884858,01,01,60.014710262,PLT_learning_01,N,2014_Feb_25_1714,P16,
stim_fb/ques.jpg,stim_fb/negf.jpg,stim_fb/posf.jpg,stim_01/f.jpg,stim_01/e.jpg,1,3,f,3,30,210,45,j,0,0.849826332133,01,01,60.014710262,PLT_learning_01,N,2014_Feb_25_1714,P16,
stim_fb/ques.jpg,stim_fb/negf.jpg,stim_fb/posf.jpg,stim_01/a.jpg,stim_01/b.jpg,2,1,j,3,31,211,10,j,1,0.966393311328,01,01,60.014710262,PLT_learning_01,N,2014_Feb_25_1714,P16,
stim_fb/ques.jpg,stim_fb/posf.jpg,stim_fb/negf.jpg,stim_01/d.jpg,stim_01/c.jpg,1,2,f,3,32,212,27,f,1,0.983107164609,01,01,60.014710262,PLT_learning_01,N,2014_Feb_25_1714,P16,
stim_fb/ques.jpg,stim_fb/negf.jpg,stim_fb/posf.jpg,stim_01/d.jpg,stim_01/c.jpg,1,2,f,3,33,213,20,j,0,1.28297219419,01,01,60.014710262,PLT_learning_01,N,2014_Feb_25_1714,P16,
stim_fb/ques.jpg,stim_fb/negf.jpg,stim_fb/posf.jpg,stim_01/a.jpg,stim_01/b.jpg,2,1,j,3,34,214,12,j,1,0.883096072962,01,01,60.014710262,PLT_learning_01,N,2014_Feb_25_1714,P16,
stim_fb/ques.jpg,stim_fb/negf.jpg,stim_fb/posf.jpg,stim_01/b.jpg,stim_01/a.jpg,1,1,f,3,35,215,0,f,1,0.666504230795,01,01,60.014710262,PLT_learning_01,N,2014_Feb_25_1714,P16,
stim_fb/ques.jpg,stim_fb/negf.jpg,stim_fb/posf.jpg,stim_01/e.jpg,stim_01/f.jpg,2,3,j,3,36,216,54,f,0,1.18299829625,01,01,60.014710262,PLT_learning_01,N,2014_Feb_25_1714,P16,
stim_fb/ques.jpg,stim_fb/negf.jpg,stim_fb/posf.jpg,stim_01/b.jpg,stim_01/a.jpg,1,1,f,3,37,217,2,f,1,1.53288002647,01,01,60.014710262,PLT_learning_01,N,2014_Feb_25_1714,P16,
stim_fb/ques.jpg,stim_fb/negf.jpg,stim_fb/posf.jpg,stim_01/d.jpg,stim_01/c.jpg,1,2,f,3,38,218,23,f,1,0.833112957046,01,01,60.014710262,PLT_learning_01,N,2014_Feb_25_1714,P16,
stim_fb/ques.jpg,stim_fb/negf.jpg,stim_fb/posf.jpg,stim_01/d.jpg,stim_01/c.jpg,1,2,f,3,39,219,22,f,1,0.716479385869,01,01,60.014710262,PLT_learning_01,N,2014_Feb_25_1714,P16,
stim_fb/ques.jpg,stim_fb/negf.jpg,stim_fb/posf.jpg,stim_01/a.jpg,stim_01/b.jpg,2,1,j,3,40,220,15,j,1,0.783075399433,01,01,60.014710262,PLT_learning_01,N,2014_Feb_25_1714,P16,
stim_fb/ques.jpg,stim_fb/posf.jpg,stim_fb/negf.jpg,stim_01/d.jpg,stim_01/c.jpg,1,2,f,3,41,221,29,f,1,0.649787896332,01,01,60.014710262,PLT_learning_01,N,2014_Feb_25_1714,P16,
stim_fb/ques.jpg,stim_fb/negf.jpg,stim_fb/posf.jpg,stim_01/e.jpg,stim_01/f.jpg,2,3,j,3,42,222,50,f,0,1.46621210668,01,01,60.014710262,PLT_learning_01,N,2014_Feb_25_1714,P16,
stim_fb/ques.jpg,stim_fb/negf.jpg,stim_fb/posf.jpg,stim_01/b.jpg,stim_01/a.jpg,1,1,f,3,43,223,4,f,1,0.949724365982,01,01,60.014710262,PLT_learning_01,N,2014_Feb_25_1714,P16,
stim_fb/ques.jpg,stim_fb/posf.jpg,stim_fb/negf.jpg,stim_01/f.jpg,stim_01/e.jpg,1,3,f,3,44,224,49,j,0,1.04968728656,01,01,60.014710262,PLT_learning_01,N,2014_Feb_25_1714,P16,
stim_fb/ques.jpg,stim_fb/negf.jpg,stim_fb/posf.jpg,stim_01/e.jpg,stim_01/f.jpg,2,3,j,3,45,225,51,f,0,0.916418126179,01,01,60.014710262,PLT_learning_01,N,2014_Feb_25_1714,P16,
stim_fb/ques.jpg,stim_fb/posf.jpg,stim_fb/negf.jpg,stim_01/e.jpg,stim_01/f.jpg,2,3,j,3,46,226,56,f,0,1.48290079924,01,01,60.014710262,PLT_learning_01,N,2014_Feb_25_1714,P16,
stim_fb/ques.jpg,stim_fb/negf.jpg,stim_fb/posf.jpg,stim_01/d.jpg,stim_01/c.jpg,1,2,f,3,47,227,21,f,1,1.39959267975,01,01,60.014710262,PLT_learning_01,N,2014_Feb_25_1714,P16,
stim_fb/ques.jpg,stim_fb/negf.jpg,stim_fb/posf.jpg,stim_01/c.jpg,stim_01/d.jpg,2,2,j,3,48,228,30,j,1,0.783144899662,01,01,60.014710262,PLT_learning_01,N,2014_Feb_25_1714,P16,
stim_fb/ques.jpg,stim_fb/posf.jpg,stim_fb/negf.jpg,stim_01/c.jpg,stim_01/d.jpg,2,2,j,3,49,229,37,f,0,0.699829216322,01,01,60.014710262,PLT_learning_01,N,2014_Feb_25_1714,P16,
stim_fb/ques.jpg,stim_fb/negf.jpg,stim_fb/posf.jpg,stim_01/b.jpg,stim_01/a.jpg,1,1,f,3,50,230,5,f,1,0.766458811588,01,01,60.014710262,PLT_learning_01,N,2014_Feb_25_1714,P16,
stim_fb/ques.jpg,stim_fb/negf.jpg,stim_fb/posf.jpg,stim_01/c.jpg,stim_01/d.jpg,2,2,j,3,51,231,33,f,0,1.53290365636,01,01,60.014710262,PLT_learning_01,N,2014_Feb_25_1714,P16,
stim_fb/ques.jpg,stim_fb/posf.jpg,stim_fb/negf.jpg,stim_01/a.jpg,stim_01/b.jpg,2,1,j,3,52,232,18,j,1,0.916435948602,01,01,60.014710262,PLT_learning_01,N,2014_Feb_25_1714,P16,
stim_fb/ques.jpg,stim_fb/negf.jpg,stim_fb/posf.jpg,stim_01/a.jpg,stim_01/b.jpg,2,1,j,3,53,233,11,j,1,0.91641206006,01,01,60.014710262,PLT_learning_01,N,2014_Feb_25_1714,P16,
stim_fb/ques.jpg,stim_fb/negf.jpg,stim_fb/posf.jpg,stim_01/d.jpg,stim_01/c.jpg,1,2,f,3,54,234,24,f,1,0.816439244818,01,01,60.014710262,PLT_learning_01,N,2014_Feb_25_1714,P16,
stim_fb/ques.jpg,stim_fb/negf.jpg,stim_fb/posf.jpg,stim_01/b.jpg,stim_01/a.jpg,1,1,f,3,55,235,3,f,1,0.749798762416,01,01,60.014710262,PLT_learning_01,N,2014_Feb_25_1714,P16,
stim_fb/ques.jpg,stim_fb/negf.jpg,stim_fb/posf.jpg,stim_01/f.jpg,stim_01/e.jpg,1,3,f,3,56,236,42,f,1,1.38291457959,01,01,60.014710262,PLT_learning_01,N,2014_Feb_25_1714,P16,
stim_fb/ques.jpg,stim_fb/posf.jpg,stim_fb/negf.jpg,stim_01/b.jpg,stim_01/a.jpg,1,1,f,3,57,237,9,f,1,0.91643145841,01,01,60.014710262,PLT_learning_01,N,2014_Feb_25_1714,P16,
stim_fb/ques.jpg,stim_fb/negf.jpg,stim_fb/posf.jpg,stim_01/f.jpg,stim_01/e.jpg,1,3,f,3,58,238,43,j,0,1.09968564146,01,01,60.014710262,PLT_learning_01,N,2014_Feb_25_1714,P16,
stim_fb/ques.jpg,stim_fb/negf.jpg,stim_fb/posf.jpg,stim_01/c.jpg,stim_01/d.jpg,2,2,j,3,59,239,32,j,1,0.683107020248,01,01,60.014710262,PLT_learning_01,N,2014_Feb_25_1714,P16,
stim_fb/ques.jpg,stim_fb/posf.jpg,stim_fb/negf.jpg,stim_01/c.jpg,stim_01/d.jpg,2,2,j,4,0,240,38,j,1,0.799753129676,01,01,60.014710262,PLT_learning_01,N,2014_Feb_25_1714,P16,
stim_fb/ques.jpg,stim_fb/negf.jpg,stim_fb/posf.jpg,stim_01/b.jpg,stim_01/a.jpg,1,1,f,4,1,241,0,f,1,0.733143522229,01,01,60.014710262,PLT_learning_01,N,2014_Feb_25_1714,P16,
stim_fb/ques.jpg,stim_fb/posf.jpg,stim_fb/negf.jpg,stim_01/f.jpg,stim_01/e.jpg,1,3,f,4,2,242,49,f,1,0.966414977331,01,01,60.014710262,PLT_learning_01,N,2014_Feb_25_1714,P16,
stim_fb/ques.jpg,stim_fb/posf.jpg,stim_fb/negf.jpg,stim_01/f.jpg,stim_01/e.jpg,1,3,f,4,3,243,47,j,0,0.733121943444,01,01,60.014710262,PLT_learning_01,N,2014_Feb_25_1714,P16,
stim_fb/ques.jpg,stim_fb/posf.jpg,stim_fb/negf.jpg,stim_01/d.jpg,stim_01/c.jpg,1,2,f,4,4,244,29,f,1,0.63315493267,01,01,60.014710262,PLT_learning_01,N,2014_Feb_25_1714,P16,
stim_fb/ques.jpg,stim_fb/negf.jpg,stim_fb/posf.jpg,stim_01/c.jpg,stim_01/d.jpg,2,2,j,4,5,245,35,j,1,0.583184213652,01,01,60.014710262,PLT_learning_01,N,2014_Feb_25_1714,P16,
stim_fb/ques.jpg,stim_fb/negf.jpg,stim_fb/posf.jpg,stim_01/d.jpg,stim_01/c.jpg,1,2,f,4,6,246,25,f,1,0.816432041865,01,01,60.014710262,PLT_learning_01,N,2014_Feb_25_1714,P16,
stim_fb/ques.jpg,stim_fb/negf.jpg,stim_fb/posf.jpg,stim_01/d.jpg,stim_01/c.jpg,1,2,f,4,7,247,21,f,1,0.883082331711,01,01,60.014710262,PLT_learning_01,N,2014_Feb_25_1714,P16,
stim_fb/ques.jpg,stim_fb/negf.jpg,stim_fb/posf.jpg,stim_01/f.jpg,stim_01/e.jpg,1,3,f,4,8,248,40,j,0,1.03299478651,01,01,60.014710262,PLT_learning_01,N,2014_Feb_25_1714,P16,
stim_fb/ques.jpg,stim_fb/negf.jpg,stim_fb/posf.jpg,stim_01/a.jpg,stim_01/b.jpg,2,1,j,4,9,249,14,j,1,0.933081880587,01,01,60.014710262,PLT_learning_01,N,2014_Feb_25_1714,P16,
stim_fb/ques.jpg,stim_fb/negf.jpg,stim_fb/posf.jpg,stim_01/a.jpg,stim_01/b.jpg,2,1,j,4,10,250,11,j,1,1.08302258479,01,01,60.014710262,PLT_learning_01,N,2014_Feb_25_1714,P16,
stim_fb/ques.jpg,stim_fb/negf.jpg,stim_fb/posf.jpg,stim_01/c.jpg,stim_01/d.jpg,2,2,j,4,11,251,33,f,0,1.19964297712,01,01,60.014710262,PLT_learning_01,N,2014_Feb_25_1714,P16,
stim_fb/ques.jpg,stim_fb/negf.jpg,stim_fb/posf.jpg,stim_01/c.jpg,stim_01/d.jpg,2,2,j,4,12,252,36,f,0,1.09969980978,01,01,60.014710262,PLT_learning_01,N,2014_Feb_25_1714,P16,
stim_fb/ques.jpg,stim_fb/negf.jpg,stim_fb/posf.jpg,stim_01/d.jpg,stim_01/c.jpg,1,2,f,4,13,253,20,f,1,1.01640374133,01,01,60.014710262,PLT_learning_01,N,2014_Feb_25_1714,P16,
stim_fb/ques.jpg,stim_fb/negf.jpg,stim_fb/posf.jpg,stim_01/f.jpg,stim_01/e.jpg,1,3,f,4,14,254,43,j,0,1.26630199472,01,01,60.014710262,PLT_learning_01,N,2014_Feb_25_1714,P16,
stim_fb/ques.jpg,stim_fb/negf.jpg,stim_fb/posf.jpg,stim_01/c.jpg,stim_01/d.jpg,2,2,j,4,15,255,32,j,1,1.48290152706,01,01,60.014710262,PLT_learning_01,N,2014_Feb_25_1714,P16,
stim_fb/ques.jpg,stim_fb/posf.jpg,stim_fb/negf.jpg,stim_01/e.jpg,stim_01/f.jpg,2,3,j,4,16,256,59,f,0,1.14966169277,01,01,60.014710262,PLT_learning_01,N,2014_Feb_25_1714,P16,
stim_fb/ques.jpg,stim_fb/posf.jpg,stim_fb/negf.jpg,stim_01/d.jpg,stim_01/c.jpg,1,2,f,4,17,257,27,f,1,1.14968652867,01,01,60.014710262,PLT_learning_01,N,2014_Feb_25_1714,P16,
stim_fb/ques.jpg,stim_fb/negf.jpg,stim_fb/posf.jpg,stim_01/f.jpg,stim_01/e.jpg,1,3,f,4,18,258,45,f,1,1.44944932444,01,01,60.014710262,PLT_learning_01,N,2014_Feb_25_1714,P16,
stim_fb/ques.jpg,stim_fb/negf.jpg,stim_fb/posf.jpg,stim_01/c.jpg,stim_01/d.jpg,2,2,j,4,19,259,30,f,0,0.86644332599,01,01,60.014710262,PLT_learning_01,N,2014_Feb_25_1714,P16,
stim_fb/ques.jpg,stim_fb/negf.jpg,stim_fb/posf.jpg,stim_01/e.jpg,stim_01/f.jpg,2,3,j,4,20,260,53,j,1,1.66618455801,01,01,60.014710262,PLT_learning_01,N,2014_Feb_25_1714,P16,
stim_fb/ques.jpg,stim_fb/negf.jpg,stim_fb/posf.jpg,stim_01/a.jpg,stim_01/b.jpg,2,1,j,4,21,261,16,j,1,0.816418592342,01,01,60.014710262,PLT_learning_01,N,2014_Feb_25_1714,P16,
stim_fb/ques.jpg,stim_fb/negf.jpg,stim_fb/posf.jpg,stim_01/f.jpg,stim_01/e.jpg,1,3,f,4,22,262,44,j,0,1.46625671386,01,01,60.014710262,PLT_learning_01,N,2014_Feb_25_1714,P16,
stim_fb/ques.jpg,stim_fb/negf.jpg,stim_fb/posf.jpg,stim_01/b.jpg,stim_01/a.jpg,1,1,f,4,23,263,5,f,1,0.833108394673,01,01,60.014710262,PLT_learning_01,N,2014_Feb_25_1714,P16,
stim_fb/ques.jpg,stim_fb/negf.jpg,stim_fb/posf.jpg,stim_01/b.jpg,stim_01/a.jpg,1,1,f,4,24,264,2,f,1,0.633234871919,01,01,60.014710262,PLT_learning_01,N,2014_Feb_25_1714,P16,
stim_fb/ques.jpg,stim_fb/posf.jpg,stim_fb/negf.jpg,stim_01/e.jpg,stim_01/f.jpg,2,3,j,4,25,265,56,j,1,1.11633386516,01,01,60.014710262,PLT_learning_01,N,2014_Feb_25_1714,P16,
stim_fb/ques.jpg,stim_fb/posf.jpg,stim_fb/negf.jpg,stim_01/f.jpg,stim_01/e.jpg,1,3,f,4,26,266,48,f,1,0.916383097871,01,01,60.014710262,PLT_learning_01,N,2014_Feb_25_1714,P16,
stim_fb/ques.jpg,stim_fb/negf.jpg,stim_fb/posf.jpg,stim_01/a.jpg,stim_01/b.jpg,2,1,j,4,27,267,17,j,1,0.649832151637,01,01,60.014710262,PLT_learning_01,N,2014_Feb_25_1714,P16,
stim_fb/ques.jpg,stim_fb/negf.jpg,stim_fb/posf.jpg,stim_01/c.jpg,stim_01/d.jpg,2,2,j,4,28,268,34,j,1,1.01638612341,01,01,60.014710262,PLT_learning_01,N,2014_Feb_25_1714,P16,
stim_fb/ques.jpg,stim_fb/negf.jpg,stim_fb/posf.jpg,stim_01/e.jpg,stim_01/f.jpg,2,3,j,4,29,269,50,j,1,1.43292399606,01,01,60.014710262,PLT_learning_01,N,2014_Feb_25_1714,P16,
stim_fb/ques.jpg,stim_fb/negf.jpg,stim_fb/posf.jpg,stim_01/d.jpg,stim_01/c.jpg,1,2,f,4,30,270,22,f,1,0.73313334787,01,01,60.014710262,PLT_learning_01,N,2014_Feb_25_1714,P16,
stim_fb/ques.jpg,stim_fb/negf.jpg,stim_fb/posf.jpg,stim_01/d.jpg,stim_01/c.jpg,1,2,f,4,31,271,26,f,1,0.766450968038,01,01,60.014710262,PLT_learning_01,N,2014_Feb_25_1714,P16,
stim_fb/ques.jpg,stim_fb/negf.jpg,stim_fb/posf.jpg,stim_01/a.jpg,stim_01/b.jpg,2,1,j,4,32,272,13,j,1,0.633173723506,01,01,60.014710262,PLT_learning_01,N,2014_Feb_25_1714,P16,
stim_fb/ques.jpg,stim_fb/negf.jpg,stim_fb/posf.jpg,stim_01/d.jpg,stim_01/c.jpg,1,2,f,4,33,273,23,f,1,0.699864130345,01,01,60.014710262,PLT_learning_01,N,2014_Feb_25_1714,P16,
stim_fb/ques.jpg,stim_fb/posf.jpg,stim_fb/negf.jpg,stim_01/a.jpg,stim_01/b.jpg,2,1,j,4,34,274,19,j,1,0.616492820355,01,01,60.014710262,PLT_learning_01,N,2014_Feb_25_1714,P16,
stim_fb/ques.jpg,stim_fb/posf.jpg,stim_fb/negf.jpg,stim_01/f.jpg,stim_01/e.jpg,1,3,f,4,35,275,46,j,0,1.53280431275,01,01,60.014710262,PLT_learning_01,N,2014_Feb_25_1714,P16,
stim_fb/ques.jpg,stim_fb/negf.jpg,stim_fb/posf.jpg,stim_01/e.jpg,stim_01/f.jpg,2,3,j,4,36,276,54,j,1,0.933081477583,01,01,60.014710262,PLT_learning_01,N,2014_Feb_25_1714,P16,
stim_fb/ques.jpg,stim_fb/negf.jpg,stim_fb/posf.jpg,stim_01/f.jpg,stim_01/e.jpg,1,3,f,4,37,277,41,j,0,0.899706290929,01,01,60.014710262,PLT_learning_01,N,2014_Feb_25_1714,P16,
stim_fb/ques.jpg,stim_fb/posf.jpg,stim_fb/negf.jpg,stim_01/a.jpg,stim_01/b.jpg,2,1,j,4,38,278,18,j,1,0.633166024316,01,01,60.014710262,PLT_learning_01,N,2014_Feb_25_1714,P16,
stim_fb/ques.jpg,stim_fb/negf.jpg,stim_fb/posf.jpg,stim_01/a.jpg,stim_01/b.jpg,2,1,j,4,39,279,12,f,0,0.699815408907,01,01,60.014710262,PLT_learning_01,N,2014_Feb_25_1714,P16,
stim_fb/ques.jpg,stim_fb/negf.jpg,stim_fb/posf.jpg,stim_01/b.jpg,stim_01/a.jpg,1,1,f,4,40,280,7,f,1,0.783194255682,01,01,60.014710262,PLT_learning_01,N,2014_Feb_25_1714,P16,
stim_fb/ques.jpg,stim_fb/posf.jpg,stim_fb/negf.jpg,stim_01/c.jpg,stim_01/d.jpg,2,2,j,4,41,281,39,j,1,0.766415852512,01,01,60.014710262,PLT_learning_01,N,2014_Feb_25_1714,P16,
stim_fb/ques.jpg,stim_fb/posf.jpg,stim_fb/negf.jpg,stim_01/b.jpg,stim_01/a.jpg,1,1,f,4,42,282,9,f,1,0.64988268359,01,01,60.014710262,PLT_learning_01,N,2014_Feb_25_1714,P16,
stim_fb/ques.jpg,stim_fb/posf.jpg,stim_fb/negf.jpg,stim_01/b.jpg,stim_01/a.jpg,1,1,f,4,43,283,8,f,1,0.616509400681,01,01,60.014710262,PLT_learning_01,N,2014_Feb_25_1714,P16,
stim_fb/ques.jpg,stim_fb/negf.jpg,stim_fb/posf.jpg,stim_01/e.jpg,stim_01/f.jpg,2,3,j,4,44,284,52,j,1,1.41620395636,01,01,60.014710262,PLT_learning_01,N,2014_Feb_25_1714,P16,
stim_fb/ques.jpg,stim_fb/posf.jpg,stim_fb/negf.jpg,stim_01/d.jpg,stim_01/c.jpg,1,2,f,4,45,285,28,f,1,0.616529878723,01,01,60.014710262,PLT_learning_01,N,2014_Feb_25_1714,P16,
stim_fb/ques.jpg,stim_fb/negf.jpg,stim_fb/posf.jpg,stim_01/b.jpg,stim_01/a.jpg,1,1,f,4,46,286,3,f,1,0.633201612019,01,01,60.014710262,PLT_learning_01,N,2014_Feb_25_1714,P16,
stim_fb/ques.jpg,stim_fb/negf.jpg,stim_fb/posf.jpg,stim_01/a.jpg,stim_01/b.jpg,2,1,j,4,47,287,10,j,1,0.816467722799,01,01,60.014710262,PLT_learning_01,N,2014_Feb_25_1714,P16,
stim_fb/ques.jpg,stim_fb/negf.jpg,stim_fb/posf.jpg,stim_01/b.jpg,stim_01/a.jpg,1,1,f,4,48,288,6,f,1,0.666505635296,01,01,60.014710262,PLT_learning_01,N,2014_Feb_25_1714,P16,
stim_fb/ques.jpg,stim_fb/negf.jpg,stim_fb/posf.jpg,stim_01/b.jpg,stim_01/a.jpg,1,1,f,4,49,289,1,f,1,0.749789523386,01,01,60.014710262,PLT_learning_01,N,2014_Feb_25_1714,P16,
stim_fb/ques.jpg,stim_fb/negf.jpg,stim_fb/posf.jpg,stim_01/a.jpg,stim_01/b.jpg,2,1,j,4,50,290,15,j,1,0.616535737325,01,01,60.014710262,PLT_learning_01,N,2014_Feb_25_1714,P16,
stim_fb/ques.jpg,stim_fb/posf.jpg,stim_fb/negf.jpg,stim_01/c.jpg,stim_01/d.jpg,2,2,j,4,51,291,37,j,1,0.966475834016,01,01,60.014710262,PLT_learning_01,N,2014_Feb_25_1714,P16,
stim_fb/ques.jpg,stim_fb/negf.jpg,stim_fb/posf.jpg,stim_01/c.jpg,stim_01/d.jpg,2,2,j,4,52,292,31,f,0,0.849748561289,01,01,60.014710262,PLT_learning_01,N,2014_Feb_25_1714,P16,
stim_fb/ques.jpg,stim_fb/negf.jpg,stim_fb/posf.jpg,stim_01/d.jpg,stim_01/c.jpg,1,2,f,4,53,293,24,f,1,1.03302180886,01,01,60.014710262,PLT_learning_01,N,2014_Feb_25_1714,P16,
stim_fb/ques.jpg,stim_fb/negf.jpg,stim_fb/posf.jpg,stim_01/e.jpg,stim_01/f.jpg,2,3,j,4,54,294,51,j,1,1.28309883084,01,01,60.014710262,PLT_learning_01,N,2014_Feb_25_1714,P16,
stim_fb/ques.jpg,stim_fb/posf.jpg,stim_fb/negf.jpg,stim_01/e.jpg,stim_01/f.jpg,2,3,j,4,55,295,57,j,1,0.783114698386,01,01,60.014710262,PLT_learning_01,N,2014_Feb_25_1714,P16,
stim_fb/ques.jpg,stim_fb/negf.jpg,stim_fb/posf.jpg,stim_01/b.jpg,stim_01/a.jpg,1,1,f,4,56,296,4,f,1,0.733138935798,01,01,60.014710262,PLT_learning_01,N,2014_Feb_25_1714,P16,
stim_fb/ques.jpg,stim_fb/negf.jpg,stim_fb/posf.jpg,stim_01/f.jpg,stim_01/e.jpg,1,3,f,4,57,297,42,f,1,1.18299158352,01,01,60.014710262,PLT_learning_01,N,2014_Feb_25_1714,P16,
stim_fb/ques.jpg,stim_fb/negf.jpg,stim_fb/posf.jpg,stim_01/e.jpg,stim_01/f.jpg,2,3,j,4,58,298,55,f,0,0.749813532229,01,01,60.014710262,PLT_learning_01,N,2014_Feb_25_1714,P16,
stim_fb/ques.jpg,stim_fb/posf.jpg,stim_fb/negf.jpg,stim_01/e.jpg,stim_01/f.jpg,2,3,j,4,59,299,58,j,1,1.36626273487,01,01,60.014710262,PLT_learning_01,N,2014_Feb_25_1714,P16,
stim_fb/ques.jpg,stim_fb/posf.jpg,stim_fb/negf.jpg,stim_01/f.jpg,stim_01/e.jpg,1,3,f,5,0,300,47,j,0,1.28298617304,01,01,60.014710262,PLT_learning_01,N,2014_Feb_25_1714,P16,
stim_fb/ques.jpg,stim_fb/negf.jpg,stim_fb/posf.jpg,stim_01/d.jpg,stim_01/c.jpg,1,2,f,5,1,301,26,f,1,0.783090800821,01,01,60.014710262,PLT_learning_01,N,2014_Feb_25_1714,P16,
stim_fb/ques.jpg,stim_fb/negf.jpg,stim_fb/posf.jpg,stim_01/b.jpg,stim_01/a.jpg,1,1,f,5,2,302,5,f,1,0.649844073353,01,01,60.014710262,PLT_learning_01,N,2014_Feb_25_1714,P16,
stim_fb/ques.jpg,stim_fb/negf.jpg,stim_fb/posf.jpg,stim_01/d.jpg,stim_01/c.jpg,1,2,f,5,3,303,23,f,1,0.716388736926,01,01,60.014710262,PLT_learning_01,N,2014_Feb_25_1714,P16,
stim_fb/ques.jpg,stim_fb/negf.jpg,stim_fb/posf.jpg,stim_01/f.jpg,stim_01/e.jpg,1,3,f,5,4,304,41,f,1,1.4665038308,01,01,60.014710262,PLT_learning_01,N,2014_Feb_25_1714,P16,
stim_fb/ques.jpg,stim_fb/posf.jpg,stim_fb/negf.jpg,stim_01/e.jpg,stim_01/f.jpg,2,3,j,5,5,305,57,f,0,0.699818975797,01,01,60.014710262,PLT_learning_01,N,2014_Feb_25_1714,P16,
stim_fb/ques.jpg,stim_fb/negf.jpg,stim_fb/posf.jpg,stim_01/c.jpg,stim_01/d.jpg,2,2,j,5,6,306,36,j,1,0.899756263487,01,01,60.014710262,PLT_learning_01,N,2014_Feb_25_1714,P16,
stim_fb/ques.jpg,stim_fb/negf.jpg,stim_fb/posf.jpg,stim_01/a.jpg,stim_01/b.jpg,2,1,j,5,7,307,14,j,1,0.766459575491,01,01,60.014710262,PLT_learning_01,N,2014_Feb_25_1714,P16,
stim_fb/ques.jpg,stim_fb/negf.jpg,stim_fb/posf.jpg,stim_01/b.jpg,stim_01/a.jpg,1,1,f,5,8,308,4,f,1,0.899685575296,01,01,60.014710262,PLT_learning_01,N,2014_Feb_25_1714,P16,
stim_fb/ques.jpg,stim_fb/negf.jpg,stim_fb/posf.jpg,stim_01/f.jpg,stim_01/e.jpg,1,3,f,5,9,309,40,f,1,1.11635126954,01,01,60.014710262,PLT_learning_01,N,2014_Feb_25_1714,P16,
stim_fb/ques.jpg,stim_fb/negf.jpg,stim_fb/posf.jpg,stim_01/f.jpg,stim_01/e.jpg,1,3,f,5,10,310,43,j,0,0.683201025556,01,01,60.014710262,PLT_learning_01,N,2014_Feb_25_1714,P16,
stim_fb/ques.jpg,stim_fb/negf.jpg,stim_fb/posf.jpg,stim_01/a.jpg,stim_01/b.jpg,2,1,j,5,11,311,12,j,1,0.716503551102,01,01,60.014710262,PLT_learning_01,N,2014_Feb_25_1714,P16,
stim_fb/ques.jpg,stim_fb/negf.jpg,stim_fb/posf.jpg,stim_01/c.jpg,stim_01/d.jpg,2,2,j,5,12,312,31,j,1,0.816489211359,01,01,60.014710262,PLT_learning_01,N,2014_Feb_25_1714,P16,
stim_fb/ques.jpg,stim_fb/negf.jpg,stim_fb/posf.jpg,stim_01/c.jpg,stim_01/d.jpg,2,2,j,5,13,313,32,j,1,0.549889149705,01,01,60.014710262,PLT_learning_01,N,2014_Feb_25_1714,P16,
stim_fb/ques.jpg,stim_fb/negf.jpg,stim_fb/posf.jpg,stim_01/e.jpg,stim_01/f.jpg,2,3,j,5,14,314,50,f,0,1.43280058045,01,01,60.014710262,PLT_learning_01,N,2014_Feb_25_1714,P16,
stim_fb/ques.jpg,stim_fb/negf.jpg,stim_fb/posf.jpg,stim_01/b.jpg,stim_01/a.jpg,1,1,f,5,15,315,3,f,1,0.699760708566,01,01,60.014710262,PLT_learning_01,N,2014_Feb_25_1714,P16,
stim_fb/ques.jpg,stim_fb/negf.jpg,stim_fb/posf.jpg,stim_01/e.jpg,stim_01/f.jpg,2,3,j,5,16,316,51,j,1,0.716471764874,01,01,60.014710262,PLT_learning_01,N,2014_Feb_25_1714,P16,
stim_fb/ques.jpg,stim_fb/posf.jpg,stim_fb/negf.jpg,stim_01/d.jpg,stim_01/c.jpg,1,2,f,5,17,317,28,f,1,0.833110439771,01,01,60.014710262,PLT_learning_01,N,2014_Feb_25_1714,P16,
stim_fb/ques.jpg,stim_fb/negf.jpg,stim_fb/posf.jpg,stim_01/c.jpg,stim_01/d.jpg,2,2,j,5,18,318,34,j,1,0.833069543837,01,01,60.014710262,PLT_learning_01,N,2014_Feb_25_1714,P16,
stim_fb/ques.jpg,stim_fb/posf.jpg,stim_fb/negf.jpg,stim_01/a.jpg,stim_01/b.jpg,2,1,j,5,19,319,18,j,1,0.666468161894,01,01,60.014710262,PLT_learning_01,N,2014_Feb_25_1714,P16,
stim_fb/ques.jpg,stim_fb/negf.jpg,stim_fb/posf.jpg,stim_01/c.jpg,stim_01/d.jpg,2,2,j,5,20,320,30,j,1,0.449904884926,01,01,60.014710262,PLT_learning_01,N,2014_Feb_25_1714,P16,
stim_fb/ques.jpg,stim_fb/negf.jpg,stim_fb/posf.jpg,stim_01/d.jpg,stim_01/c.jpg,1,2,f,5,21,321,24,None,0,,01,01,60.014710262,PLT_learning_01,N,2014_Feb_25_1714,P16,
stim_fb/ques.jpg,stim_fb/negf.jpg,stim_fb/posf.jpg,stim_01/d.jpg,stim_01/c.jpg,1,2,f,5,22,322,25,f,1,0.749735653116,01,01,60.014710262,PLT_learning_01,N,2014_Feb_25_1714,P16,
stim_fb/ques.jpg,stim_fb/negf.jpg,stim_fb/posf.jpg,stim_01/d.jpg,stim_01/c.jpg,1,2,f,5,23,323,22,f,1,0.449893050428,01,01,60.014710262,PLT_learning_01,N,2014_Feb_25_1714,P16,
stim_fb/ques.jpg,stim_fb/negf.jpg,stim_fb/posf.jpg,stim_01/e.jpg,stim_01/f.jpg,2,3,j,5,24,324,52,j,1,1.03300404057,01,01,60.014710262,PLT_learning_01,N,2014_Feb_25_1714,P16,
stim_fb/ques.jpg,stim_fb/negf.jpg,stim_fb/posf.jpg,stim_01/f.jpg,stim_01/e.jpg,1,3,f,5,25,325,45,j,0,1.08302953211,01,01,60.014710262,PLT_learning_01,N,2014_Feb_25_1714,P16,
stim_fb/ques.jpg,stim_fb/negf.jpg,stim_fb/posf.jpg,stim_01/e.jpg,stim_01/f.jpg,2,3,j,5,26,326,54,None,0,,01,01,60.014710262,PLT_learning_01,N,2014_Feb_25_1714,P16,
stim_fb/ques.jpg,stim_fb/negf.jpg,stim_fb/posf.jpg,stim_01/f.jpg,stim_01/e.jpg,1,3,f,5,27,327,42,j,0,0.549881155781,01,01,60.014710262,PLT_learning_01,N,2014_Feb_25_1714,P16,
stim_fb/ques.jpg,stim_fb/negf.jpg,stim_fb/posf.jpg,stim_01/e.jpg,stim_01/f.jpg,2,3,j,5,28,328,53,j,1,0.466570281426,01,01,60.014710262,PLT_learning_01,N,2014_Feb_25_1714,P16,
stim_fb/ques.jpg,stim_fb/posf.jpg,stim_fb/negf.jpg,stim_01/e.jpg,stim_01/f.jpg,2,3,j,5,29,329,58,f,0,0.616470883677,01,01,60.014710262,PLT_learning_01,N,2014_Feb_25_1714,P16,
stim_fb/ques.jpg,stim_fb/posf.jpg,stim_fb/negf.jpg,stim_01/f.jpg,stim_01/e.jpg,1,3,f,5,30,330,46,f,1,0.916401142848,01,01,60.014710262,PLT_learning_01,N,2014_Feb_25_1714,P16,
stim_fb/ques.jpg,stim_fb/negf.jpg,stim_fb/posf.jpg,stim_01/a.jpg,stim_01/b.jpg,2,1,j,5,31,331,13,j,1,0.749796154916,01,01,60.014710262,PLT_learning_01,N,2014_Feb_25_1714,P16,
stim_fb/ques.jpg,stim_fb/posf.jpg,stim_fb/negf.jpg,stim_01/a.jpg,stim_01/b.jpg,2,1,j,5,32,332,19,j,1,0.483216165292,01,01,60.014710262,PLT_learning_01,N,2014_Feb_25_1714,P16,
stim_fb/ques.jpg,stim_fb/posf.jpg,stim_fb/negf.jpg,stim_01/f.jpg,stim_01/e.jpg,1,3,f,5,33,333,48,j,0,1.23300619995,01,01,60.014710262,PLT_learning_01,N,2014_Feb_25_1714,P16,
stim_fb/ques.jpg,stim_fb/negf.jpg,stim_fb/posf.jpg,stim_01/c.jpg,stim_01/d.jpg,2,2,j,5,34,334,33,j,1,0.68311603973,01,01,60.014710262,PLT_learning_01,N,2014_Feb_25_1714,P16,
stim_fb/ques.jpg,stim_fb/posf.jpg,stim_fb/negf.jpg,stim_01/b.jpg,stim_01/a.jpg,1,1,f,5,35,335,9,f,1,0.683130277216,01,01,60.014710262,PLT_learning_01,N,2014_Feb_25_1714,P16,
stim_fb/ques.jpg,stim_fb/posf.jpg,stim_fb/negf.jpg,stim_01/e.jpg,stim_01/f.jpg,2,3,j,5,36,336,59,j,1,0.649847604153,01,01,60.014710262,PLT_learning_01,N,2014_Feb_25_1714,P16,
stim_fb/ques.jpg,stim_fb/posf.jpg,stim_fb/negf.jpg,stim_01/c.jpg,stim_01/d.jpg,2,2,j,5,37,337,39,j,1,0.649828256931,01,01,60.014710262,PLT_learning_01,N,2014_Feb_25_1714,P16,
stim_fb/ques.jpg,stim_fb/negf.jpg,stim_fb/posf.jpg,stim_01/d.jpg,stim_01/c.jpg,1,2,f,5,38,338,21,f,1,0.616528155427,01,01,60.014710262,PLT_learning_01,N,2014_Feb_25_1714,P16,
stim_fb/ques.jpg,stim_fb/negf.jpg,stim_fb/posf.jpg,stim_01/e.jpg,stim_01/f.jpg,2,3,j,5,39,339,55,f,0,0.983019670529,01,01,60.014710262,PLT_learning_01,N,2014_Feb_25_1714,P16,
stim_fb/ques.jpg,stim_fb/negf.jpg,stim_fb/posf.jpg,stim_01/f.jpg,stim_01/e.jpg,1,3,f,5,40,340,44,j,0,0.849761451417,01,01,60.014710262,PLT_learning_01,N,2014_Feb_25_1714,P16,
stim_fb/ques.jpg,stim_fb/negf.jpg,stim_fb/posf.jpg,stim_01/b.jpg,stim_01/a.jpg,1,1,f,5,41,341,1,f,1,0.616470378419,01,01,60.014710262,PLT_learning_01,N,2014_Feb_25_1714,P16,
stim_fb/ques.jpg,stim_fb/posf.jpg,stim_fb/negf.jpg,stim_01/e.jpg,stim_01/f.jpg,2,3,j,5,42,342,56,f,0,1.03303138172,01,01,60.014710262,PLT_learning_01,N,2014_Feb_25_1714,P16,
stim_fb/ques.jpg,stim_fb/posf.jpg,stim_fb/negf.jpg,stim_01/d.jpg,stim_01/c.jpg,1,2,f,5,43,343,29,j,0,0.649815496125,01,01,60.014710262,PLT_learning_01,N,2014_Feb_25_1714,P16,
stim_fb/ques.jpg,stim_fb/negf.jpg,stim_fb/posf.jpg,stim_01/a.jpg,stim_01/b.jpg,2,1,j,5,44,344,10,j,1,0.633178481365,01,01,60.014710262,PLT_learning_01,N,2014_Feb_25_1714,P16,
stim_fb/ques.jpg,stim_fb/negf.jpg,stim_fb/posf.jpg,stim_01/a.jpg,stim_01/b.jpg,2,1,j,5,45,345,11,j,1,0.583231873445,01,01,60.014710262,PLT_learning_01,N,2014_Feb_25_1714,P16,
stim_fb/ques.jpg,stim_fb/negf.jpg,stim_fb/posf.jpg,stim_01/b.jpg,stim_01/a.jpg,1,1,f,5,46,346,0,j,0,1.06634390719,01,01,60.014710262,PLT_learning_01,N,2014_Feb_25_1714,P16,
stim_fb/ques.jpg,stim_fb/posf.jpg,stim_fb/negf.jpg,stim_01/b.jpg,stim_01/a.jpg,1,1,f,5,47,347,8,f,1,0.983062058181,01,01,60.014710262,PLT_learning_01,N,2014_Feb_25_1714,P16,
stim_fb/ques.jpg,stim_fb/negf.jpg,stim_fb/posf.jpg,stim_01/b.jpg,stim_01/a.jpg,1,1,f,5,48,348,6,f,1,1.61619013391,01,01,60.014710262,PLT_learning_01,N,2014_Feb_25_1714,P16,
stim_fb/ques.jpg,stim_fb/posf.jpg,stim_fb/negf.jpg,stim_01/d.jpg,stim_01/c.jpg,1,2,f,5,49,349,27,f,1,0.783135492215,01,01,60.014710262,PLT_learning_01,N,2014_Feb_25_1714,P16,
stim_fb/ques.jpg,stim_fb/posf.jpg,stim_fb/negf.jpg,stim_01/f.jpg,stim_01/e.jpg,1,3,f,5,50,350,49,j,0,1.3329511718,01,01,60.014710262,PLT_learning_01,N,2014_Feb_25_1714,P16,
stim_fb/ques.jpg,stim_fb/negf.jpg,stim_fb/posf.jpg,stim_01/c.jpg,stim_01/d.jpg,2,2,j,5,51,351,35,f,0,0.466559373238,01,01,60.014710262,PLT_learning_01,N,2014_Feb_25_1714,P16,
stim_fb/ques.jpg,stim_fb/negf.jpg,stim_fb/posf.jpg,stim_01/a.jpg,stim_01/b.jpg,2,1,j,5,52,352,17,j,1,0.649852470282,01,01,60.014710262,PLT_learning_01,N,2014_Feb_25_1714,P16,
stim_fb/ques.jpg,stim_fb/negf.jpg,stim_fb/posf.jpg,stim_01/b.jpg,stim_01/a.jpg,1,1,f,5,53,353,2,f,1,0.466477322727,01,01,60.014710262,PLT_learning_01,N,2014_Feb_25_1714,P16,
stim_fb/ques.jpg,stim_fb/negf.jpg,stim_fb/posf.jpg,stim_01/b.jpg,stim_01/a.jpg,1,1,f,5,54,354,7,f,1,0.533210411952,01,01,60.014710262,PLT_learning_01,N,2014_Feb_25_1714,P16,
stim_fb/ques.jpg,stim_fb/posf.jpg,stim_fb/negf.jpg,stim_01/c.jpg,stim_01/d.jpg,2,2,j,5,55,355,38,j,1,0.783148265051,01,01,60.014710262,PLT_learning_01,N,2014_Feb_25_1714,P16,
stim_fb/ques.jpg,stim_fb/negf.jpg,stim_fb/posf.jpg,stim_01/a.jpg,stim_01/b.jpg,2,1,j,5,56,356,16,j,1,0.583193792528,01,01,60.014710262,PLT_learning_01,N,2014_Feb_25_1714,P16,
stim_fb/ques.jpg,stim_fb/posf.jpg,stim_fb/negf.jpg,stim_01/c.jpg,stim_01/d.jpg,2,2,j,5,57,357,37,j,1,0.58320604206,01,01,60.014710262,PLT_learning_01,N,2014_Feb_25_1714,P16,
stim_fb/ques.jpg,stim_fb/negf.jpg,stim_fb/posf.jpg,stim_01/a.jpg,stim_01/b.jpg,2,1,j,5,58,358,15,j,1,0.566567710017,01,01,60.014710262,PLT_learning_01,N,2014_Feb_25_1714,P16,
stim_fb/ques.jpg,stim_fb/negf.jpg,stim_fb/posf.jpg,stim_01/d.jpg,stim_01/c.jpg,1,2,f,5,59,359,20,f,1,0.61649144593,01,01,60.014710262,PLT_learning_01,N,2014_Feb_25_1714,P16,
