Fb3,Fb2,Fb1,Symbol2,Symbol1,PosCond,Pair,Correct,trials.thisRepN,trials.thisTrialN,trials.thisN,trials.thisIndex,Response.keys,Response.corr,Response.rt,Version,Session Number,frameRate,expName,StimCondition,date,Participant,
stim_fb/ques.jpg,stim_fb/negf.jpg,stim_fb/posf.jpg,stim_02/f.jpg,stim_02/e.jpg,1,3,f,0,0,0,41,j,0,1.18295191765,02,01,60.0269890145,PLT_learning_02,N,2014_Feb_27_1759,P17,
stim_fb/ques.jpg,stim_fb/negf.jpg,stim_fb/posf.jpg,stim_02/b.jpg,stim_02/a.jpg,1,1,f,0,1,1,7,f,1,1.04971999609,02,01,60.0269890145,PLT_learning_02,N,2014_Feb_27_1759,P17,
stim_fb/ques.jpg,stim_fb/negf.jpg,stim_fb/posf.jpg,stim_02/d.jpg,stim_02/c.jpg,1,2,f,0,2,2,20,j,0,1.44958359411,02,01,60.0269890145,PLT_learning_02,N,2014_Feb_27_1759,P17,
stim_fb/ques.jpg,stim_fb/negf.jpg,stim_fb/posf.jpg,stim_02/a.jpg,stim_02/b.jpg,2,1,j,0,3,3,17,j,1,1.61623882527,02,01,60.0269890145,PLT_learning_02,N,2014_Feb_27_1759,P17,
stim_fb/ques.jpg,stim_fb/negf.jpg,stim_fb/posf.jpg,stim_02/f.jpg,stim_02/e.jpg,1,3,f,0,4,4,45,None,0,,02,01,60.0269890145,PLT_learning_02,N,2014_Feb_27_1759,P17,
stim_fb/ques.jpg,stim_fb/posf.jpg,stim_fb/negf.jpg,stim_02/e.jpg,stim_02/f.jpg,2,3,j,0,5,5,58,j,1,1.03304631093,02,01,60.0269890145,PLT_learning_02,N,2014_Feb_27_1759,P17,
stim_fb/ques.jpg,stim_fb/posf.jpg,stim_fb/negf.jpg,stim_02/f.jpg,stim_02/e.jpg,1,3,f,0,6,6,48,j,0,1.18318714596,02,01,60.0269890145,PLT_learning_02,N,2014_Feb_27_1759,P17,
stim_fb/ques.jpg,stim_fb/posf.jpg,stim_fb/negf.jpg,stim_02/a.jpg,stim_02/b.jpg,2,1,j,0,7,7,19,f,0,0.983059889775,02,01,60.0269890145,PLT_learning_02,N,2014_Feb_27_1759,P17,
stim_fb/ques.jpg,stim_fb/posf.jpg,stim_fb/negf.jpg,stim_02/c.jpg,stim_02/d.jpg,2,2,j,0,8,8,38,f,0,1.21632764265,02,01,60.0269890145,PLT_learning_02,N,2014_Feb_27_1759,P17,
stim_fb/ques.jpg,stim_fb/negf.jpg,stim_fb/posf.jpg,stim_02/d.jpg,stim_02/c.jpg,1,2,f,0,9,9,25,j,0,1.04969236321,02,01,60.0269890145,PLT_learning_02,N,2014_Feb_27_1759,P17,
stim_fb/ques.jpg,stim_fb/negf.jpg,stim_fb/posf.jpg,stim_02/d.jpg,stim_02/c.jpg,1,2,f,0,10,10,26,f,1,1.36629926993,02,01,60.0269890145,PLT_learning_02,N,2014_Feb_27_1759,P17,
stim_fb/ques.jpg,stim_fb/negf.jpg,stim_fb/posf.jpg,stim_02/c.jpg,stim_02/d.jpg,2,2,j,0,11,11,36,j,1,0.899728594522,02,01,60.0269890145,PLT_learning_02,N,2014_Feb_27_1759,P17,
stim_fb/ques.jpg,stim_fb/posf.jpg,stim_fb/negf.jpg,stim_02/d.jpg,stim_02/c.jpg,1,2,f,0,12,12,28,f,1,1.08301262998,02,01,60.0269890145,PLT_learning_02,N,2014_Feb_27_1759,P17,
stim_fb/ques.jpg,stim_fb/negf.jpg,stim_fb/posf.jpg,stim_02/e.jpg,stim_02/f.jpg,2,3,j,0,13,13,51,j,1,1.4495758077,02,01,60.0269890145,PLT_learning_02,N,2014_Feb_27_1759,P17,
stim_fb/ques.jpg,stim_fb/negf.jpg,stim_fb/posf.jpg,stim_02/c.jpg,stim_02/d.jpg,2,2,j,0,14,14,35,f,0,1.11633970872,02,01,60.0269890145,PLT_learning_02,N,2014_Feb_27_1759,P17,
stim_fb/ques.jpg,stim_fb/posf.jpg,stim_fb/negf.jpg,stim_02/e.jpg,stim_02/f.jpg,2,3,j,0,15,15,57,j,1,0.999741060594,02,01,60.0269890145,PLT_learning_02,N,2014_Feb_27_1759,P17,
stim_fb/ques.jpg,stim_fb/negf.jpg,stim_fb/posf.jpg,stim_02/e.jpg,stim_02/f.jpg,2,3,j,0,16,16,54,j,1,1.18296061533,02,01,60.0269890145,PLT_learning_02,N,2014_Feb_27_1759,P17,
stim_fb/ques.jpg,stim_fb/negf.jpg,stim_fb/posf.jpg,stim_02/e.jpg,stim_02/f.jpg,2,3,j,0,17,17,50,f,0,0.933068301743,02,01,60.0269890145,PLT_learning_02,N,2014_Feb_27_1759,P17,
stim_fb/ques.jpg,stim_fb/negf.jpg,stim_fb/posf.jpg,stim_02/b.jpg,stim_02/a.jpg,1,1,f,0,18,18,6,j,0,0.916430493004,02,01,60.0269890145,PLT_learning_02,N,2014_Feb_27_1759,P17,
stim_fb/ques.jpg,stim_fb/posf.jpg,stim_fb/negf.jpg,stim_02/d.jpg,stim_02/c.jpg,1,2,f,0,19,19,27,f,1,1.16632511335,02,01,60.0269890145,PLT_learning_02,N,2014_Feb_27_1759,P17,
stim_fb/ques.jpg,stim_fb/negf.jpg,stim_fb/posf.jpg,stim_02/a.jpg,stim_02/b.jpg,2,1,j,0,20,20,14,j,1,1.39959065571,02,01,60.0269890145,PLT_learning_02,N,2014_Feb_27_1759,P17,
stim_fb/ques.jpg,stim_fb/posf.jpg,stim_fb/negf.jpg,stim_02/a.jpg,stim_02/b.jpg,2,1,j,0,21,21,18,j,1,1.38290985481,02,01,60.0269890145,PLT_learning_02,N,2014_Feb_27_1759,P17,
stim_fb/ques.jpg,stim_fb/negf.jpg,stim_fb/posf.jpg,stim_02/c.jpg,stim_02/d.jpg,2,2,j,0,22,22,31,f,0,1.16632793137,02,01,60.0269890145,PLT_learning_02,N,2014_Feb_27_1759,P17,
stim_fb/ques.jpg,stim_fb/negf.jpg,stim_fb/posf.jpg,stim_02/e.jpg,stim_02/f.jpg,2,3,j,0,23,23,52,j,1,1.0996840505,02,01,60.0269890145,PLT_learning_02,N,2014_Feb_27_1759,P17,
stim_fb/ques.jpg,stim_fb/negf.jpg,stim_fb/posf.jpg,stim_02/b.jpg,stim_02/a.jpg,1,1,f,0,24,24,3,f,1,1.34958871287,02,01,60.0269890145,PLT_learning_02,N,2014_Feb_27_1759,P17,
stim_fb/ques.jpg,stim_fb/negf.jpg,stim_fb/posf.jpg,stim_02/b.jpg,stim_02/a.jpg,1,1,f,0,25,25,0,j,0,1.24970784581,02,01,60.0269890145,PLT_learning_02,N,2014_Feb_27_1759,P17,
stim_fb/ques.jpg,stim_fb/negf.jpg,stim_fb/posf.jpg,stim_02/d.jpg,stim_02/c.jpg,1,2,f,0,26,26,23,f,1,1.59951715551,02,01,60.0269890145,PLT_learning_02,N,2014_Feb_27_1759,P17,
stim_fb/ques.jpg,stim_fb/posf.jpg,stim_fb/negf.jpg,stim_02/f.jpg,stim_02/e.jpg,1,3,f,0,27,27,46,f,1,0.949684354253,02,01,60.0269890145,PLT_learning_02,N,2014_Feb_27_1759,P17,
stim_fb/ques.jpg,stim_fb/negf.jpg,stim_fb/posf.jpg,stim_02/f.jpg,stim_02/e.jpg,1,3,f,0,28,28,42,j,0,0.899755421387,02,01,60.0269890145,PLT_learning_02,N,2014_Feb_27_1759,P17,
stim_fb/ques.jpg,stim_fb/negf.jpg,stim_fb/posf.jpg,stim_02/e.jpg,stim_02/f.jpg,2,3,j,0,29,29,55,j,1,0.999716922428,02,01,60.0269890145,PLT_learning_02,N,2014_Feb_27_1759,P17,
stim_fb/ques.jpg,stim_fb/negf.jpg,stim_fb/posf.jpg,stim_02/f.jpg,stim_02/e.jpg,1,3,f,0,30,30,40,f,1,0.999725316351,02,01,60.0269890145,PLT_learning_02,N,2014_Feb_27_1759,P17,
stim_fb/ques.jpg,stim_fb/negf.jpg,stim_fb/posf.jpg,stim_02/c.jpg,stim_02/d.jpg,2,2,j,0,31,31,32,f,0,0.983078196405,02,01,60.0269890145,PLT_learning_02,N,2014_Feb_27_1759,P17,
stim_fb/ques.jpg,stim_fb/negf.jpg,stim_fb/posf.jpg,stim_02/b.jpg,stim_02/a.jpg,1,1,f,0,32,32,1,j,0,1.04969956617,02,01,60.0269890145,PLT_learning_02,N,2014_Feb_27_1759,P17,
stim_fb/ques.jpg,stim_fb/negf.jpg,stim_fb/posf.jpg,stim_02/f.jpg,stim_02/e.jpg,1,3,f,0,33,33,43,f,1,1.11635333268,02,01,60.0269890145,PLT_learning_02,N,2014_Feb_27_1759,P17,
stim_fb/ques.jpg,stim_fb/negf.jpg,stim_fb/posf.jpg,stim_02/b.jpg,stim_02/a.jpg,1,1,f,0,34,34,4,f,1,1.34961144653,02,01,60.0269890145,PLT_learning_02,N,2014_Feb_27_1759,P17,
stim_fb/ques.jpg,stim_fb/negf.jpg,stim_fb/posf.jpg,stim_02/c.jpg,stim_02/d.jpg,2,2,j,0,35,35,34,j,1,1.39955683641,02,01,60.0269890145,PLT_learning_02,N,2014_Feb_27_1759,P17,
stim_fb/ques.jpg,stim_fb/posf.jpg,stim_fb/negf.jpg,stim_02/e.jpg,stim_02/f.jpg,2,3,j,0,36,36,59,f,0,1.11632622612,02,01,60.0269890145,PLT_learning_02,N,2014_Feb_27_1759,P17,
stim_fb/ques.jpg,stim_fb/negf.jpg,stim_fb/posf.jpg,stim_02/a.jpg,stim_02/b.jpg,2,1,j,0,37,37,15,j,1,0.916360989768,02,01,60.0269890145,PLT_learning_02,N,2014_Feb_27_1759,P17,
stim_fb/ques.jpg,stim_fb/posf.jpg,stim_fb/negf.jpg,stim_02/e.jpg,stim_02/f.jpg,2,3,j,0,38,38,56,f,0,0.999695506049,02,01,60.0269890145,PLT_learning_02,N,2014_Feb_27_1759,P17,
stim_fb/ques.jpg,stim_fb/negf.jpg,stim_fb/posf.jpg,stim_02/b.jpg,stim_02/a.jpg,1,1,f,0,39,39,2,f,1,1.06632671033,02,01,60.0269890145,PLT_learning_02,N,2014_Feb_27_1759,P17,
stim_fb/ques.jpg,stim_fb/negf.jpg,stim_fb/posf.jpg,stim_02/e.jpg,stim_02/f.jpg,2,3,j,0,40,40,53,f,0,1.36628051819,02,01,60.0269890145,PLT_learning_02,N,2014_Feb_27_1759,P17,
stim_fb/ques.jpg,stim_fb/negf.jpg,stim_fb/posf.jpg,stim_02/b.jpg,stim_02/a.jpg,1,1,f,0,41,41,5,j,0,1.21636814159,02,01,60.0269890145,PLT_learning_02,N,2014_Feb_27_1759,P17,
stim_fb/ques.jpg,stim_fb/negf.jpg,stim_fb/posf.jpg,stim_02/d.jpg,stim_02/c.jpg,1,2,f,0,42,42,24,f,1,0.783112099909,02,01,60.0269890145,PLT_learning_02,N,2014_Feb_27_1759,P17,
stim_fb/ques.jpg,stim_fb/negf.jpg,stim_fb/posf.jpg,stim_02/c.jpg,stim_02/d.jpg,2,2,j,0,43,43,30,j,1,0.799757066488,02,01,60.0269890145,PLT_learning_02,N,2014_Feb_27_1759,P17,
stim_fb/ques.jpg,stim_fb/negf.jpg,stim_fb/posf.jpg,stim_02/a.jpg,stim_02/b.jpg,2,1,j,0,44,44,16,j,1,1.01638097458,02,01,60.0269890145,PLT_learning_02,N,2014_Feb_27_1759,P17,
stim_fb/ques.jpg,stim_fb/negf.jpg,stim_fb/posf.jpg,stim_02/d.jpg,stim_02/c.jpg,1,2,f,0,45,45,21,f,1,1.08299017601,02,01,60.0269890145,PLT_learning_02,N,2014_Feb_27_1759,P17,
stim_fb/ques.jpg,stim_fb/posf.jpg,stim_fb/negf.jpg,stim_02/b.jpg,stim_02/a.jpg,1,1,f,0,46,46,9,f,1,0.833100054886,02,01,60.0269890145,PLT_learning_02,N,2014_Feb_27_1759,P17,
stim_fb/ques.jpg,stim_fb/negf.jpg,stim_fb/posf.jpg,stim_02/a.jpg,stim_02/b.jpg,2,1,j,0,47,47,13,j,1,1.06636273411,02,01,60.0269890145,PLT_learning_02,N,2014_Feb_27_1759,P17,
stim_fb/ques.jpg,stim_fb/negf.jpg,stim_fb/posf.jpg,stim_02/f.jpg,stim_02/e.jpg,1,3,f,0,48,48,44,j,0,1.09968740085,02,01,60.0269890145,PLT_learning_02,N,2014_Feb_27_1759,P17,
stim_fb/ques.jpg,stim_fb/posf.jpg,stim_fb/negf.jpg,stim_02/f.jpg,stim_02/e.jpg,1,3,f,0,49,49,49,f,1,0.983033883955,02,01,60.0269890145,PLT_learning_02,N,2014_Feb_27_1759,P17,
stim_fb/ques.jpg,stim_fb/negf.jpg,stim_fb/posf.jpg,stim_02/a.jpg,stim_02/b.jpg,2,1,j,0,50,50,11,j,1,0.999711929986,02,01,60.0269890145,PLT_learning_02,N,2014_Feb_27_1759,P17,
stim_fb/ques.jpg,stim_fb/posf.jpg,stim_fb/negf.jpg,stim_02/b.jpg,stim_02/a.jpg,1,1,f,0,51,51,8,f,1,0.88308065353,02,01,60.0269890145,PLT_learning_02,N,2014_Feb_27_1759,P17,
stim_fb/ques.jpg,stim_fb/posf.jpg,stim_fb/negf.jpg,stim_02/d.jpg,stim_02/c.jpg,1,2,f,0,52,52,29,f,1,0.916418508132,02,01,60.0269890145,PLT_learning_02,N,2014_Feb_27_1759,P17,
stim_fb/ques.jpg,stim_fb/negf.jpg,stim_fb/posf.jpg,stim_02/c.jpg,stim_02/d.jpg,2,2,j,0,53,53,33,j,1,0.749823390803,02,01,60.0269890145,PLT_learning_02,N,2014_Feb_27_1759,P17,
stim_fb/ques.jpg,stim_fb/negf.jpg,stim_fb/posf.jpg,stim_02/a.jpg,stim_02/b.jpg,2,1,j,0,54,54,12,j,1,0.883102521033,02,01,60.0269890145,PLT_learning_02,N,2014_Feb_27_1759,P17,
stim_fb/ques.jpg,stim_fb/posf.jpg,stim_fb/negf.jpg,stim_02/c.jpg,stim_02/d.jpg,2,2,j,0,55,55,37,j,1,0.799799303764,02,01,60.0269890145,PLT_learning_02,N,2014_Feb_27_1759,P17,
stim_fb/ques.jpg,stim_fb/negf.jpg,stim_fb/posf.jpg,stim_02/d.jpg,stim_02/c.jpg,1,2,f,0,56,56,22,f,1,0.783169994211,02,01,60.0269890145,PLT_learning_02,N,2014_Feb_27_1759,P17,
stim_fb/ques.jpg,stim_fb/negf.jpg,stim_fb/posf.jpg,stim_02/a.jpg,stim_02/b.jpg,2,1,j,0,57,57,10,j,1,0.983059318352,02,01,60.0269890145,PLT_learning_02,N,2014_Feb_27_1759,P17,
stim_fb/ques.jpg,stim_fb/posf.jpg,stim_fb/negf.jpg,stim_02/c.jpg,stim_02/d.jpg,2,2,j,0,58,58,39,j,1,1.24960329321,02,01,60.0269890145,PLT_learning_02,N,2014_Feb_27_1759,P17,
stim_fb/ques.jpg,stim_fb/posf.jpg,stim_fb/negf.jpg,stim_02/f.jpg,stim_02/e.jpg,1,3,f,0,59,59,47,j,0,1.2163616063,02,01,60.0269890145,PLT_learning_02,N,2014_Feb_27_1759,P17,
stim_fb/ques.jpg,stim_fb/negf.jpg,stim_fb/posf.jpg,stim_02/f.jpg,stim_02/e.jpg,1,3,f,1,0,60,41,f,1,0.716481695626,02,01,60.0269890145,PLT_learning_02,N,2014_Feb_27_1759,P17,
stim_fb/ques.jpg,stim_fb/negf.jpg,stim_fb/posf.jpg,stim_02/b.jpg,stim_02/a.jpg,1,1,f,1,1,61,4,f,1,0.783131429087,02,01,60.0269890145,PLT_learning_02,N,2014_Feb_27_1759,P17,
stim_fb/ques.jpg,stim_fb/negf.jpg,stim_fb/posf.jpg,stim_02/a.jpg,stim_02/b.jpg,2,1,j,1,2,62,12,j,1,0.916420688567,02,01,60.0269890145,PLT_learning_02,N,2014_Feb_27_1759,P17,
stim_fb/ques.jpg,stim_fb/posf.jpg,stim_fb/negf.jpg,stim_02/b.jpg,stim_02/a.jpg,1,1,f,1,3,63,8,f,1,0.716473244562,02,01,60.0269890145,PLT_learning_02,N,2014_Feb_27_1759,P17,
stim_fb/ques.jpg,stim_fb/negf.jpg,stim_fb/posf.jpg,stim_02/c.jpg,stim_02/d.jpg,2,2,j,1,4,64,33,j,1,0.833110929992,02,01,60.0269890145,PLT_learning_02,N,2014_Feb_27_1759,P17,
stim_fb/ques.jpg,stim_fb/negf.jpg,stim_fb/posf.jpg,stim_02/d.jpg,stim_02/c.jpg,1,2,f,1,5,65,21,j,0,1.1330209427,02,01,60.0269890145,PLT_learning_02,N,2014_Feb_27_1759,P17,
stim_fb/ques.jpg,stim_fb/negf.jpg,stim_fb/posf.jpg,stim_02/c.jpg,stim_02/d.jpg,2,2,j,1,6,66,30,j,1,0.98303886437,02,01,60.0269890145,PLT_learning_02,N,2014_Feb_27_1759,P17,
stim_fb/ques.jpg,stim_fb/negf.jpg,stim_fb/posf.jpg,stim_02/f.jpg,stim_02/e.jpg,1,3,f,1,7,67,42,f,1,1.03305174848,02,01,60.0269890145,PLT_learning_02,N,2014_Feb_27_1759,P17,
stim_fb/ques.jpg,stim_fb/negf.jpg,stim_fb/posf.jpg,stim_02/c.jpg,stim_02/d.jpg,2,2,j,1,8,68,34,j,1,0.716494745151,02,01,60.0269890145,PLT_learning_02,N,2014_Feb_27_1759,P17,
stim_fb/ques.jpg,stim_fb/negf.jpg,stim_fb/posf.jpg,stim_02/a.jpg,stim_02/b.jpg,2,1,j,1,9,69,14,j,1,0.916430216315,02,01,60.0269890145,PLT_learning_02,N,2014_Feb_27_1759,P17,
stim_fb/ques.jpg,stim_fb/posf.jpg,stim_fb/negf.jpg,stim_02/f.jpg,stim_02/e.jpg,1,3,f,1,10,70,46,f,1,1.08304825377,02,01,60.0269890145,PLT_learning_02,N,2014_Feb_27_1759,P17,
stim_fb/ques.jpg,stim_fb/posf.jpg,stim_fb/negf.jpg,stim_02/f.jpg,stim_02/e.jpg,1,3,f,1,11,71,48,j,0,0.733142932759,02,01,60.0269890145,PLT_learning_02,N,2014_Feb_27_1759,P17,
stim_fb/ques.jpg,stim_fb/posf.jpg,stim_fb/negf.jpg,stim_02/e.jpg,stim_02/f.jpg,2,3,j,1,12,72,58,j,1,0.816444417711,02,01,60.0269890145,PLT_learning_02,N,2014_Feb_27_1759,P17,
stim_fb/ques.jpg,stim_fb/negf.jpg,stim_fb/posf.jpg,stim_02/e.jpg,stim_02/f.jpg,2,3,j,1,13,73,50,f,0,0.766445172594,02,01,60.0269890145,PLT_learning_02,N,2014_Feb_27_1759,P17,
stim_fb/ques.jpg,stim_fb/posf.jpg,stim_fb/negf.jpg,stim_02/f.jpg,stim_02/e.jpg,1,3,f,1,14,74,47,j,0,0.866420517139,02,01,60.0269890145,PLT_learning_02,N,2014_Feb_27_1759,P17,
stim_fb/ques.jpg,stim_fb/posf.jpg,stim_fb/negf.jpg,stim_02/e.jpg,stim_02/f.jpg,2,3,j,1,15,75,56,f,0,0.933085721159,02,01,60.0269890145,PLT_learning_02,N,2014_Feb_27_1759,P17,
stim_fb/ques.jpg,stim_fb/posf.jpg,stim_fb/negf.jpg,stim_02/f.jpg,stim_02/e.jpg,1,3,f,1,16,76,49,j,0,0.866442748551,02,01,60.0269890145,PLT_learning_02,N,2014_Feb_27_1759,P17,
stim_fb/ques.jpg,stim_fb/posf.jpg,stim_fb/negf.jpg,stim_02/b.jpg,stim_02/a.jpg,1,1,f,1,17,77,9,f,1,0.833134517787,02,01,60.0269890145,PLT_learning_02,N,2014_Feb_27_1759,P17,
stim_fb/ques.jpg,stim_fb/negf.jpg,stim_fb/posf.jpg,stim_02/d.jpg,stim_02/c.jpg,1,2,f,1,18,78,26,f,1,0.683149606395,02,01,60.0269890145,PLT_learning_02,N,2014_Feb_27_1759,P17,
stim_fb/ques.jpg,stim_fb/posf.jpg,stim_fb/negf.jpg,stim_02/a.jpg,stim_02/b.jpg,2,1,j,1,19,79,18,j,1,0.849785297854,02,01,60.0269890145,PLT_learning_02,N,2014_Feb_27_1759,P17,
stim_fb/ques.jpg,stim_fb/posf.jpg,stim_fb/negf.jpg,stim_02/e.jpg,stim_02/f.jpg,2,3,j,1,20,80,59,f,0,1.06632417801,02,01,60.0269890145,PLT_learning_02,N,2014_Feb_27_1759,P17,
stim_fb/ques.jpg,stim_fb/negf.jpg,stim_fb/posf.jpg,stim_02/b.jpg,stim_02/a.jpg,1,1,f,1,21,81,3,j,0,0.949708369109,02,01,60.0269890145,PLT_learning_02,N,2014_Feb_27_1759,P17,
stim_fb/ques.jpg,stim_fb/negf.jpg,stim_fb/posf.jpg,stim_02/b.jpg,stim_02/a.jpg,1,1,f,1,22,82,1,f,1,0.799787971519,02,01,60.0269890145,PLT_learning_02,N,2014_Feb_27_1759,P17,
stim_fb/ques.jpg,stim_fb/negf.jpg,stim_fb/posf.jpg,stim_02/a.jpg,stim_02/b.jpg,2,1,j,1,23,83,11,f,0,0.916385687326,02,01,60.0269890145,PLT_learning_02,N,2014_Feb_27_1759,P17,
stim_fb/ques.jpg,stim_fb/negf.jpg,stim_fb/posf.jpg,stim_02/b.jpg,stim_02/a.jpg,1,1,f,1,24,84,7,f,1,0.999710272856,02,01,60.0269890145,PLT_learning_02,N,2014_Feb_27_1759,P17,
stim_fb/ques.jpg,stim_fb/negf.jpg,stim_fb/posf.jpg,stim_02/e.jpg,stim_02/f.jpg,2,3,j,1,25,85,53,f,0,1.03303433809,02,01,60.0269890145,PLT_learning_02,N,2014_Feb_27_1759,P17,
stim_fb/ques.jpg,stim_fb/negf.jpg,stim_fb/posf.jpg,stim_02/c.jpg,stim_02/d.jpg,2,2,j,1,26,86,35,j,1,0.716528182495,02,01,60.0269890145,PLT_learning_02,N,2014_Feb_27_1759,P17,
stim_fb/ques.jpg,stim_fb/negf.jpg,stim_fb/posf.jpg,stim_02/c.jpg,stim_02/d.jpg,2,2,j,1,27,87,31,j,1,0.78316916414,02,01,60.0269890145,PLT_learning_02,N,2014_Feb_27_1759,P17,
stim_fb/ques.jpg,stim_fb/negf.jpg,stim_fb/posf.jpg,stim_02/b.jpg,stim_02/a.jpg,1,1,f,1,28,88,0,f,1,0.999717569041,02,01,60.0269890145,PLT_learning_02,N,2014_Feb_27_1759,P17,
stim_fb/ques.jpg,stim_fb/posf.jpg,stim_fb/negf.jpg,stim_02/c.jpg,stim_02/d.jpg,2,2,j,1,29,89,39,j,1,0.783137083181,02,01,60.0269890145,PLT_learning_02,N,2014_Feb_27_1759,P17,
stim_fb/ques.jpg,stim_fb/posf.jpg,stim_fb/negf.jpg,stim_02/a.jpg,stim_02/b.jpg,2,1,j,1,30,90,19,f,0,0.833083922678,02,01,60.0269890145,PLT_learning_02,N,2014_Feb_27_1759,P17,
stim_fb/ques.jpg,stim_fb/negf.jpg,stim_fb/posf.jpg,stim_02/a.jpg,stim_02/b.jpg,2,1,j,1,31,91,13,j,1,0.899769370155,02,01,60.0269890145,PLT_learning_02,N,2014_Feb_27_1759,P17,
stim_fb/ques.jpg,stim_fb/negf.jpg,stim_fb/posf.jpg,stim_02/d.jpg,stim_02/c.jpg,1,2,f,1,32,92,23,f,1,1.06636350103,02,01,60.0269890145,PLT_learning_02,N,2014_Feb_27_1759,P17,
stim_fb/ques.jpg,stim_fb/negf.jpg,stim_fb/posf.jpg,stim_02/b.jpg,stim_02/a.jpg,1,1,f,1,33,93,5,j,0,1.14967722649,02,01,60.0269890145,PLT_learning_02,N,2014_Feb_27_1759,P17,
stim_fb/ques.jpg,stim_fb/negf.jpg,stim_fb/posf.jpg,stim_02/e.jpg,stim_02/f.jpg,2,3,j,1,34,94,51,f,0,0.933045225225,02,01,60.0269890145,PLT_learning_02,N,2014_Feb_27_1759,P17,
stim_fb/ques.jpg,stim_fb/posf.jpg,stim_fb/negf.jpg,stim_02/c.jpg,stim_02/d.jpg,2,2,j,1,35,95,38,j,1,0.699831905024,02,01,60.0269890145,PLT_learning_02,N,2014_Feb_27_1759,P17,
stim_fb/ques.jpg,stim_fb/negf.jpg,stim_fb/posf.jpg,stim_02/b.jpg,stim_02/a.jpg,1,1,f,1,36,96,6,j,0,1.03299093691,02,01,60.0269890145,PLT_learning_02,N,2014_Feb_27_1759,P17,
stim_fb/ques.jpg,stim_fb/posf.jpg,stim_fb/negf.jpg,stim_02/d.jpg,stim_02/c.jpg,1,2,f,1,37,97,28,f,1,0.666522753963,02,01,60.0269890145,PLT_learning_02,N,2014_Feb_27_1759,P17,
stim_fb/ques.jpg,stim_fb/negf.jpg,stim_fb/posf.jpg,stim_02/e.jpg,stim_02/f.jpg,2,3,j,1,38,98,55,j,1,0.849764398765,02,01,60.0269890145,PLT_learning_02,N,2014_Feb_27_1759,P17,
stim_fb/ques.jpg,stim_fb/negf.jpg,stim_fb/posf.jpg,stim_02/a.jpg,stim_02/b.jpg,2,1,j,1,39,99,15,j,1,0.949728456177,02,01,60.0269890145,PLT_learning_02,N,2014_Feb_27_1759,P17,
stim_fb/ques.jpg,stim_fb/negf.jpg,stim_fb/posf.jpg,stim_02/a.jpg,stim_02/b.jpg,2,1,j,1,40,100,10,j,1,0.883091170743,02,01,60.0269890145,PLT_learning_02,N,2014_Feb_27_1759,P17,
stim_fb/ques.jpg,stim_fb/negf.jpg,stim_fb/posf.jpg,stim_02/c.jpg,stim_02/d.jpg,2,2,j,1,41,101,36,j,1,0.733146686116,02,01,60.0269890145,PLT_learning_02,N,2014_Feb_27_1759,P17,
stim_fb/ques.jpg,stim_fb/negf.jpg,stim_fb/posf.jpg,stim_02/e.jpg,stim_02/f.jpg,2,3,j,1,42,102,52,f,0,0.816488233922,02,01,60.0269890145,PLT_learning_02,N,2014_Feb_27_1759,P17,
stim_fb/ques.jpg,stim_fb/posf.jpg,stim_fb/negf.jpg,stim_02/c.jpg,stim_02/d.jpg,2,2,j,1,43,103,37,j,1,0.699827556184,02,01,60.0269890145,PLT_learning_02,N,2014_Feb_27_1759,P17,
stim_fb/ques.jpg,stim_fb/posf.jpg,stim_fb/negf.jpg,stim_02/d.jpg,stim_02/c.jpg,1,2,f,1,44,104,29,f,1,0.716413482605,02,01,60.0269890145,PLT_learning_02,N,2014_Feb_27_1759,P17,
stim_fb/ques.jpg,stim_fb/negf.jpg,stim_fb/posf.jpg,stim_02/d.jpg,stim_02/c.jpg,1,2,f,1,45,105,22,j,0,0.633161780739,02,01,60.0269890145,PLT_learning_02,N,2014_Feb_27_1759,P17,
stim_fb/ques.jpg,stim_fb/negf.jpg,stim_fb/posf.jpg,stim_02/d.jpg,stim_02/c.jpg,1,2,f,1,46,106,20,f,1,0.666476423485,02,01,60.0269890145,PLT_learning_02,N,2014_Feb_27_1759,P17,
stim_fb/ques.jpg,stim_fb/negf.jpg,stim_fb/posf.jpg,stim_02/f.jpg,stim_02/e.jpg,1,3,f,1,47,107,44,j,0,0.783129624589,02,01,60.0269890145,PLT_learning_02,N,2014_Feb_27_1759,P17,
stim_fb/ques.jpg,stim_fb/negf.jpg,stim_fb/posf.jpg,stim_02/c.jpg,stim_02/d.jpg,2,2,j,1,48,108,32,f,0,1.11635541387,02,01,60.0269890145,PLT_learning_02,N,2014_Feb_27_1759,P17,
stim_fb/ques.jpg,stim_fb/posf.jpg,stim_fb/negf.jpg,stim_02/d.jpg,stim_02/c.jpg,1,2,f,1,49,109,27,f,1,0.98305699957,02,01,60.0269890145,PLT_learning_02,N,2014_Feb_27_1759,P17,
stim_fb/ques.jpg,stim_fb/negf.jpg,stim_fb/posf.jpg,stim_02/a.jpg,stim_02/b.jpg,2,1,j,1,50,110,17,f,0,0.883087264005,02,01,60.0269890145,PLT_learning_02,N,2014_Feb_27_1759,P17,
stim_fb/ques.jpg,stim_fb/negf.jpg,stim_fb/posf.jpg,stim_02/b.jpg,stim_02/a.jpg,1,1,f,1,51,111,2,f,1,0.899750110149,02,01,60.0269890145,PLT_learning_02,N,2014_Feb_27_1759,P17,
stim_fb/ques.jpg,stim_fb/negf.jpg,stim_fb/posf.jpg,stim_02/d.jpg,stim_02/c.jpg,1,2,f,1,52,112,24,j,0,0.783115630711,02,01,60.0269890145,PLT_learning_02,N,2014_Feb_27_1759,P17,
stim_fb/ques.jpg,stim_fb/negf.jpg,stim_fb/posf.jpg,stim_02/f.jpg,stim_02/e.jpg,1,3,f,1,53,113,43,j,0,0.866415569808,02,01,60.0269890145,PLT_learning_02,N,2014_Feb_27_1759,P17,
stim_fb/ques.jpg,stim_fb/negf.jpg,stim_fb/posf.jpg,stim_02/e.jpg,stim_02/f.jpg,2,3,j,1,54,114,54,f,0,0.783118984067,02,01,60.0269890145,PLT_learning_02,N,2014_Feb_27_1759,P17,
stim_fb/ques.jpg,stim_fb/negf.jpg,stim_fb/posf.jpg,stim_02/d.jpg,stim_02/c.jpg,1,2,f,1,55,115,25,j,0,0.799788765498,02,01,60.0269890145,PLT_learning_02,N,2014_Feb_27_1759,P17,
stim_fb/ques.jpg,stim_fb/negf.jpg,stim_fb/posf.jpg,stim_02/f.jpg,stim_02/e.jpg,1,3,f,1,56,116,45,j,0,0.949715581086,02,01,60.0269890145,PLT_learning_02,N,2014_Feb_27_1759,P17,
stim_fb/ques.jpg,stim_fb/negf.jpg,stim_fb/posf.jpg,stim_02/f.jpg,stim_02/e.jpg,1,3,f,1,57,117,40,f,1,0.74972924414,02,01,60.0269890145,PLT_learning_02,N,2014_Feb_27_1759,P17,
stim_fb/ques.jpg,stim_fb/posf.jpg,stim_fb/negf.jpg,stim_02/e.jpg,stim_02/f.jpg,2,3,j,1,58,118,57,j,1,0.816441825249,02,01,60.0269890145,PLT_learning_02,N,2014_Feb_27_1759,P17,
stim_fb/ques.jpg,stim_fb/negf.jpg,stim_fb/posf.jpg,stim_02/a.jpg,stim_02/b.jpg,2,1,j,1,59,119,16,None,0,,02,01,60.0269890145,PLT_learning_02,N,2014_Feb_27_1759,P17,
stim_fb/ques.jpg,stim_fb/posf.jpg,stim_fb/negf.jpg,stim_02/d.jpg,stim_02/c.jpg,1,2,f,2,0,120,28,f,1,0.749801526305,02,01,60.0269890145,PLT_learning_02,N,2014_Feb_27_1759,P17,
stim_fb/ques.jpg,stim_fb/posf.jpg,stim_fb/negf.jpg,stim_02/d.jpg,stim_02/c.jpg,1,2,f,2,1,121,29,j,0,0.683070422027,02,01,60.0269890145,PLT_learning_02,N,2014_Feb_27_1759,P17,
stim_fb/ques.jpg,stim_fb/posf.jpg,stim_fb/negf.jpg,stim_02/f.jpg,stim_02/e.jpg,1,3,f,2,2,122,49,f,1,0.849765607778,02,01,60.0269890145,PLT_learning_02,N,2014_Feb_27_1759,P17,
stim_fb/ques.jpg,stim_fb/negf.jpg,stim_fb/posf.jpg,stim_02/f.jpg,stim_02/e.jpg,1,3,f,2,3,123,45,j,0,0.599837035812,02,01,60.0269890145,PLT_learning_02,N,2014_Feb_27_1759,P17,
stim_fb/ques.jpg,stim_fb/negf.jpg,stim_fb/posf.jpg,stim_02/c.jpg,stim_02/d.jpg,2,2,j,2,4,124,35,f,0,0.816437927533,02,01,60.0269890145,PLT_learning_02,N,2014_Feb_27_1759,P17,
stim_fb/ques.jpg,stim_fb/posf.jpg,stim_fb/negf.jpg,stim_02/e.jpg,stim_02/f.jpg,2,3,j,2,5,125,56,j,1,0.733153052985,02,01,60.0269890145,PLT_learning_02,N,2014_Feb_27_1759,P17,
stim_fb/ques.jpg,stim_fb/posf.jpg,stim_fb/negf.jpg,stim_02/c.jpg,stim_02/d.jpg,2,2,j,2,6,126,39,f,0,0.633192586522,02,01,60.0269890145,PLT_learning_02,N,2014_Feb_27_1759,P17,
stim_fb/ques.jpg,stim_fb/negf.jpg,stim_fb/posf.jpg,stim_02/a.jpg,stim_02/b.jpg,2,1,j,2,7,127,11,j,1,0.683160607816,02,01,60.0269890145,PLT_learning_02,N,2014_Feb_27_1759,P17,
stim_fb/ques.jpg,stim_fb/posf.jpg,stim_fb/negf.jpg,stim_02/f.jpg,stim_02/e.jpg,1,3,f,2,8,128,48,f,1,0.649843697416,02,01,60.0269890145,PLT_learning_02,N,2014_Feb_27_1759,P17,
stim_fb/ques.jpg,stim_fb/negf.jpg,stim_fb/posf.jpg,stim_02/a.jpg,stim_02/b.jpg,2,1,j,2,9,129,15,j,1,0.649835926046,02,01,60.0269890145,PLT_learning_02,N,2014_Feb_27_1759,P17,
stim_fb/ques.jpg,stim_fb/negf.jpg,stim_fb/posf.jpg,stim_02/c.jpg,stim_02/d.jpg,2,2,j,2,10,130,31,f,0,0.799950475561,02,01,60.0269890145,PLT_learning_02,N,2014_Feb_27_1759,P17,
stim_fb/ques.jpg,stim_fb/posf.jpg,stim_fb/negf.jpg,stim_02/c.jpg,stim_02/d.jpg,2,2,j,2,11,131,38,j,1,0.566530140375,02,01,60.0269890145,PLT_learning_02,N,2014_Feb_27_1759,P17,
stim_fb/ques.jpg,stim_fb/negf.jpg,stim_fb/posf.jpg,stim_02/b.jpg,stim_02/a.jpg,1,1,f,2,12,132,2,f,1,0.68316529951,02,01,60.0269890145,PLT_learning_02,N,2014_Feb_27_1759,P17,
stim_fb/ques.jpg,stim_fb/negf.jpg,stim_fb/posf.jpg,stim_02/a.jpg,stim_02/b.jpg,2,1,j,2,13,133,17,j,1,0.849759938648,02,01,60.0269890145,PLT_learning_02,N,2014_Feb_27_1759,P17,
stim_fb/ques.jpg,stim_fb/negf.jpg,stim_fb/posf.jpg,stim_02/e.jpg,stim_02/f.jpg,2,3,j,2,14,134,50,f,0,1.03301851866,02,01,60.0269890145,PLT_learning_02,N,2014_Feb_27_1759,P17,
stim_fb/ques.jpg,stim_fb/negf.jpg,stim_fb/posf.jpg,stim_02/a.jpg,stim_02/b.jpg,2,1,j,2,15,135,13,j,1,0.883059453688,02,01,60.0269890145,PLT_learning_02,N,2014_Feb_27_1759,P17,
stim_fb/ques.jpg,stim_fb/posf.jpg,stim_fb/negf.jpg,stim_02/e.jpg,stim_02/f.jpg,2,3,j,2,16,136,57,f,0,1.01638083623,02,01,60.0269890145,PLT_learning_02,N,2014_Feb_27_1759,P17,
stim_fb/ques.jpg,stim_fb/negf.jpg,stim_fb/posf.jpg,stim_02/b.jpg,stim_02/a.jpg,1,1,f,2,17,137,5,f,1,0.733145567327,02,01,60.0269890145,PLT_learning_02,N,2014_Feb_27_1759,P17,
stim_fb/ques.jpg,stim_fb/posf.jpg,stim_fb/negf.jpg,stim_02/c.jpg,stim_02/d.jpg,2,2,j,2,18,138,37,j,1,0.733143266592,02,01,60.0269890145,PLT_learning_02,N,2014_Feb_27_1759,P17,
stim_fb/ques.jpg,stim_fb/negf.jpg,stim_fb/posf.jpg,stim_02/c.jpg,stim_02/d.jpg,2,2,j,2,19,139,32,f,0,1.04970191202,02,01,60.0269890145,PLT_learning_02,N,2014_Feb_27_1759,P17,
stim_fb/ques.jpg,stim_fb/negf.jpg,stim_fb/posf.jpg,stim_02/a.jpg,stim_02/b.jpg,2,1,j,2,20,140,12,j,1,0.683159774739,02,01,60.0269890145,PLT_learning_02,N,2014_Feb_27_1759,P17,
stim_fb/ques.jpg,stim_fb/negf.jpg,stim_fb/posf.jpg,stim_02/e.jpg,stim_02/f.jpg,2,3,j,2,21,141,53,f,0,1.16634337787,02,01,60.0269890145,PLT_learning_02,N,2014_Feb_27_1759,P17,
stim_fb/ques.jpg,stim_fb/negf.jpg,stim_fb/posf.jpg,stim_02/b.jpg,stim_02/a.jpg,1,1,f,2,22,142,4,f,1,0.666538197458,02,01,60.0269890145,PLT_learning_02,N,2014_Feb_27_1759,P17,
stim_fb/ques.jpg,stim_fb/negf.jpg,stim_fb/posf.jpg,stim_02/f.jpg,stim_02/e.jpg,1,3,f,2,23,143,41,j,0,0.683129892255,02,01,60.0269890145,PLT_learning_02,N,2014_Feb_27_1759,P17,
stim_fb/ques.jpg,stim_fb/negf.jpg,stim_fb/posf.jpg,stim_02/f.jpg,stim_02/e.jpg,1,3,f,2,24,144,43,f,1,0.949697842874,02,01,60.0269890145,PLT_learning_02,N,2014_Feb_27_1759,P17,
stim_fb/ques.jpg,stim_fb/negf.jpg,stim_fb/posf.jpg,stim_02/f.jpg,stim_02/e.jpg,1,3,f,2,25,145,42,f,1,0.733114830715,02,01,60.0269890145,PLT_learning_02,N,2014_Feb_27_1759,P17,
stim_fb/ques.jpg,stim_fb/posf.jpg,stim_fb/negf.jpg,stim_02/b.jpg,stim_02/a.jpg,1,1,f,2,26,146,8,f,1,0.716474276132,02,01,60.0269890145,PLT_learning_02,N,2014_Feb_27_1759,P17,
stim_fb/ques.jpg,stim_fb/negf.jpg,stim_fb/posf.jpg,stim_02/c.jpg,stim_02/d.jpg,2,2,j,2,27,147,33,f,0,0.91637375358,02,01,60.0269890145,PLT_learning_02,N,2014_Feb_27_1759,P17,
stim_fb/ques.jpg,stim_fb/negf.jpg,stim_fb/posf.jpg,stim_02/d.jpg,stim_02/c.jpg,1,2,f,2,28,148,25,j,0,0.733201178939,02,01,60.0269890145,PLT_learning_02,N,2014_Feb_27_1759,P17,
stim_fb/ques.jpg,stim_fb/negf.jpg,stim_fb/posf.jpg,stim_02/d.jpg,stim_02/c.jpg,1,2,f,2,29,149,22,f,1,0.583154658987,02,01,60.0269890145,PLT_learning_02,N,2014_Feb_27_1759,P17,
stim_fb/ques.jpg,stim_fb/posf.jpg,stim_fb/negf.jpg,stim_02/b.jpg,stim_02/a.jpg,1,1,f,2,30,150,9,f,1,0.966412802913,02,01,60.0269890145,PLT_learning_02,N,2014_Feb_27_1759,P17,
stim_fb/ques.jpg,stim_fb/posf.jpg,stim_fb/negf.jpg,stim_02/f.jpg,stim_02/e.jpg,1,3,f,2,31,151,47,j,0,0.933081706153,02,01,60.0269890145,PLT_learning_02,N,2014_Feb_27_1759,P17,
stim_fb/ques.jpg,stim_fb/negf.jpg,stim_fb/posf.jpg,stim_02/d.jpg,stim_02/c.jpg,1,2,f,2,32,152,21,j,0,1.16631344727,02,01,60.0269890145,PLT_learning_02,N,2014_Feb_27_1759,P17,
stim_fb/ques.jpg,stim_fb/posf.jpg,stim_fb/negf.jpg,stim_02/a.jpg,stim_02/b.jpg,2,1,j,2,33,153,18,f,0,0.649819192338,02,01,60.0269890145,PLT_learning_02,N,2014_Feb_27_1759,P17,
stim_fb/ques.jpg,stim_fb/posf.jpg,stim_fb/negf.jpg,stim_02/f.jpg,stim_02/e.jpg,1,3,f,2,34,154,46,j,0,0.966379443762,02,01,60.0269890145,PLT_learning_02,N,2014_Feb_27_1759,P17,
stim_fb/ques.jpg,stim_fb/negf.jpg,stim_fb/posf.jpg,stim_02/b.jpg,stim_02/a.jpg,1,1,f,2,35,155,3,f,1,0.63318781964,02,01,60.0269890145,PLT_learning_02,N,2014_Feb_27_1759,P17,
stim_fb/ques.jpg,stim_fb/negf.jpg,stim_fb/posf.jpg,stim_02/c.jpg,stim_02/d.jpg,2,2,j,2,36,156,34,f,0,0.799754768761,02,01,60.0269890145,PLT_learning_02,N,2014_Feb_27_1759,P17,
stim_fb/ques.jpg,stim_fb/negf.jpg,stim_fb/posf.jpg,stim_02/d.jpg,stim_02/c.jpg,1,2,f,2,37,157,24,j,0,0.599885423419,02,01,60.0269890145,PLT_learning_02,N,2014_Feb_27_1759,P17,
stim_fb/ques.jpg,stim_fb/negf.jpg,stim_fb/posf.jpg,stim_02/d.jpg,stim_02/c.jpg,1,2,f,2,38,158,26,f,1,0.583180120449,02,01,60.0269890145,PLT_learning_02,N,2014_Feb_27_1759,P17,
stim_fb/ques.jpg,stim_fb/posf.jpg,stim_fb/negf.jpg,stim_02/e.jpg,stim_02/f.jpg,2,3,j,2,39,159,59,j,1,0.966400514282,02,01,60.0269890145,PLT_learning_02,N,2014_Feb_27_1759,P17,
stim_fb/ques.jpg,stim_fb/negf.jpg,stim_fb/posf.jpg,stim_02/c.jpg,stim_02/d.jpg,2,2,j,2,40,160,30,f,0,0.933070043082,02,01,60.0269890145,PLT_learning_02,N,2014_Feb_27_1759,P17,
stim_fb/ques.jpg,stim_fb/negf.jpg,stim_fb/posf.jpg,stim_02/b.jpg,stim_02/a.jpg,1,1,f,2,41,161,6,f,1,0.766466264162,02,01,60.0269890145,PLT_learning_02,N,2014_Feb_27_1759,P17,
stim_fb/ques.jpg,stim_fb/negf.jpg,stim_fb/posf.jpg,stim_02/a.jpg,stim_02/b.jpg,2,1,j,2,42,162,10,j,1,0.549877582876,02,01,60.0269890145,PLT_learning_02,N,2014_Feb_27_1759,P17,
stim_fb/ques.jpg,stim_fb/negf.jpg,stim_fb/posf.jpg,stim_02/e.jpg,stim_02/f.jpg,2,3,j,2,43,163,54,j,1,0.766453479297,02,01,60.0269890145,PLT_learning_02,N,2014_Feb_27_1759,P17,
stim_fb/ques.jpg,stim_fb/negf.jpg,stim_fb/posf.jpg,stim_02/c.jpg,stim_02/d.jpg,2,2,j,2,44,164,36,j,1,1.03305213043,02,01,60.0269890145,PLT_learning_02,N,2014_Feb_27_1759,P17,
stim_fb/ques.jpg,stim_fb/negf.jpg,stim_fb/posf.jpg,stim_02/f.jpg,stim_02/e.jpg,1,3,f,2,45,165,40,f,1,0.899735908753,02,01,60.0269890145,PLT_learning_02,N,2014_Feb_27_1759,P17,
stim_fb/ques.jpg,stim_fb/negf.jpg,stim_fb/posf.jpg,stim_02/a.jpg,stim_02/b.jpg,2,1,j,2,46,166,16,j,1,0.899722308854,02,01,60.0269890145,PLT_learning_02,N,2014_Feb_27_1759,P17,
stim_fb/ques.jpg,stim_fb/negf.jpg,stim_fb/posf.jpg,stim_02/b.jpg,stim_02/a.jpg,1,1,f,2,47,167,7,f,1,0.583195344396,02,01,60.0269890145,PLT_learning_02,N,2014_Feb_27_1759,P17,
stim_fb/ques.jpg,stim_fb/posf.jpg,stim_fb/negf.jpg,stim_02/e.jpg,stim_02/f.jpg,2,3,j,2,48,168,58,j,1,0.783087224909,02,01,60.0269890145,PLT_learning_02,N,2014_Feb_27_1759,P17,
stim_fb/ques.jpg,stim_fb/negf.jpg,stim_fb/posf.jpg,stim_02/b.jpg,stim_02/a.jpg,1,1,f,2,49,169,1,f,1,0.616512742008,02,01,60.0269890145,PLT_learning_02,N,2014_Feb_27_1759,P17,
stim_fb/ques.jpg,stim_fb/posf.jpg,stim_fb/negf.jpg,stim_02/d.jpg,stim_02/c.jpg,1,2,f,2,50,170,27,j,0,0.749797601522,02,01,60.0269890145,PLT_learning_02,N,2014_Feb_27_1759,P17,
stim_fb/ques.jpg,stim_fb/negf.jpg,stim_fb/posf.jpg,stim_02/e.jpg,stim_02/f.jpg,2,3,j,2,51,171,51,j,1,1.03302717423,02,01,60.0269890145,PLT_learning_02,N,2014_Feb_27_1759,P17,
stim_fb/ques.jpg,stim_fb/negf.jpg,stim_fb/posf.jpg,stim_02/a.jpg,stim_02/b.jpg,2,1,j,2,52,172,14,j,1,0.666487187314,02,01,60.0269890145,PLT_learning_02,N,2014_Feb_27_1759,P17,
stim_fb/ques.jpg,stim_fb/negf.jpg,stim_fb/posf.jpg,stim_02/e.jpg,stim_02/f.jpg,2,3,j,2,53,173,55,j,1,0.716475449057,02,01,60.0269890145,PLT_learning_02,N,2014_Feb_27_1759,P17,
stim_fb/ques.jpg,stim_fb/posf.jpg,stim_fb/negf.jpg,stim_02/a.jpg,stim_02/b.jpg,2,1,j,2,54,174,19,j,1,0.716508191668,02,01,60.0269890145,PLT_learning_02,N,2014_Feb_27_1759,P17,
stim_fb/ques.jpg,stim_fb/negf.jpg,stim_fb/posf.jpg,stim_02/e.jpg,stim_02/f.jpg,2,3,j,2,55,175,52,j,1,0.883083399372,02,01,60.0269890145,PLT_learning_02,N,2014_Feb_27_1759,P17,
stim_fb/ques.jpg,stim_fb/negf.jpg,stim_fb/posf.jpg,stim_02/b.jpg,stim_02/a.jpg,1,1,f,2,56,176,0,f,1,0.649836389199,02,01,60.0269890145,PLT_learning_02,N,2014_Feb_27_1759,P17,
stim_fb/ques.jpg,stim_fb/negf.jpg,stim_fb/posf.jpg,stim_02/d.jpg,stim_02/c.jpg,1,2,f,2,57,177,20,j,0,0.949798560912,02,01,60.0269890145,PLT_learning_02,N,2014_Feb_27_1759,P17,
stim_fb/ques.jpg,stim_fb/negf.jpg,stim_fb/posf.jpg,stim_02/d.jpg,stim_02/c.jpg,1,2,f,2,58,178,23,f,1,0.683161191269,02,01,60.0269890145,PLT_learning_02,N,2014_Feb_27_1759,P17,
stim_fb/ques.jpg,stim_fb/negf.jpg,stim_fb/posf.jpg,stim_02/f.jpg,stim_02/e.jpg,1,3,f,2,59,179,44,f,1,0.666471175404,02,01,60.0269890145,PLT_learning_02,N,2014_Feb_27_1759,P17,
stim_fb/ques.jpg,stim_fb/posf.jpg,stim_fb/negf.jpg,stim_02/f.jpg,stim_02/e.jpg,1,3,f,3,0,180,48,f,1,0.683142171863,02,01,60.0269890145,PLT_learning_02,N,2014_Feb_27_1759,P17,
stim_fb/ques.jpg,stim_fb/negf.jpg,stim_fb/posf.jpg,stim_02/c.jpg,stim_02/d.jpg,2,2,j,3,1,181,36,f,0,0.949753830422,02,01,60.0269890145,PLT_learning_02,N,2014_Feb_27_1759,P17,
stim_fb/ques.jpg,stim_fb/negf.jpg,stim_fb/posf.jpg,stim_02/c.jpg,stim_02/d.jpg,2,2,j,3,2,182,33,j,1,0.549871267132,02,01,60.0269890145,PLT_learning_02,N,2014_Feb_27_1759,P17,
stim_fb/ques.jpg,stim_fb/negf.jpg,stim_fb/posf.jpg,stim_02/c.jpg,stim_02/d.jpg,2,2,j,3,3,183,30,j,1,0.533205479658,02,01,60.0269890145,PLT_learning_02,N,2014_Feb_27_1759,P17,
stim_fb/ques.jpg,stim_fb/negf.jpg,stim_fb/posf.jpg,stim_02/f.jpg,stim_02/e.jpg,1,3,f,3,4,184,43,f,1,0.883089185796,02,01,60.0269890145,PLT_learning_02,N,2014_Feb_27_1759,P17,
stim_fb/ques.jpg,stim_fb/posf.jpg,stim_fb/negf.jpg,stim_02/c.jpg,stim_02/d.jpg,2,2,j,3,5,185,37,j,1,0.616507746558,02,01,60.0269890145,PLT_learning_02,N,2014_Feb_27_1759,P17,
stim_fb/ques.jpg,stim_fb/negf.jpg,stim_fb/posf.jpg,stim_02/f.jpg,stim_02/e.jpg,1,3,f,3,6,186,41,f,1,0.76647238141,02,01,60.0269890145,PLT_learning_02,N,2014_Feb_27_1759,P17,
stim_fb/ques.jpg,stim_fb/negf.jpg,stim_fb/posf.jpg,stim_02/b.jpg,stim_02/a.jpg,1,1,f,3,7,187,3,j,0,0.616505791686,02,01,60.0269890145,PLT_learning_02,N,2014_Feb_27_1759,P17,
stim_fb/ques.jpg,stim_fb/posf.jpg,stim_fb/negf.jpg,stim_02/f.jpg,stim_02/e.jpg,1,3,f,3,8,188,46,f,1,0.616528390012,02,01,60.0269890145,PLT_learning_02,N,2014_Feb_27_1759,P17,
stim_fb/ques.jpg,stim_fb/posf.jpg,stim_fb/negf.jpg,stim_02/b.jpg,stim_02/a.jpg,1,1,f,3,9,189,8,f,1,0.583199575944,02,01,60.0269890145,PLT_learning_02,N,2014_Feb_27_1759,P17,
stim_fb/ques.jpg,stim_fb/negf.jpg,stim_fb/posf.jpg,stim_02/a.jpg,stim_02/b.jpg,2,1,j,3,10,190,10,j,1,0.8164237111,02,01,60.0269890145,PLT_learning_02,N,2014_Feb_27_1759,P17,
stim_fb/ques.jpg,stim_fb/posf.jpg,stim_fb/negf.jpg,stim_02/c.jpg,stim_02/d.jpg,2,2,j,3,11,191,39,j,1,0.89969592409,02,01,60.0269890145,PLT_learning_02,N,2014_Feb_27_1759,P17,
stim_fb/ques.jpg,stim_fb/negf.jpg,stim_fb/posf.jpg,stim_02/e.jpg,stim_02/f.jpg,2,3,j,3,12,192,53,j,1,0.749810013458,02,01,60.0269890145,PLT_learning_02,N,2014_Feb_27_1759,P17,
stim_fb/ques.jpg,stim_fb/negf.jpg,stim_fb/posf.jpg,stim_02/d.jpg,stim_02/c.jpg,1,2,f,3,13,193,20,f,1,0.699830133608,02,01,60.0269890145,PLT_learning_02,N,2014_Feb_27_1759,P17,
stim_fb/ques.jpg,stim_fb/negf.jpg,stim_fb/posf.jpg,stim_02/f.jpg,stim_02/e.jpg,1,3,f,3,14,194,42,f,1,0.699792539906,02,01,60.0269890145,PLT_learning_02,N,2014_Feb_27_1759,P17,
stim_fb/ques.jpg,stim_fb/negf.jpg,stim_fb/posf.jpg,stim_02/c.jpg,stim_02/d.jpg,2,2,j,3,15,195,34,f,0,0.933079453538,02,01,60.0269890145,PLT_learning_02,N,2014_Feb_27_1759,P17,
stim_fb/ques.jpg,stim_fb/negf.jpg,stim_fb/posf.jpg,stim_02/d.jpg,stim_02/c.jpg,1,2,f,3,16,196,22,j,0,0.749809291659,02,01,60.0269890145,PLT_learning_02,N,2014_Feb_27_1759,P17,
stim_fb/ques.jpg,stim_fb/negf.jpg,stim_fb/posf.jpg,stim_02/c.jpg,stim_02/d.jpg,2,2,j,3,17,197,32,f,0,0.999729385494,02,01,60.0269890145,PLT_learning_02,N,2014_Feb_27_1759,P17,
stim_fb/ques.jpg,stim_fb/posf.jpg,stim_fb/negf.jpg,stim_02/d.jpg,stim_02/c.jpg,1,2,f,3,18,198,28,f,1,0.716484062526,02,01,60.0269890145,PLT_learning_02,N,2014_Feb_27_1759,P17,
stim_fb/ques.jpg,stim_fb/negf.jpg,stim_fb/posf.jpg,stim_02/a.jpg,stim_02/b.jpg,2,1,j,3,19,199,12,j,1,0.766470769391,02,01,60.0269890145,PLT_learning_02,N,2014_Feb_27_1759,P17,
stim_fb/ques.jpg,stim_fb/negf.jpg,stim_fb/posf.jpg,stim_02/a.jpg,stim_02/b.jpg,2,1,j,3,20,200,13,j,1,0.633172559605,02,01,60.0269890145,PLT_learning_02,N,2014_Feb_27_1759,P17,
stim_fb/ques.jpg,stim_fb/negf.jpg,stim_fb/posf.jpg,stim_02/f.jpg,stim_02/e.jpg,1,3,f,3,21,201,44,f,1,0.849755932662,02,01,60.0269890145,PLT_learning_02,N,2014_Feb_27_1759,P17,
stim_fb/ques.jpg,stim_fb/negf.jpg,stim_fb/posf.jpg,stim_02/a.jpg,stim_02/b.jpg,2,1,j,3,22,202,15,j,1,0.499902893964,02,01,60.0269890145,PLT_learning_02,N,2014_Feb_27_1759,P17,
stim_fb/ques.jpg,stim_fb/negf.jpg,stim_fb/posf.jpg,stim_02/e.jpg,stim_02/f.jpg,2,3,j,3,23,203,50,j,1,0.749802362388,02,01,60.0269890145,PLT_learning_02,N,2014_Feb_27_1759,P17,
stim_fb/ques.jpg,stim_fb/negf.jpg,stim_fb/posf.jpg,stim_02/f.jpg,stim_02/e.jpg,1,3,f,3,24,204,45,f,1,0.533192899302,02,01,60.0269890145,PLT_learning_02,N,2014_Feb_27_1759,P17,
stim_fb/ques.jpg,stim_fb/negf.jpg,stim_fb/posf.jpg,stim_02/b.jpg,stim_02/a.jpg,1,1,f,3,25,205,2,j,0,0.516548305652,02,01,60.0269890145,PLT_learning_02,N,2014_Feb_27_1759,P17,
stim_fb/ques.jpg,stim_fb/negf.jpg,stim_fb/posf.jpg,stim_02/a.jpg,stim_02/b.jpg,2,1,j,3,26,206,17,j,1,0.683135964391,02,01,60.0269890145,PLT_learning_02,N,2014_Feb_27_1759,P17,
stim_fb/ques.jpg,stim_fb/negf.jpg,stim_fb/posf.jpg,stim_02/d.jpg,stim_02/c.jpg,1,2,f,3,27,207,24,j,0,0.883099865414,02,01,60.0269890145,PLT_learning_02,N,2014_Feb_27_1759,P17,
stim_fb/ques.jpg,stim_fb/negf.jpg,stim_fb/posf.jpg,stim_02/e.jpg,stim_02/f.jpg,2,3,j,3,28,208,51,j,1,0.649828410313,02,01,60.0269890145,PLT_learning_02,N,2014_Feb_27_1759,P17,
stim_fb/ques.jpg,stim_fb/posf.jpg,stim_fb/negf.jpg,stim_02/d.jpg,stim_02/c.jpg,1,2,f,3,29,209,27,f,1,0.683153308622,02,01,60.0269890145,PLT_learning_02,N,2014_Feb_27_1759,P17,
stim_fb/ques.jpg,stim_fb/posf.jpg,stim_fb/negf.jpg,stim_02/c.jpg,stim_02/d.jpg,2,2,j,3,30,210,38,f,0,0.999760464958,02,01,60.0269890145,PLT_learning_02,N,2014_Feb_27_1759,P17,
stim_fb/ques.jpg,stim_fb/negf.jpg,stim_fb/posf.jpg,stim_02/a.jpg,stim_02/b.jpg,2,1,j,3,31,211,16,j,1,0.899750627437,02,01,60.0269890145,PLT_learning_02,N,2014_Feb_27_1759,P17,
stim_fb/ques.jpg,stim_fb/posf.jpg,stim_fb/negf.jpg,stim_02/f.jpg,stim_02/e.jpg,1,3,f,3,32,212,49,f,1,0.649831300518,02,01,60.0269890145,PLT_learning_02,N,2014_Feb_27_1759,P17,
stim_fb/ques.jpg,stim_fb/posf.jpg,stim_fb/negf.jpg,stim_02/e.jpg,stim_02/f.jpg,2,3,j,3,33,213,58,j,1,0.549865414545,02,01,60.0269890145,PLT_learning_02,N,2014_Feb_27_1759,P17,
stim_fb/ques.jpg,stim_fb/negf.jpg,stim_fb/posf.jpg,stim_02/d.jpg,stim_02/c.jpg,1,2,f,3,34,214,23,f,1,1.1830083052,02,01,60.0269890145,PLT_learning_02,N,2014_Feb_27_1759,P17,
stim_fb/ques.jpg,stim_fb/negf.jpg,stim_fb/posf.jpg,stim_02/b.jpg,stim_02/a.jpg,1,1,f,3,35,215,7,f,1,0.683164728085,02,01,60.0269890145,PLT_learning_02,N,2014_Feb_27_1759,P17,
stim_fb/ques.jpg,stim_fb/negf.jpg,stim_fb/posf.jpg,stim_02/b.jpg,stim_02/a.jpg,1,1,f,3,36,216,4,f,1,0.583202893211,02,01,60.0269890145,PLT_learning_02,N,2014_Feb_27_1759,P17,
stim_fb/ques.jpg,stim_fb/negf.jpg,stim_fb/posf.jpg,stim_02/b.jpg,stim_02/a.jpg,1,1,f,3,37,217,6,f,1,0.53219888873,02,01,60.0269890145,PLT_learning_02,N,2014_Feb_27_1759,P17,
stim_fb/ques.jpg,stim_fb/negf.jpg,stim_fb/posf.jpg,stim_02/f.jpg,stim_02/e.jpg,1,3,f,3,38,218,40,f,1,0.966254837182,02,01,60.0269890145,PLT_learning_02,N,2014_Feb_27_1759,P17,
stim_fb/ques.jpg,stim_fb/posf.jpg,stim_fb/negf.jpg,stim_02/d.jpg,stim_02/c.jpg,1,2,f,3,39,219,29,f,1,0.516565120564,02,01,60.0269890145,PLT_learning_02,N,2014_Feb_27_1759,P17,
stim_fb/ques.jpg,stim_fb/negf.jpg,stim_fb/posf.jpg,stim_02/c.jpg,stim_02/d.jpg,2,2,j,3,40,220,31,j,1,0.616509887896,02,01,60.0269890145,PLT_learning_02,N,2014_Feb_27_1759,P17,
stim_fb/ques.jpg,stim_fb/posf.jpg,stim_fb/negf.jpg,stim_02/a.jpg,stim_02/b.jpg,2,1,j,3,41,221,18,f,0,0.799780699394,02,01,60.0269890145,PLT_learning_02,N,2014_Feb_27_1759,P17,
stim_fb/ques.jpg,stim_fb/negf.jpg,stim_fb/posf.jpg,stim_02/b.jpg,stim_02/a.jpg,1,1,f,3,42,222,5,f,1,0.583185130939,02,01,60.0269890145,PLT_learning_02,N,2014_Feb_27_1759,P17,
stim_fb/ques.jpg,stim_fb/negf.jpg,stim_fb/posf.jpg,stim_02/e.jpg,stim_02/f.jpg,2,3,j,3,43,223,54,j,1,0.716512600657,02,01,60.0269890145,PLT_learning_02,N,2014_Feb_27_1759,P17,
stim_fb/ques.jpg,stim_fb/negf.jpg,stim_fb/posf.jpg,stim_02/d.jpg,stim_02/c.jpg,1,2,f,3,44,224,21,f,1,0.599848283848,02,01,60.0269890145,PLT_learning_02,N,2014_Feb_27_1759,P17,
stim_fb/ques.jpg,stim_fb/negf.jpg,stim_fb/posf.jpg,stim_02/d.jpg,stim_02/c.jpg,1,2,f,3,45,225,26,j,0,0.649833935084,02,01,60.0269890145,PLT_learning_02,N,2014_Feb_27_1759,P17,
stim_fb/ques.jpg,stim_fb/posf.jpg,stim_fb/negf.jpg,stim_02/b.jpg,stim_02/a.jpg,1,1,f,3,46,226,9,f,1,0.86641794573,02,01,60.0269890145,PLT_learning_02,N,2014_Feb_27_1759,P17,
stim_fb/ques.jpg,stim_fb/negf.jpg,stim_fb/posf.jpg,stim_02/c.jpg,stim_02/d.jpg,2,2,j,3,47,227,35,j,1,1.23304020571,02,01,60.0269890145,PLT_learning_02,N,2014_Feb_27_1759,P17,
stim_fb/ques.jpg,stim_fb/posf.jpg,stim_fb/negf.jpg,stim_02/e.jpg,stim_02/f.jpg,2,3,j,3,48,228,56,f,0,0.849773718995,02,01,60.0269890145,PLT_learning_02,N,2014_Feb_27_1759,P17,
stim_fb/ques.jpg,stim_fb/negf.jpg,stim_fb/posf.jpg,stim_02/a.jpg,stim_02/b.jpg,2,1,j,3,49,229,14,f,0,1.0830442117,02,01,60.0269890145,PLT_learning_02,N,2014_Feb_27_1759,P17,
stim_fb/ques.jpg,stim_fb/posf.jpg,stim_fb/negf.jpg,stim_02/a.jpg,stim_02/b.jpg,2,1,j,3,50,230,19,j,1,0.749802735318,02,01,60.0269890145,PLT_learning_02,N,2014_Feb_27_1759,P17,
stim_fb/ques.jpg,stim_fb/negf.jpg,stim_fb/posf.jpg,stim_02/e.jpg,stim_02/f.jpg,2,3,j,3,51,231,55,j,1,0.749799818046,02,01,60.0269890145,PLT_learning_02,N,2014_Feb_27_1759,P17,
stim_fb/ques.jpg,stim_fb/negf.jpg,stim_fb/posf.jpg,stim_02/a.jpg,stim_02/b.jpg,2,1,j,3,52,232,11,j,1,0.79978322569,02,01,60.0269890145,PLT_learning_02,N,2014_Feb_27_1759,P17,
stim_fb/ques.jpg,stim_fb/negf.jpg,stim_fb/posf.jpg,stim_02/b.jpg,stim_02/a.jpg,1,1,f,3,53,233,0,f,1,0.466545704166,02,01,60.0269890145,PLT_learning_02,N,2014_Feb_27_1759,P17,
stim_fb/ques.jpg,stim_fb/negf.jpg,stim_fb/posf.jpg,stim_02/d.jpg,stim_02/c.jpg,1,2,f,3,54,234,25,j,0,0.799799499251,02,01,60.0269890145,PLT_learning_02,N,2014_Feb_27_1759,P17,
stim_fb/ques.jpg,stim_fb/negf.jpg,stim_fb/posf.jpg,stim_02/b.jpg,stim_02/a.jpg,1,1,f,3,55,235,1,f,1,1.06637442425,02,01,60.0269890145,PLT_learning_02,N,2014_Feb_27_1759,P17,
stim_fb/ques.jpg,stim_fb/posf.jpg,stim_fb/negf.jpg,stim_02/e.jpg,stim_02/f.jpg,2,3,j,3,56,236,57,j,1,0.683156466492,02,01,60.0269890145,PLT_learning_02,N,2014_Feb_27_1759,P17,
stim_fb/ques.jpg,stim_fb/posf.jpg,stim_fb/negf.jpg,stim_02/f.jpg,stim_02/e.jpg,1,3,f,3,57,237,47,j,0,0.999732889226,02,01,60.0269890145,PLT_learning_02,N,2014_Feb_27_1759,P17,
stim_fb/ques.jpg,stim_fb/negf.jpg,stim_fb/posf.jpg,stim_02/e.jpg,stim_02/f.jpg,2,3,j,3,58,238,52,f,0,1.16632673138,02,01,60.0269890145,PLT_learning_02,N,2014_Feb_27_1759,P17,
stim_fb/ques.jpg,stim_fb/posf.jpg,stim_fb/negf.jpg,stim_02/e.jpg,stim_02/f.jpg,2,3,j,3,59,239,59,j,1,0.649801869158,02,01,60.0269890145,PLT_learning_02,N,2014_Feb_27_1759,P17,
stim_fb/ques.jpg,stim_fb/negf.jpg,stim_fb/posf.jpg,stim_02/a.jpg,stim_02/b.jpg,2,1,j,4,0,240,12,j,1,0.983061685251,02,01,60.0269890145,PLT_learning_02,N,2014_Feb_27_1759,P17,
stim_fb/ques.jpg,stim_fb/posf.jpg,stim_fb/negf.jpg,stim_02/f.jpg,stim_02/e.jpg,1,3,f,4,1,241,48,f,1,0.766453755987,02,01,60.0269890145,PLT_learning_02,N,2014_Feb_27_1759,P17,
stim_fb/ques.jpg,stim_fb/negf.jpg,stim_fb/posf.jpg,stim_02/a.jpg,stim_02/b.jpg,2,1,j,4,2,242,14,j,1,0.966357834903,02,01,60.0269890145,PLT_learning_02,N,2014_Feb_27_1759,P17,
stim_fb/ques.jpg,stim_fb/negf.jpg,stim_fb/posf.jpg,stim_02/c.jpg,stim_02/d.jpg,2,2,j,4,3,243,31,f,0,0.833083411404,02,01,60.0269890145,PLT_learning_02,N,2014_Feb_27_1759,P17,
stim_fb/ques.jpg,stim_fb/negf.jpg,stim_fb/posf.jpg,stim_02/c.jpg,stim_02/d.jpg,2,2,j,4,4,244,32,j,1,0.599844127488,02,01,60.0269890145,PLT_learning_02,N,2014_Feb_27_1759,P17,
stim_fb/ques.jpg,stim_fb/posf.jpg,stim_fb/negf.jpg,stim_02/c.jpg,stim_02/d.jpg,2,2,j,4,5,245,37,j,1,0.749799983458,02,01,60.0269890145,PLT_learning_02,N,2014_Feb_27_1759,P17,
stim_fb/ques.jpg,stim_fb/posf.jpg,stim_fb/negf.jpg,stim_02/d.jpg,stim_02/c.jpg,1,2,f,4,6,246,29,f,1,1.01639395493,02,01,60.0269890145,PLT_learning_02,N,2014_Feb_27_1759,P17,
stim_fb/ques.jpg,stim_fb/negf.jpg,stim_fb/posf.jpg,stim_02/d.jpg,stim_02/c.jpg,1,2,f,4,7,247,25,j,0,0.61657230848,02,01,60.0269890145,PLT_learning_02,N,2014_Feb_27_1759,P17,
stim_fb/ques.jpg,stim_fb/negf.jpg,stim_fb/posf.jpg,stim_02/f.jpg,stim_02/e.jpg,1,3,f,4,8,248,43,f,1,0.983039411734,02,01,60.0269890145,PLT_learning_02,N,2014_Feb_27_1759,P17,
stim_fb/ques.jpg,stim_fb/negf.jpg,stim_fb/posf.jpg,stim_02/d.jpg,stim_02/c.jpg,1,2,f,4,9,249,20,j,0,1.19965082969,02,01,60.0269890145,PLT_learning_02,N,2014_Feb_27_1759,P17,
stim_fb/ques.jpg,stim_fb/negf.jpg,stim_fb/posf.jpg,stim_02/c.jpg,stim_02/d.jpg,2,2,j,4,10,250,30,f,0,1.16633602454,02,01,60.0269890145,PLT_learning_02,N,2014_Feb_27_1759,P17,
stim_fb/ques.jpg,stim_fb/posf.jpg,stim_fb/negf.jpg,stim_02/a.jpg,stim_02/b.jpg,2,1,j,4,11,251,19,j,1,0.799788203096,02,01,60.0269890145,PLT_learning_02,N,2014_Feb_27_1759,P17,
stim_fb/ques.jpg,stim_fb/negf.jpg,stim_fb/posf.jpg,stim_02/c.jpg,stim_02/d.jpg,2,2,j,4,12,252,35,j,1,1.11641923294,02,01,60.0269890145,PLT_learning_02,N,2014_Feb_27_1759,P17,
stim_fb/ques.jpg,stim_fb/negf.jpg,stim_fb/posf.jpg,stim_02/d.jpg,stim_02/c.jpg,1,2,f,4,13,253,24,f,1,0.633190285787,02,01,60.0269890145,PLT_learning_02,N,2014_Feb_27_1759,P17,
stim_fb/ques.jpg,stim_fb/negf.jpg,stim_fb/posf.jpg,stim_02/e.jpg,stim_02/f.jpg,2,3,j,4,14,254,50,j,1,0.983056533409,02,01,60.0269890145,PLT_learning_02,N,2014_Feb_27_1759,P17,
stim_fb/ques.jpg,stim_fb/negf.jpg,stim_fb/posf.jpg,stim_02/e.jpg,stim_02/f.jpg,2,3,j,4,15,255,55,j,1,0.699817884075,02,01,60.0269890145,PLT_learning_02,N,2014_Feb_27_1759,P17,
stim_fb/ques.jpg,stim_fb/negf.jpg,stim_fb/posf.jpg,stim_02/b.jpg,stim_02/a.jpg,1,1,f,4,16,256,2,j,0,1.18296951752,02,01,60.0269890145,PLT_learning_02,N,2014_Feb_27_1759,P17,
stim_fb/ques.jpg,stim_fb/negf.jpg,stim_fb/posf.jpg,stim_02/a.jpg,stim_02/b.jpg,2,1,j,4,17,257,17,j,1,0.716491259465,02,01,60.0269890145,PLT_learning_02,N,2014_Feb_27_1759,P17,
stim_fb/ques.jpg,stim_fb/negf.jpg,stim_fb/posf.jpg,stim_02/e.jpg,stim_02/f.jpg,2,3,j,4,18,258,53,j,1,0.999657876257,02,01,60.0269890145,PLT_learning_02,N,2014_Feb_27_1759,P17,
stim_fb/ques.jpg,stim_fb/posf.jpg,stim_fb/negf.jpg,stim_02/c.jpg,stim_02/d.jpg,2,2,j,4,19,259,39,j,1,1.24965840257,02,01,60.0269890145,PLT_learning_02,N,2014_Feb_27_1759,P17,
stim_fb/ques.jpg,stim_fb/posf.jpg,stim_fb/negf.jpg,stim_02/f.jpg,stim_02/e.jpg,1,3,f,4,20,260,47,f,1,0.749799775942,02,01,60.0269890145,PLT_learning_02,N,2014_Feb_27_1759,P17,
stim_fb/ques.jpg,stim_fb/negf.jpg,stim_fb/posf.jpg,stim_02/b.jpg,stim_02/a.jpg,1,1,f,4,21,261,6,f,1,0.666484047488,02,01,60.0269890145,PLT_learning_02,N,2014_Feb_27_1759,P17,
stim_fb/ques.jpg,stim_fb/negf.jpg,stim_fb/posf.jpg,stim_02/a.jpg,stim_02/b.jpg,2,1,j,4,22,262,10,j,1,0.783127212577,02,01,60.0269890145,PLT_learning_02,N,2014_Feb_27_1759,P17,
stim_fb/ques.jpg,stim_fb/negf.jpg,stim_fb/posf.jpg,stim_02/b.jpg,stim_02/a.jpg,1,1,f,4,23,263,7,f,1,0.633166830325,02,01,60.0269890145,PLT_learning_02,N,2014_Feb_27_1759,P17,
stim_fb/ques.jpg,stim_fb/negf.jpg,stim_fb/posf.jpg,stim_02/f.jpg,stim_02/e.jpg,1,3,f,4,24,264,45,f,1,0.849773000202,02,01,60.0269890145,PLT_learning_02,N,2014_Feb_27_1759,P17,
stim_fb/ques.jpg,stim_fb/negf.jpg,stim_fb/posf.jpg,stim_02/c.jpg,stim_02/d.jpg,2,2,j,4,25,265,34,j,1,1.16632024421,02,01,60.0269890145,PLT_learning_02,N,2014_Feb_27_1759,P17,
stim_fb/ques.jpg,stim_fb/posf.jpg,stim_fb/negf.jpg,stim_02/f.jpg,stim_02/e.jpg,1,3,f,4,26,266,46,f,1,0.599835745596,02,01,60.0269890145,PLT_learning_02,N,2014_Feb_27_1759,P17,
stim_fb/ques.jpg,stim_fb/negf.jpg,stim_fb/posf.jpg,stim_02/f.jpg,stim_02/e.jpg,1,3,f,4,27,267,40,f,1,0.516525406576,02,01,60.0269890145,PLT_learning_02,N,2014_Feb_27_1759,P17,
stim_fb/ques.jpg,stim_fb/negf.jpg,stim_fb/posf.jpg,stim_02/e.jpg,stim_02/f.jpg,2,3,j,4,28,268,52,f,0,0.749763246893,02,01,60.0269890145,PLT_learning_02,N,2014_Feb_27_1759,P17,
stim_fb/ques.jpg,stim_fb/negf.jpg,stim_fb/posf.jpg,stim_02/d.jpg,stim_02/c.jpg,1,2,f,4,29,269,21,f,1,0.64974469365,02,01,60.0269890145,PLT_learning_02,N,2014_Feb_27_1759,P17,
stim_fb/ques.jpg,stim_fb/posf.jpg,stim_fb/negf.jpg,stim_02/e.jpg,stim_02/f.jpg,2,3,j,4,30,270,58,j,1,0.899747307163,02,01,60.0269890145,PLT_learning_02,N,2014_Feb_27_1759,P17,
stim_fb/ques.jpg,stim_fb/negf.jpg,stim_fb/posf.jpg,stim_02/f.jpg,stim_02/e.jpg,1,3,f,4,31,271,42,j,0,0.74976472959,02,01,60.0269890145,PLT_learning_02,N,2014_Feb_27_1759,P17,
stim_fb/ques.jpg,stim_fb/posf.jpg,stim_fb/negf.jpg,stim_02/d.jpg,stim_02/c.jpg,1,2,f,4,32,272,27,j,0,0.949680336238,02,01,60.0269890145,PLT_learning_02,N,2014_Feb_27_1759,P17,
stim_fb/ques.jpg,stim_fb/posf.jpg,stim_fb/negf.jpg,stim_02/e.jpg,stim_02/f.jpg,2,3,j,4,33,273,59,j,1,0.766459103314,02,01,60.0269890145,PLT_learning_02,N,2014_Feb_27_1759,P17,
stim_fb/ques.jpg,stim_fb/posf.jpg,stim_fb/negf.jpg,stim_02/e.jpg,stim_02/f.jpg,2,3,j,4,34,274,57,f,0,0.866425425373,02,01,60.0269890145,PLT_learning_02,N,2014_Feb_27_1759,P17,
stim_fb/ques.jpg,stim_fb/posf.jpg,stim_fb/negf.jpg,stim_02/a.jpg,stim_02/b.jpg,2,1,j,4,35,275,18,j,1,0.549865907775,02,01,60.0269890145,PLT_learning_02,N,2014_Feb_27_1759,P17,
stim_fb/ques.jpg,stim_fb/posf.jpg,stim_fb/negf.jpg,stim_02/b.jpg,stim_02/a.jpg,1,1,f,4,36,276,8,j,0,0.583183687342,02,01,60.0269890145,PLT_learning_02,N,2014_Feb_27_1759,P17,
stim_fb/ques.jpg,stim_fb/negf.jpg,stim_fb/posf.jpg,stim_02/a.jpg,stim_02/b.jpg,2,1,j,4,37,277,13,j,1,0.683164800264,02,01,60.0269890145,PLT_learning_02,N,2014_Feb_27_1759,P17,
stim_fb/ques.jpg,stim_fb/negf.jpg,stim_fb/posf.jpg,stim_02/f.jpg,stim_02/e.jpg,1,3,f,4,38,278,41,f,1,1.03306942655,02,01,60.0269890145,PLT_learning_02,N,2014_Feb_27_1759,P17,
stim_fb/ques.jpg,stim_fb/negf.jpg,stim_fb/posf.jpg,stim_02/d.jpg,stim_02/c.jpg,1,2,f,4,39,279,22,j,0,1.08302822986,02,01,60.0269890145,PLT_learning_02,N,2014_Feb_27_1759,P17,
stim_fb/ques.jpg,stim_fb/negf.jpg,stim_fb/posf.jpg,stim_02/a.jpg,stim_02/b.jpg,2,1,j,4,40,280,15,j,1,0.816461370967,02,01,60.0269890145,PLT_learning_02,N,2014_Feb_27_1759,P17,
stim_fb/ques.jpg,stim_fb/negf.jpg,stim_fb/posf.jpg,stim_02/e.jpg,stim_02/f.jpg,2,3,j,4,41,281,51,j,1,0.866427659943,02,01,60.0269890145,PLT_learning_02,N,2014_Feb_27_1759,P17,
stim_fb/ques.jpg,stim_fb/negf.jpg,stim_fb/posf.jpg,stim_02/b.jpg,stim_02/a.jpg,1,1,f,4,42,282,1,f,1,0.666465286728,02,01,60.0269890145,PLT_learning_02,N,2014_Feb_27_1759,P17,
stim_fb/ques.jpg,stim_fb/negf.jpg,stim_fb/posf.jpg,stim_02/f.jpg,stim_02/e.jpg,1,3,f,4,43,283,44,j,0,0.533184448237,02,01,60.0269890145,PLT_learning_02,N,2014_Feb_27_1759,P17,
stim_fb/ques.jpg,stim_fb/negf.jpg,stim_fb/posf.jpg,stim_02/c.jpg,stim_02/d.jpg,2,2,j,4,44,284,33,j,1,1.16624461771,02,01,60.0269890145,PLT_learning_02,N,2014_Feb_27_1759,P17,
stim_fb/ques.jpg,stim_fb/posf.jpg,stim_fb/negf.jpg,stim_02/d.jpg,stim_02/c.jpg,1,2,f,4,45,285,28,f,1,0.583162911556,02,01,60.0269890145,PLT_learning_02,N,2014_Feb_27_1759,P17,
stim_fb/ques.jpg,stim_fb/negf.jpg,stim_fb/posf.jpg,stim_02/c.jpg,stim_02/d.jpg,2,2,j,4,46,286,36,j,1,1.09969205043,02,01,60.0269890145,PLT_learning_02,N,2014_Feb_27_1759,P17,
stim_fb/ques.jpg,stim_fb/negf.jpg,stim_fb/posf.jpg,stim_02/b.jpg,stim_02/a.jpg,1,1,f,4,47,287,5,f,1,0.766461028112,02,01,60.0269890145,PLT_learning_02,N,2014_Feb_27_1759,P17,
stim_fb/ques.jpg,stim_fb/negf.jpg,stim_fb/posf.jpg,stim_02/d.jpg,stim_02/c.jpg,1,2,f,4,48,288,26,f,1,1.04967867309,02,01,60.0269890145,PLT_learning_02,N,2014_Feb_27_1759,P17,
stim_fb/ques.jpg,stim_fb/posf.jpg,stim_fb/negf.jpg,stim_02/f.jpg,stim_02/e.jpg,1,3,f,4,49,289,49,j,0,0.66649955414,02,01,60.0269890145,PLT_learning_02,N,2014_Feb_27_1759,P17,
stim_fb/ques.jpg,stim_fb/negf.jpg,stim_fb/posf.jpg,stim_02/a.jpg,stim_02/b.jpg,2,1,j,4,50,290,11,j,1,0.666499698498,02,01,60.0269890145,PLT_learning_02,N,2014_Feb_27_1759,P17,
stim_fb/ques.jpg,stim_fb/negf.jpg,stim_fb/posf.jpg,stim_02/e.jpg,stim_02/f.jpg,2,3,j,4,51,291,54,f,0,1.31636235818,02,01,60.0269890145,PLT_learning_02,N,2014_Feb_27_1759,P17,
stim_fb/ques.jpg,stim_fb/posf.jpg,stim_fb/negf.jpg,stim_02/b.jpg,stim_02/a.jpg,1,1,f,4,52,292,9,f,1,1.06635964241,02,01,60.0269890145,PLT_learning_02,N,2014_Feb_27_1759,P17,
stim_fb/ques.jpg,stim_fb/posf.jpg,stim_fb/negf.jpg,stim_02/e.jpg,stim_02/f.jpg,2,3,j,4,53,293,56,j,1,0.966395043646,02,01,60.0269890145,PLT_learning_02,N,2014_Feb_27_1759,P17,
stim_fb/ques.jpg,stim_fb/negf.jpg,stim_fb/posf.jpg,stim_02/b.jpg,stim_02/a.jpg,1,1,f,4,54,294,0,f,1,0.749756263487,02,01,60.0269890145,PLT_learning_02,N,2014_Feb_27_1759,P17,
stim_fb/ques.jpg,stim_fb/negf.jpg,stim_fb/posf.jpg,stim_02/d.jpg,stim_02/c.jpg,1,2,f,4,55,295,23,j,0,0.783153988317,02,01,60.0269890145,PLT_learning_02,N,2014_Feb_27_1759,P17,
stim_fb/ques.jpg,stim_fb/negf.jpg,stim_fb/posf.jpg,stim_02/a.jpg,stim_02/b.jpg,2,1,j,4,56,296,16,j,1,0.849744296658,02,01,60.0269890145,PLT_learning_02,N,2014_Feb_27_1759,P17,
stim_fb/ques.jpg,stim_fb/negf.jpg,stim_fb/posf.jpg,stim_02/b.jpg,stim_02/a.jpg,1,1,f,4,57,297,3,f,1,0.566505936045,02,01,60.0269890145,PLT_learning_02,N,2014_Feb_27_1759,P17,
stim_fb/ques.jpg,stim_fb/posf.jpg,stim_fb/negf.jpg,stim_02/c.jpg,stim_02/d.jpg,2,2,j,4,58,298,38,j,1,0.799807424004,02,01,60.0269890145,PLT_learning_02,N,2014_Feb_27_1759,P17,
stim_fb/ques.jpg,stim_fb/negf.jpg,stim_fb/posf.jpg,stim_02/b.jpg,stim_02/a.jpg,1,1,f,4,59,299,4,f,1,0.733120190072,02,01,60.0269890145,PLT_learning_02,N,2014_Feb_27_1759,P17,
stim_fb/ques.jpg,stim_fb/negf.jpg,stim_fb/posf.jpg,stim_02/a.jpg,stim_02/b.jpg,2,1,j,5,0,300,17,j,1,0.833111125479,02,01,60.0269890145,PLT_learning_02,N,2014_Feb_27_1759,P17,
stim_fb/ques.jpg,stim_fb/negf.jpg,stim_fb/posf.jpg,stim_02/e.jpg,stim_02/f.jpg,2,3,j,5,1,301,51,j,1,0.766491442922,02,01,60.0269890145,PLT_learning_02,N,2014_Feb_27_1759,P17,
stim_fb/ques.jpg,stim_fb/posf.jpg,stim_fb/negf.jpg,stim_02/e.jpg,stim_02/f.jpg,2,3,j,5,2,302,57,j,1,0.749775770108,02,01,60.0269890145,PLT_learning_02,N,2014_Feb_27_1759,P17,
stim_fb/ques.jpg,stim_fb/negf.jpg,stim_fb/posf.jpg,stim_02/b.jpg,stim_02/a.jpg,1,1,f,5,3,303,2,f,1,0.733087582799,02,01,60.0269890145,PLT_learning_02,N,2014_Feb_27_1759,P17,
stim_fb/ques.jpg,stim_fb/posf.jpg,stim_fb/negf.jpg,stim_02/b.jpg,stim_02/a.jpg,1,1,f,5,4,304,8,f,1,0.716753089075,02,01,60.0269890145,PLT_learning_02,N,2014_Feb_27_1759,P17,
stim_fb/ques.jpg,stim_fb/negf.jpg,stim_fb/posf.jpg,stim_02/a.jpg,stim_02/b.jpg,2,1,j,5,5,305,15,j,1,1.64950830445,02,01,60.0269890145,PLT_learning_02,N,2014_Feb_27_1759,P17,
stim_fb/ques.jpg,stim_fb/negf.jpg,stim_fb/posf.jpg,stim_02/b.jpg,stim_02/a.jpg,1,1,f,5,6,306,4,j,0,1.2829569492,02,01,60.0269890145,PLT_learning_02,N,2014_Feb_27_1759,P17,
stim_fb/ques.jpg,stim_fb/negf.jpg,stim_fb/posf.jpg,stim_02/b.jpg,stim_02/a.jpg,1,1,f,5,7,307,0,f,1,0.833113351027,02,01,60.0269890145,PLT_learning_02,N,2014_Feb_27_1759,P17,
stim_fb/ques.jpg,stim_fb/negf.jpg,stim_fb/posf.jpg,stim_02/c.jpg,stim_02/d.jpg,2,2,j,5,8,308,31,f,0,0.7831180337,02,01,60.0269890145,PLT_learning_02,N,2014_Feb_27_1759,P17,
stim_fb/ques.jpg,stim_fb/posf.jpg,stim_fb/negf.jpg,stim_02/d.jpg,stim_02/c.jpg,1,2,f,5,9,309,27,j,0,0.833094641393,02,01,60.0269890145,PLT_learning_02,N,2014_Feb_27_1759,P17,
stim_fb/ques.jpg,stim_fb/negf.jpg,stim_fb/posf.jpg,stim_02/e.jpg,stim_02/f.jpg,2,3,j,5,10,310,50,j,1,0.816453371028,02,01,60.0269890145,PLT_learning_02,N,2014_Feb_27_1759,P17,
stim_fb/ques.jpg,stim_fb/negf.jpg,stim_fb/posf.jpg,stim_02/e.jpg,stim_02/f.jpg,2,3,j,5,11,311,52,j,1,0.866438050842,02,01,60.0269890145,PLT_learning_02,N,2014_Feb_27_1759,P17,
stim_fb/ques.jpg,stim_fb/negf.jpg,stim_fb/posf.jpg,stim_02/e.jpg,stim_02/f.jpg,2,3,j,5,12,312,53,j,1,0.499871555854,02,01,60.0269890145,PLT_learning_02,N,2014_Feb_27_1759,P17,
stim_fb/ques.jpg,stim_fb/negf.jpg,stim_fb/posf.jpg,stim_02/d.jpg,stim_02/c.jpg,1,2,f,5,13,313,22,j,0,0.96639920602,02,01,60.0269890145,PLT_learning_02,N,2014_Feb_27_1759,P17,
stim_fb/ques.jpg,stim_fb/posf.jpg,stim_fb/negf.jpg,stim_02/b.jpg,stim_02/a.jpg,1,1,f,5,14,314,9,j,0,0.78313442756,02,01,60.0269890145,PLT_learning_02,N,2014_Feb_27_1759,P17,
stim_fb/ques.jpg,stim_fb/negf.jpg,stim_fb/posf.jpg,stim_02/b.jpg,stim_02/a.jpg,1,1,f,5,15,315,1,j,0,0.749829348651,02,01,60.0269890145,PLT_learning_02,N,2014_Feb_27_1759,P17,
stim_fb/ques.jpg,stim_fb/posf.jpg,stim_fb/negf.jpg,stim_02/c.jpg,stim_02/d.jpg,2,2,j,5,16,316,38,f,0,1.11634129668,02,01,60.0269890145,PLT_learning_02,N,2014_Feb_27_1759,P17,
stim_fb/ques.jpg,stim_fb/posf.jpg,stim_fb/negf.jpg,stim_02/e.jpg,stim_02/f.jpg,2,3,j,5,17,317,56,j,1,0.866430682476,02,01,60.0269890145,PLT_learning_02,N,2014_Feb_27_1759,P17,
stim_fb/ques.jpg,stim_fb/posf.jpg,stim_fb/negf.jpg,stim_02/f.jpg,stim_02/e.jpg,1,3,f,5,18,318,49,f,1,0.816450925931,02,01,60.0269890145,PLT_learning_02,N,2014_Feb_27_1759,P17,
stim_fb/ques.jpg,stim_fb/negf.jpg,stim_fb/posf.jpg,stim_02/b.jpg,stim_02/a.jpg,1,1,f,5,19,319,7,f,1,1.08302618777,02,01,60.0269890145,PLT_learning_02,N,2014_Feb_27_1759,P17,
stim_fb/ques.jpg,stim_fb/negf.jpg,stim_fb/posf.jpg,stim_02/d.jpg,stim_02/c.jpg,1,2,f,5,20,320,23,j,0,0.733148499634,02,01,60.0269890145,PLT_learning_02,N,2014_Feb_27_1759,P17,
stim_fb/ques.jpg,stim_fb/negf.jpg,stim_fb/posf.jpg,stim_02/b.jpg,stim_02/a.jpg,1,1,f,5,21,321,3,f,1,0.699820299096,02,01,60.0269890145,PLT_learning_02,N,2014_Feb_27_1759,P17,
stim_fb/ques.jpg,stim_fb/negf.jpg,stim_fb/posf.jpg,stim_02/c.jpg,stim_02/d.jpg,2,2,j,5,22,322,36,f,0,0.849769316019,02,01,60.0269890145,PLT_learning_02,N,2014_Feb_27_1759,P17,
stim_fb/ques.jpg,stim_fb/negf.jpg,stim_fb/posf.jpg,stim_02/d.jpg,stim_02/c.jpg,1,2,f,5,23,323,21,j,0,1.04969016774,02,01,60.0269890145,PLT_learning_02,N,2014_Feb_27_1759,P17,
stim_fb/ques.jpg,stim_fb/negf.jpg,stim_fb/posf.jpg,stim_02/a.jpg,stim_02/b.jpg,2,1,j,5,24,324,11,j,1,0.816454739439,02,01,60.0269890145,PLT_learning_02,N,2014_Feb_27_1759,P17,
stim_fb/ques.jpg,stim_fb/negf.jpg,stim_fb/posf.jpg,stim_02/f.jpg,stim_02/e.jpg,1,3,f,5,25,325,43,f,1,0.782977162577,02,01,60.0269890145,PLT_learning_02,N,2014_Feb_27_1759,P17,
stim_fb/ques.jpg,stim_fb/posf.jpg,stim_fb/negf.jpg,stim_02/f.jpg,stim_02/e.jpg,1,3,f,5,26,326,47,j,0,0.916399503763,02,01,60.0269890145,PLT_learning_02,N,2014_Feb_27_1759,P17,
stim_fb/ques.jpg,stim_fb/posf.jpg,stim_fb/negf.jpg,stim_02/d.jpg,stim_02/c.jpg,1,2,f,5,27,327,29,f,1,0.799783785083,02,01,60.0269890145,PLT_learning_02,N,2014_Feb_27_1759,P17,
stim_fb/ques.jpg,stim_fb/negf.jpg,stim_fb/posf.jpg,stim_02/d.jpg,stim_02/c.jpg,1,2,f,5,28,328,25,j,0,0.783141603446,02,01,60.0269890145,PLT_learning_02,N,2014_Feb_27_1759,P17,
stim_fb/ques.jpg,stim_fb/negf.jpg,stim_fb/posf.jpg,stim_02/f.jpg,stim_02/e.jpg,1,3,f,5,29,329,41,f,1,1.14964404177,02,01,60.0269890145,PLT_learning_02,N,2014_Feb_27_1759,P17,
stim_fb/ques.jpg,stim_fb/negf.jpg,stim_fb/posf.jpg,stim_02/c.jpg,stim_02/d.jpg,2,2,j,5,30,330,34,j,1,0.84976178525,02,01,60.0269890145,PLT_learning_02,N,2014_Feb_27_1759,P17,
stim_fb/ques.jpg,stim_fb/posf.jpg,stim_fb/negf.jpg,stim_02/d.jpg,stim_02/c.jpg,1,2,f,5,31,331,28,j,0,0.59983300276,02,01,60.0269890145,PLT_learning_02,N,2014_Feb_27_1759,P17,
stim_fb/ques.jpg,stim_fb/posf.jpg,stim_fb/negf.jpg,stim_02/c.jpg,stim_02/d.jpg,2,2,j,5,32,332,37,j,1,1.16632350133,02,01,60.0269890145,PLT_learning_02,N,2014_Feb_27_1759,P17,
stim_fb/ques.jpg,stim_fb/negf.jpg,stim_fb/posf.jpg,stim_02/a.jpg,stim_02/b.jpg,2,1,j,5,33,333,13,j,1,1.31626595289,02,01,60.0269890145,PLT_learning_02,N,2014_Feb_27_1759,P17,
stim_fb/ques.jpg,stim_fb/negf.jpg,stim_fb/posf.jpg,stim_02/a.jpg,stim_02/b.jpg,2,1,j,5,34,334,16,j,1,0.499873519748,02,01,60.0269890145,PLT_learning_02,N,2014_Feb_27_1759,P17,
stim_fb/ques.jpg,stim_fb/negf.jpg,stim_fb/posf.jpg,stim_02/f.jpg,stim_02/e.jpg,1,3,f,5,35,335,40,f,1,0.783112289382,02,01,60.0269890145,PLT_learning_02,N,2014_Feb_27_1759,P17,
stim_fb/ques.jpg,stim_fb/negf.jpg,stim_fb/posf.jpg,stim_02/b.jpg,stim_02/a.jpg,1,1,f,5,36,336,5,f,1,0.86646623108,02,01,60.0269890145,PLT_learning_02,N,2014_Feb_27_1759,P17,
stim_fb/ques.jpg,stim_fb/negf.jpg,stim_fb/posf.jpg,stim_02/c.jpg,stim_02/d.jpg,2,2,j,5,37,337,35,j,1,0.883065931836,02,01,60.0269890145,PLT_learning_02,N,2014_Feb_27_1759,P17,
stim_fb/ques.jpg,stim_fb/negf.jpg,stim_fb/posf.jpg,stim_02/f.jpg,stim_02/e.jpg,1,3,f,5,38,338,44,f,1,0.516539120757,02,01,60.0269890145,PLT_learning_02,N,2014_Feb_27_1759,P17,
stim_fb/ques.jpg,stim_fb/negf.jpg,stim_fb/posf.jpg,stim_02/c.jpg,stim_02/d.jpg,2,2,j,5,39,339,32,j,1,0.599837189195,02,01,60.0269890145,PLT_learning_02,N,2014_Feb_27_1759,P17,
stim_fb/ques.jpg,stim_fb/negf.jpg,stim_fb/posf.jpg,stim_02/c.jpg,stim_02/d.jpg,2,2,j,5,40,340,33,f,0,0.799762519078,02,01,60.0269890145,PLT_learning_02,N,2014_Feb_27_1759,P17,
stim_fb/ques.jpg,stim_fb/negf.jpg,stim_fb/posf.jpg,stim_02/d.jpg,stim_02/c.jpg,1,2,f,5,41,341,26,j,0,0.516536582432,02,01,60.0269890145,PLT_learning_02,N,2014_Feb_27_1759,P17,
stim_fb/ques.jpg,stim_fb/posf.jpg,stim_fb/negf.jpg,stim_02/f.jpg,stim_02/e.jpg,1,3,f,5,42,342,46,f,1,0.516535084698,02,01,60.0269890145,PLT_learning_02,N,2014_Feb_27_1759,P17,
stim_fb/ques.jpg,stim_fb/negf.jpg,stim_fb/posf.jpg,stim_02/f.jpg,stim_02/e.jpg,1,3,f,5,43,343,45,f,1,1.29959133841,02,01,60.0269890145,PLT_learning_02,N,2014_Feb_27_1759,P17,
stim_fb/ques.jpg,stim_fb/negf.jpg,stim_fb/posf.jpg,stim_02/e.jpg,stim_02/f.jpg,2,3,j,5,44,344,54,j,1,0.733116364538,02,01,60.0269890145,PLT_learning_02,N,2014_Feb_27_1759,P17,
stim_fb/ques.jpg,stim_fb/negf.jpg,stim_fb/posf.jpg,stim_02/a.jpg,stim_02/b.jpg,2,1,j,5,45,345,10,j,1,0.849765761161,02,01,60.0269890145,PLT_learning_02,N,2014_Feb_27_1759,P17,
stim_fb/ques.jpg,stim_fb/negf.jpg,stim_fb/posf.jpg,stim_02/b.jpg,stim_02/a.jpg,1,1,f,5,46,346,6,f,1,0.616464652145,02,01,60.0269890145,PLT_learning_02,N,2014_Feb_27_1759,P17,
stim_fb/ques.jpg,stim_fb/negf.jpg,stim_fb/posf.jpg,stim_02/a.jpg,stim_02/b.jpg,2,1,j,5,47,347,14,j,1,0.48322716972,02,01,60.0269890145,PLT_learning_02,N,2014_Feb_27_1759,P17,
stim_fb/ques.jpg,stim_fb/posf.jpg,stim_fb/negf.jpg,stim_02/e.jpg,stim_02/f.jpg,2,3,j,5,48,348,58,j,1,0.749783054263,02,01,60.0269890145,PLT_learning_02,N,2014_Feb_27_1759,P17,
stim_fb/ques.jpg,stim_fb/negf.jpg,stim_fb/posf.jpg,stim_02/e.jpg,stim_02/f.jpg,2,3,j,5,49,349,55,f,0,0.916425930631,02,01,60.0269890145,PLT_learning_02,N,2014_Feb_27_1759,P17,
stim_fb/ques.jpg,stim_fb/negf.jpg,stim_fb/posf.jpg,stim_02/c.jpg,stim_02/d.jpg,2,2,j,5,50,350,30,f,0,0.949726242659,02,01,60.0269890145,PLT_learning_02,N,2014_Feb_27_1759,P17,
stim_fb/ques.jpg,stim_fb/negf.jpg,stim_fb/posf.jpg,stim_02/a.jpg,stim_02/b.jpg,2,1,j,5,51,351,12,j,1,0.599848765047,02,01,60.0269890145,PLT_learning_02,N,2014_Feb_27_1759,P17,
stim_fb/ques.jpg,stim_fb/posf.jpg,stim_fb/negf.jpg,stim_02/a.jpg,stim_02/b.jpg,2,1,j,5,52,352,18,j,1,0.416573896437,02,01,60.0269890145,PLT_learning_02,N,2014_Feb_27_1759,P17,
stim_fb/ques.jpg,stim_fb/posf.jpg,stim_fb/negf.jpg,stim_02/c.jpg,stim_02/d.jpg,2,2,j,5,53,353,39,j,1,1.06635315825,02,01,60.0269890145,PLT_learning_02,N,2014_Feb_27_1759,P17,
stim_fb/ques.jpg,stim_fb/posf.jpg,stim_fb/negf.jpg,stim_02/f.jpg,stim_02/e.jpg,1,3,f,5,54,354,48,f,1,0.599858064224,02,01,60.0269890145,PLT_learning_02,N,2014_Feb_27_1759,P17,
stim_fb/ques.jpg,stim_fb/posf.jpg,stim_fb/negf.jpg,stim_02/e.jpg,stim_02/f.jpg,2,3,j,5,55,355,59,j,1,0.549823691552,02,01,60.0269890145,PLT_learning_02,N,2014_Feb_27_1759,P17,
stim_fb/ques.jpg,stim_fb/negf.jpg,stim_fb/posf.jpg,stim_02/d.jpg,stim_02/c.jpg,1,2,f,5,56,356,20,j,0,0.916414207413,02,01,60.0269890145,PLT_learning_02,N,2014_Feb_27_1759,P17,
stim_fb/ques.jpg,stim_fb/negf.jpg,stim_fb/posf.jpg,stim_02/f.jpg,stim_02/e.jpg,1,3,f,5,57,357,42,f,1,0.566527177993,02,01,60.0269890145,PLT_learning_02,N,2014_Feb_27_1759,P17,
stim_fb/ques.jpg,stim_fb/posf.jpg,stim_fb/negf.jpg,stim_02/a.jpg,stim_02/b.jpg,2,1,j,5,58,358,19,j,1,0.849795303795,02,01,60.0269890145,PLT_learning_02,N,2014_Feb_27_1759,P17,
stim_fb/ques.jpg,stim_fb/negf.jpg,stim_fb/posf.jpg,stim_02/d.jpg,stim_02/c.jpg,1,2,f,5,59,359,24,j,0,0.899719529929,02,01,60.0269890145,PLT_learning_02,N,2014_Feb_27_1759,P17,
