Fb3,Fb2,Fb1,Symbol2,Symbol1,PosCond,Pair,Correct,trials.thisRepN,trials.thisTrialN,trials.thisN,trials.thisIndex,Response.keys,Response.corr,Response.rt,Version,Session Number,frameRate,expName,StimCondition,date,Participant,
stim_fb/ques.jpg,stim_fb/negf.jpg,stim_fb/posf.jpg,stim_02/f.jpg,stim_02/e.jpg,1,3,f,0,0,0,41,f,1,1.07009938572,02,02,60.0246754621,PLT_learning_02,N,2014_Feb_28_1310,P18,
stim_fb/ques.jpg,stim_fb/negf.jpg,stim_fb/posf.jpg,stim_02/d.jpg,stim_02/c.jpg,1,2,f,0,1,1,24,j,0,1.43292554793,02,02,60.0246754621,PLT_learning_02,N,2014_Feb_28_1310,P18,
stim_fb/ques.jpg,stim_fb/negf.jpg,stim_fb/posf.jpg,stim_02/a.jpg,stim_02/b.jpg,2,1,j,0,2,2,10,f,0,1.03304992594,02,02,60.0246754621,PLT_learning_02,N,2014_Feb_28_1310,P18,
stim_fb/ques.jpg,stim_fb/posf.jpg,stim_fb/negf.jpg,stim_02/c.jpg,stim_02/d.jpg,2,2,j,0,3,3,37,f,0,1.34952098405,02,02,60.0246754621,PLT_learning_02,N,2014_Feb_28_1310,P18,
stim_fb/ques.jpg,stim_fb/negf.jpg,stim_fb/posf.jpg,stim_02/e.jpg,stim_02/f.jpg,2,3,j,0,4,4,52,j,1,0.949714341998,02,02,60.0246754621,PLT_learning_02,N,2014_Feb_28_1310,P18,
stim_fb/ques.jpg,stim_fb/negf.jpg,stim_fb/posf.jpg,stim_02/b.jpg,stim_02/a.jpg,1,1,f,0,5,5,3,f,1,0.933008816475,02,02,60.0246754621,PLT_learning_02,N,2014_Feb_28_1310,P18,
stim_fb/ques.jpg,stim_fb/negf.jpg,stim_fb/posf.jpg,stim_02/e.jpg,stim_02/f.jpg,2,3,j,0,6,6,54,j,1,1.18296689799,02,02,60.0246754621,PLT_learning_02,N,2014_Feb_28_1310,P18,
stim_fb/ques.jpg,stim_fb/negf.jpg,stim_fb/posf.jpg,stim_02/c.jpg,stim_02/d.jpg,2,2,j,0,7,7,30,f,0,0.749792714341,02,02,60.0246754621,PLT_learning_02,N,2014_Feb_28_1310,P18,
stim_fb/ques.jpg,stim_fb/posf.jpg,stim_fb/negf.jpg,stim_02/b.jpg,stim_02/a.jpg,1,1,f,0,8,8,9,f,1,0.916413260051,02,02,60.0246754621,PLT_learning_02,N,2014_Feb_28_1310,P18,
stim_fb/ques.jpg,stim_fb/negf.jpg,stim_fb/posf.jpg,stim_02/a.jpg,stim_02/b.jpg,2,1,j,0,9,9,15,j,1,1.19966267321,02,02,60.0246754621,PLT_learning_02,N,2014_Feb_28_1310,P18,
stim_fb/ques.jpg,stim_fb/negf.jpg,stim_fb/posf.jpg,stim_02/f.jpg,stim_02/e.jpg,1,3,f,0,10,10,40,f,1,0.949718366027,02,02,60.0246754621,PLT_learning_02,N,2014_Feb_28_1310,P18,
stim_fb/ques.jpg,stim_fb/negf.jpg,stim_fb/posf.jpg,stim_02/f.jpg,stim_02/e.jpg,1,3,f,0,11,11,43,f,1,0.933065372441,02,02,60.0246754621,PLT_learning_02,N,2014_Feb_28_1310,P18,
stim_fb/ques.jpg,stim_fb/negf.jpg,stim_fb/posf.jpg,stim_02/d.jpg,stim_02/c.jpg,1,2,f,0,12,12,25,j,0,1.21632351937,02,02,60.0246754621,PLT_learning_02,N,2014_Feb_28_1310,P18,
stim_fb/ques.jpg,stim_fb/negf.jpg,stim_fb/posf.jpg,stim_02/f.jpg,stim_02/e.jpg,1,3,f,0,13,13,44,f,1,0.949732672686,02,02,60.0246754621,PLT_learning_02,N,2014_Feb_28_1310,P18,
stim_fb/ques.jpg,stim_fb/negf.jpg,stim_fb/posf.jpg,stim_02/b.jpg,stim_02/a.jpg,1,1,f,0,14,14,0,f,1,1.06636054466,02,02,60.0246754621,PLT_learning_02,N,2014_Feb_28_1310,P18,
stim_fb/ques.jpg,stim_fb/negf.jpg,stim_fb/posf.jpg,stim_02/c.jpg,stim_02/d.jpg,2,2,j,0,15,15,33,f,0,1.29957930241,02,02,60.0246754621,PLT_learning_02,N,2014_Feb_28_1310,P18,
stim_fb/ques.jpg,stim_fb/negf.jpg,stim_fb/posf.jpg,stim_02/a.jpg,stim_02/b.jpg,2,1,j,0,16,16,11,j,1,0.99973189976,02,02,60.0246754621,PLT_learning_02,N,2014_Feb_28_1310,P18,
stim_fb/ques.jpg,stim_fb/negf.jpg,stim_fb/posf.jpg,stim_02/e.jpg,stim_02/f.jpg,2,3,j,0,17,17,50,j,1,0.799787797084,02,02,60.0246754621,PLT_learning_02,N,2014_Feb_28_1310,P18,
stim_fb/ques.jpg,stim_fb/negf.jpg,stim_fb/posf.jpg,stim_02/a.jpg,stim_02/b.jpg,2,1,j,0,18,18,16,j,1,1.18296432358,02,02,60.0246754621,PLT_learning_02,N,2014_Feb_28_1310,P18,
stim_fb/ques.jpg,stim_fb/negf.jpg,stim_fb/posf.jpg,stim_02/e.jpg,stim_02/f.jpg,2,3,j,0,19,19,55,j,1,0.949714648762,02,02,60.0246754621,PLT_learning_02,N,2014_Feb_28_1310,P18,
stim_fb/ques.jpg,stim_fb/posf.jpg,stim_fb/negf.jpg,stim_02/a.jpg,stim_02/b.jpg,2,1,j,0,20,20,19,j,1,0.933106223262,02,02,60.0246754621,PLT_learning_02,N,2014_Feb_28_1310,P18,
stim_fb/ques.jpg,stim_fb/negf.jpg,stim_fb/posf.jpg,stim_02/f.jpg,stim_02/e.jpg,1,3,f,0,21,21,45,f,1,0.88304978158,02,02,60.0246754621,PLT_learning_02,N,2014_Feb_28_1310,P18,
stim_fb/ques.jpg,stim_fb/negf.jpg,stim_fb/posf.jpg,stim_02/c.jpg,stim_02/d.jpg,2,2,j,0,22,22,35,f,0,1.56621804047,02,02,60.0246754621,PLT_learning_02,N,2014_Feb_28_1310,P18,
stim_fb/ques.jpg,stim_fb/negf.jpg,stim_fb/posf.jpg,stim_02/b.jpg,stim_02/a.jpg,1,1,f,0,23,23,2,j,0,1.21632297201,02,02,60.0246754621,PLT_learning_02,N,2014_Feb_28_1310,P18,
stim_fb/ques.jpg,stim_fb/posf.jpg,stim_fb/negf.jpg,stim_02/f.jpg,stim_02/e.jpg,1,3,f,0,24,24,49,f,1,1.21632830129,02,02,60.0246754621,PLT_learning_02,N,2014_Feb_28_1310,P18,
stim_fb/ques.jpg,stim_fb/negf.jpg,stim_fb/posf.jpg,stim_02/a.jpg,stim_02/b.jpg,2,1,j,0,25,25,12,j,1,1.08305225073,02,02,60.0246754621,PLT_learning_02,N,2014_Feb_28_1310,P18,
stim_fb/ques.jpg,stim_fb/posf.jpg,stim_fb/negf.jpg,stim_02/f.jpg,stim_02/e.jpg,1,3,f,0,26,26,46,f,1,0.816439804212,02,02,60.0246754621,PLT_learning_02,N,2014_Feb_28_1310,P18,
stim_fb/ques.jpg,stim_fb/negf.jpg,stim_fb/posf.jpg,stim_02/a.jpg,stim_02/b.jpg,2,1,j,0,27,27,13,f,0,1.43291428485,02,02,60.0246754621,PLT_learning_02,N,2014_Feb_28_1310,P18,
stim_fb/ques.jpg,stim_fb/posf.jpg,stim_fb/negf.jpg,stim_02/e.jpg,stim_02/f.jpg,2,3,j,0,28,28,56,j,1,0.866428002797,02,02,60.0246754621,PLT_learning_02,N,2014_Feb_28_1310,P18,
stim_fb/ques.jpg,stim_fb/posf.jpg,stim_fb/negf.jpg,stim_02/e.jpg,stim_02/f.jpg,2,3,j,0,29,29,57,j,1,0.983065471688,02,02,60.0246754621,PLT_learning_02,N,2014_Feb_28_1310,P18,
stim_fb/ques.jpg,stim_fb/negf.jpg,stim_fb/posf.jpg,stim_02/f.jpg,stim_02/e.jpg,1,3,f,0,30,30,42,f,1,1.2663094503,02,02,60.0246754621,PLT_learning_02,N,2014_Feb_28_1310,P18,
stim_fb/ques.jpg,stim_fb/negf.jpg,stim_fb/posf.jpg,stim_02/d.jpg,stim_02/c.jpg,1,2,f,0,31,31,22,None,0,,02,02,60.0246754621,PLT_learning_02,N,2014_Feb_28_1310,P18,
stim_fb/ques.jpg,stim_fb/negf.jpg,stim_fb/posf.jpg,stim_02/e.jpg,stim_02/f.jpg,2,3,j,0,32,32,51,f,0,0.999714925452,02,02,60.0246754621,PLT_learning_02,N,2014_Feb_28_1310,P18,
stim_fb/ques.jpg,stim_fb/negf.jpg,stim_fb/posf.jpg,stim_02/c.jpg,stim_02/d.jpg,2,2,j,0,33,33,31,f,0,1.19965768678,02,02,60.0246754621,PLT_learning_02,N,2014_Feb_28_1310,P18,
stim_fb/ques.jpg,stim_fb/negf.jpg,stim_fb/posf.jpg,stim_02/d.jpg,stim_02/c.jpg,1,2,f,0,34,34,26,j,0,1.34959756694,02,02,60.0246754621,PLT_learning_02,N,2014_Feb_28_1310,P18,
stim_fb/ques.jpg,stim_fb/negf.jpg,stim_fb/posf.jpg,stim_02/b.jpg,stim_02/a.jpg,1,1,f,0,35,35,4,j,0,0.966406156345,02,02,60.0246754621,PLT_learning_02,N,2014_Feb_28_1310,P18,
stim_fb/ques.jpg,stim_fb/posf.jpg,stim_fb/negf.jpg,stim_02/d.jpg,stim_02/c.jpg,1,2,f,0,36,36,27,f,1,0.933084713649,02,02,60.0246754621,PLT_learning_02,N,2014_Feb_28_1310,P18,
stim_fb/ques.jpg,stim_fb/posf.jpg,stim_fb/negf.jpg,stim_02/d.jpg,stim_02/c.jpg,1,2,f,0,37,37,29,f,1,0.833112009684,02,02,60.0246754621,PLT_learning_02,N,2014_Feb_28_1310,P18,
stim_fb/ques.jpg,stim_fb/negf.jpg,stim_fb/posf.jpg,stim_02/b.jpg,stim_02/a.jpg,1,1,f,0,38,38,7,f,1,0.916412111187,02,02,60.0246754621,PLT_learning_02,N,2014_Feb_28_1310,P18,
stim_fb/ques.jpg,stim_fb/negf.jpg,stim_fb/posf.jpg,stim_02/c.jpg,stim_02/d.jpg,2,2,j,0,39,39,32,j,1,0.816411049541,02,02,60.0246754621,PLT_learning_02,N,2014_Feb_28_1310,P18,
stim_fb/ques.jpg,stim_fb/posf.jpg,stim_fb/negf.jpg,stim_02/c.jpg,stim_02/d.jpg,2,2,j,0,40,40,38,j,1,1.23297395959,02,02,60.0246754621,PLT_learning_02,N,2014_Feb_28_1310,P18,
stim_fb/ques.jpg,stim_fb/negf.jpg,stim_fb/posf.jpg,stim_02/b.jpg,stim_02/a.jpg,1,1,f,0,41,41,1,f,1,0.949736558372,02,02,60.0246754621,PLT_learning_02,N,2014_Feb_28_1310,P18,
stim_fb/ques.jpg,stim_fb/negf.jpg,stim_fb/posf.jpg,stim_02/d.jpg,stim_02/c.jpg,1,2,f,0,42,42,20,f,1,1.11634273126,02,02,60.0246754621,PLT_learning_02,N,2014_Feb_28_1310,P18,
stim_fb/ques.jpg,stim_fb/negf.jpg,stim_fb/posf.jpg,stim_02/a.jpg,stim_02/b.jpg,2,1,j,0,43,43,14,f,0,1.18300263607,02,02,60.0246754621,PLT_learning_02,N,2014_Feb_28_1310,P18,
stim_fb/ques.jpg,stim_fb/posf.jpg,stim_fb/negf.jpg,stim_02/c.jpg,stim_02/d.jpg,2,2,j,0,44,44,39,j,1,1.16632453591,02,02,60.0246754621,PLT_learning_02,N,2014_Feb_28_1310,P18,
stim_fb/ques.jpg,stim_fb/posf.jpg,stim_fb/negf.jpg,stim_02/e.jpg,stim_02/f.jpg,2,3,j,0,45,45,58,j,1,0.933035074925,02,02,60.0246754621,PLT_learning_02,N,2014_Feb_28_1310,P18,
stim_fb/ques.jpg,stim_fb/negf.jpg,stim_fb/posf.jpg,stim_02/b.jpg,stim_02/a.jpg,1,1,f,0,46,46,5,f,1,1.14969053767,02,02,60.0246754621,PLT_learning_02,N,2014_Feb_28_1310,P18,
stim_fb/ques.jpg,stim_fb/negf.jpg,stim_fb/posf.jpg,stim_02/d.jpg,stim_02/c.jpg,1,2,f,0,47,47,23,f,1,0.86641975925,02,02,60.0246754621,PLT_learning_02,N,2014_Feb_28_1310,P18,
stim_fb/ques.jpg,stim_fb/negf.jpg,stim_fb/posf.jpg,stim_02/e.jpg,stim_02/f.jpg,2,3,j,0,48,48,53,j,1,1.13302496974,02,02,60.0246754621,PLT_learning_02,N,2014_Feb_28_1310,P18,
stim_fb/ques.jpg,stim_fb/posf.jpg,stim_fb/negf.jpg,stim_02/b.jpg,stim_02/a.jpg,1,1,f,0,49,49,8,f,1,1.16635029812,02,02,60.0246754621,PLT_learning_02,N,2014_Feb_28_1310,P18,
stim_fb/ques.jpg,stim_fb/negf.jpg,stim_fb/posf.jpg,stim_02/a.jpg,stim_02/b.jpg,2,1,j,0,50,50,17,j,1,1.2329719957,02,02,60.0246754621,PLT_learning_02,N,2014_Feb_28_1310,P18,
stim_fb/ques.jpg,stim_fb/negf.jpg,stim_fb/posf.jpg,stim_02/b.jpg,stim_02/a.jpg,1,1,f,0,51,51,6,None,0,,02,02,60.0246754621,PLT_learning_02,N,2014_Feb_28_1310,P18,
stim_fb/ques.jpg,stim_fb/negf.jpg,stim_fb/posf.jpg,stim_02/c.jpg,stim_02/d.jpg,2,2,j,0,52,52,34,j,1,1.133007021,02,02,60.0246754621,PLT_learning_02,N,2014_Feb_28_1310,P18,
stim_fb/ques.jpg,stim_fb/posf.jpg,stim_fb/negf.jpg,stim_02/f.jpg,stim_02/e.jpg,1,3,f,0,53,53,48,f,1,0.883123338922,02,02,60.0246754621,PLT_learning_02,N,2014_Feb_28_1310,P18,
stim_fb/ques.jpg,stim_fb/negf.jpg,stim_fb/posf.jpg,stim_02/c.jpg,stim_02/d.jpg,2,2,j,0,54,54,36,j,1,0.933059137901,02,02,60.0246754621,PLT_learning_02,N,2014_Feb_28_1310,P18,
stim_fb/ques.jpg,stim_fb/posf.jpg,stim_fb/negf.jpg,stim_02/d.jpg,stim_02/c.jpg,1,2,f,0,55,55,28,f,1,1.24963095315,02,02,60.0246754621,PLT_learning_02,N,2014_Feb_28_1310,P18,
stim_fb/ques.jpg,stim_fb/negf.jpg,stim_fb/posf.jpg,stim_02/d.jpg,stim_02/c.jpg,1,2,f,0,56,56,21,j,0,1.382904315,02,02,60.0246754621,PLT_learning_02,N,2014_Feb_28_1310,P18,
stim_fb/ques.jpg,stim_fb/posf.jpg,stim_fb/negf.jpg,stim_02/f.jpg,stim_02/e.jpg,1,3,f,0,57,57,47,f,1,1.03304419967,02,02,60.0246754621,PLT_learning_02,N,2014_Feb_28_1310,P18,
stim_fb/ques.jpg,stim_fb/posf.jpg,stim_fb/negf.jpg,stim_02/e.jpg,stim_02/f.jpg,2,3,j,0,58,58,59,j,1,0.88312347426,02,02,60.0246754621,PLT_learning_02,N,2014_Feb_28_1310,P18,
stim_fb/ques.jpg,stim_fb/posf.jpg,stim_fb/negf.jpg,stim_02/a.jpg,stim_02/b.jpg,2,1,j,0,59,59,18,j,1,1.14968990609,02,02,60.0246754621,PLT_learning_02,N,2014_Feb_28_1310,P18,
stim_fb/ques.jpg,stim_fb/negf.jpg,stim_fb/posf.jpg,stim_02/c.jpg,stim_02/d.jpg,2,2,j,1,0,60,35,j,1,1.09969045646,02,02,60.0246754621,PLT_learning_02,N,2014_Feb_28_1310,P18,
stim_fb/ques.jpg,stim_fb/negf.jpg,stim_fb/posf.jpg,stim_02/a.jpg,stim_02/b.jpg,2,1,j,1,1,61,12,j,1,1.06635061992,02,02,60.0246754621,PLT_learning_02,N,2014_Feb_28_1310,P18,
stim_fb/ques.jpg,stim_fb/negf.jpg,stim_fb/posf.jpg,stim_02/e.jpg,stim_02/f.jpg,2,3,j,1,2,62,52,f,0,1.03301862693,02,02,60.0246754621,PLT_learning_02,N,2014_Feb_28_1310,P18,
stim_fb/ques.jpg,stim_fb/posf.jpg,stim_fb/negf.jpg,stim_02/d.jpg,stim_02/c.jpg,1,2,f,1,3,63,27,f,1,1.14965185224,02,02,60.0246754621,PLT_learning_02,N,2014_Feb_28_1310,P18,
stim_fb/ques.jpg,stim_fb/negf.jpg,stim_fb/posf.jpg,stim_02/a.jpg,stim_02/b.jpg,2,1,j,1,4,64,17,f,0,0.783093919595,02,02,60.0246754621,PLT_learning_02,N,2014_Feb_28_1310,P18,
stim_fb/ques.jpg,stim_fb/posf.jpg,stim_fb/negf.jpg,stim_02/d.jpg,stim_02/c.jpg,1,2,f,1,5,65,28,f,1,0.983100319546,02,02,60.0246754621,PLT_learning_02,N,2014_Feb_28_1310,P18,
stim_fb/ques.jpg,stim_fb/negf.jpg,stim_fb/posf.jpg,stim_02/a.jpg,stim_02/b.jpg,2,1,j,1,6,66,16,f,0,0.866422640431,02,02,60.0246754621,PLT_learning_02,N,2014_Feb_28_1310,P18,
stim_fb/ques.jpg,stim_fb/negf.jpg,stim_fb/posf.jpg,stim_02/c.jpg,stim_02/d.jpg,2,2,j,1,7,67,30,j,1,0.983059447673,02,02,60.0246754621,PLT_learning_02,N,2014_Feb_28_1310,P18,
stim_fb/ques.jpg,stim_fb/negf.jpg,stim_fb/posf.jpg,stim_02/f.jpg,stim_02/e.jpg,1,3,f,1,8,68,43,j,0,1.03306591379,02,02,60.0246754621,PLT_learning_02,N,2014_Feb_28_1310,P18,
stim_fb/ques.jpg,stim_fb/negf.jpg,stim_fb/posf.jpg,stim_02/c.jpg,stim_02/d.jpg,2,2,j,1,9,69,33,j,1,0.899749466545,02,02,60.0246754621,PLT_learning_02,N,2014_Feb_28_1310,P18,
stim_fb/ques.jpg,stim_fb/posf.jpg,stim_fb/negf.jpg,stim_02/f.jpg,stim_02/e.jpg,1,3,f,1,10,70,49,f,1,0.899756792806,02,02,60.0246754621,PLT_learning_02,N,2014_Feb_28_1310,P18,
stim_fb/ques.jpg,stim_fb/posf.jpg,stim_fb/negf.jpg,stim_02/f.jpg,stim_02/e.jpg,1,3,f,1,11,71,46,f,1,1.04971024579,02,02,60.0246754621,PLT_learning_02,N,2014_Feb_28_1310,P18,
stim_fb/ques.jpg,stim_fb/negf.jpg,stim_fb/posf.jpg,stim_02/b.jpg,stim_02/a.jpg,1,1,f,1,12,72,0,j,0,1.01533408019,02,02,60.0246754621,PLT_learning_02,N,2014_Feb_28_1310,P18,
stim_fb/ques.jpg,stim_fb/negf.jpg,stim_fb/posf.jpg,stim_02/c.jpg,stim_02/d.jpg,2,2,j,1,13,73,31,f,0,1.43291657356,02,02,60.0246754621,PLT_learning_02,N,2014_Feb_28_1310,P18,
stim_fb/ques.jpg,stim_fb/negf.jpg,stim_fb/posf.jpg,stim_02/f.jpg,stim_02/e.jpg,1,3,f,1,14,74,42,f,1,0.649839941053,02,02,60.0246754621,PLT_learning_02,N,2014_Feb_28_1310,P18,
stim_fb/ques.jpg,stim_fb/posf.jpg,stim_fb/negf.jpg,stim_02/d.jpg,stim_02/c.jpg,1,2,f,1,15,75,29,f,1,1.03302866595,02,02,60.0246754621,PLT_learning_02,N,2014_Feb_28_1310,P18,
stim_fb/ques.jpg,stim_fb/negf.jpg,stim_fb/posf.jpg,stim_02/f.jpg,stim_02/e.jpg,1,3,f,1,16,76,41,f,1,1.06630562778,02,02,60.0246754621,PLT_learning_02,N,2014_Feb_28_1310,P18,
stim_fb/ques.jpg,stim_fb/negf.jpg,stim_fb/posf.jpg,stim_02/b.jpg,stim_02/a.jpg,1,1,f,1,17,77,5,f,1,1.29961125706,02,02,60.0246754621,PLT_learning_02,N,2014_Feb_28_1310,P18,
stim_fb/ques.jpg,stim_fb/negf.jpg,stim_fb/posf.jpg,stim_02/b.jpg,stim_02/a.jpg,1,1,f,1,18,78,6,f,1,0.633154403351,02,02,60.0246754621,PLT_learning_02,N,2014_Feb_28_1310,P18,
stim_fb/ques.jpg,stim_fb/posf.jpg,stim_fb/negf.jpg,stim_02/e.jpg,stim_02/f.jpg,2,3,j,1,19,79,58,j,1,0.966398403019,02,02,60.0246754621,PLT_learning_02,N,2014_Feb_28_1310,P18,
stim_fb/ques.jpg,stim_fb/negf.jpg,stim_fb/posf.jpg,stim_02/f.jpg,stim_02/e.jpg,1,3,f,1,20,80,45,f,1,0.733143816964,02,02,60.0246754621,PLT_learning_02,N,2014_Feb_28_1310,P18,
stim_fb/ques.jpg,stim_fb/negf.jpg,stim_fb/posf.jpg,stim_02/b.jpg,stim_02/a.jpg,1,1,f,1,21,81,4,f,1,1.31628895422,02,02,60.0246754621,PLT_learning_02,N,2014_Feb_28_1310,P18,
stim_fb/ques.jpg,stim_fb/negf.jpg,stim_fb/posf.jpg,stim_02/b.jpg,stim_02/a.jpg,1,1,f,1,22,82,7,f,1,0.799794374478,02,02,60.0246754621,PLT_learning_02,N,2014_Feb_28_1310,P18,
stim_fb/ques.jpg,stim_fb/negf.jpg,stim_fb/posf.jpg,stim_02/d.jpg,stim_02/c.jpg,1,2,f,1,23,83,26,f,1,1.11635680935,02,02,60.0246754621,PLT_learning_02,N,2014_Feb_28_1310,P18,
stim_fb/ques.jpg,stim_fb/negf.jpg,stim_fb/posf.jpg,stim_02/e.jpg,stim_02/f.jpg,2,3,j,1,24,84,55,f,0,1.23298446177,02,02,60.0246754621,PLT_learning_02,N,2014_Feb_28_1310,P18,
stim_fb/ques.jpg,stim_fb/negf.jpg,stim_fb/posf.jpg,stim_02/a.jpg,stim_02/b.jpg,2,1,j,1,25,85,15,j,1,1.36623664784,02,02,60.0246754621,PLT_learning_02,N,2014_Feb_28_1310,P18,
stim_fb/ques.jpg,stim_fb/posf.jpg,stim_fb/negf.jpg,stim_02/b.jpg,stim_02/a.jpg,1,1,f,1,26,86,9,f,1,0.749817646484,02,02,60.0246754621,PLT_learning_02,N,2014_Feb_28_1310,P18,
stim_fb/ques.jpg,stim_fb/negf.jpg,stim_fb/posf.jpg,stim_02/e.jpg,stim_02/f.jpg,2,3,j,1,27,87,54,j,1,0.683200384959,02,02,60.0246754621,PLT_learning_02,N,2014_Feb_28_1310,P18,
stim_fb/ques.jpg,stim_fb/posf.jpg,stim_fb/negf.jpg,stim_02/a.jpg,stim_02/b.jpg,2,1,j,1,28,88,19,j,1,0.883072632537,02,02,60.0246754621,PLT_learning_02,N,2014_Feb_28_1310,P18,
stim_fb/ques.jpg,stim_fb/negf.jpg,stim_fb/posf.jpg,stim_02/a.jpg,stim_02/b.jpg,2,1,j,1,29,89,14,j,1,0.766453244712,02,02,60.0246754621,PLT_learning_02,N,2014_Feb_28_1310,P18,
stim_fb/ques.jpg,stim_fb/posf.jpg,stim_fb/negf.jpg,stim_02/c.jpg,stim_02/d.jpg,2,2,j,1,30,90,38,j,1,0.99972992985,02,02,60.0246754621,PLT_learning_02,N,2014_Feb_28_1310,P18,
stim_fb/ques.jpg,stim_fb/negf.jpg,stim_fb/posf.jpg,stim_02/d.jpg,stim_02/c.jpg,1,2,f,1,31,91,25,j,0,1.19966971677,02,02,60.0246754621,PLT_learning_02,N,2014_Feb_28_1310,P18,
stim_fb/ques.jpg,stim_fb/posf.jpg,stim_fb/negf.jpg,stim_02/f.jpg,stim_02/e.jpg,1,3,f,1,32,92,48,f,1,1.03304545379,02,02,60.0246754621,PLT_learning_02,N,2014_Feb_28_1310,P18,
stim_fb/ques.jpg,stim_fb/negf.jpg,stim_fb/posf.jpg,stim_02/c.jpg,stim_02/d.jpg,2,2,j,1,33,93,34,j,1,0.966374189667,02,02,60.0246754621,PLT_learning_02,N,2014_Feb_28_1310,P18,
stim_fb/ques.jpg,stim_fb/posf.jpg,stim_fb/negf.jpg,stim_02/c.jpg,stim_02/d.jpg,2,2,j,1,34,94,37,j,1,0.783120893828,02,02,60.0246754621,PLT_learning_02,N,2014_Feb_28_1310,P18,
stim_fb/ques.jpg,stim_fb/negf.jpg,stim_fb/posf.jpg,stim_02/e.jpg,stim_02/f.jpg,2,3,j,1,35,95,53,j,1,0.866450537966,02,02,60.0246754621,PLT_learning_02,N,2014_Feb_28_1310,P18,
stim_fb/ques.jpg,stim_fb/negf.jpg,stim_fb/posf.jpg,stim_02/b.jpg,stim_02/a.jpg,1,1,f,1,36,96,2,f,1,0.949745090638,02,02,60.0246754621,PLT_learning_02,N,2014_Feb_28_1310,P18,
stim_fb/ques.jpg,stim_fb/negf.jpg,stim_fb/posf.jpg,stim_02/d.jpg,stim_02/c.jpg,1,2,f,1,37,97,23,f,1,0.866405269133,02,02,60.0246754621,PLT_learning_02,N,2014_Feb_28_1310,P18,
stim_fb/ques.jpg,stim_fb/negf.jpg,stim_fb/posf.jpg,stim_02/f.jpg,stim_02/e.jpg,1,3,f,1,38,98,40,f,1,0.966380670822,02,02,60.0246754621,PLT_learning_02,N,2014_Feb_28_1310,P18,
stim_fb/ques.jpg,stim_fb/negf.jpg,stim_fb/posf.jpg,stim_02/d.jpg,stim_02/c.jpg,1,2,f,1,39,99,21,f,1,0.899699906016,02,02,60.0246754621,PLT_learning_02,N,2014_Feb_28_1310,P18,
stim_fb/ques.jpg,stim_fb/posf.jpg,stim_fb/negf.jpg,stim_02/e.jpg,stim_02/f.jpg,2,3,j,1,40,100,59,j,1,0.649824296058,02,02,60.0246754621,PLT_learning_02,N,2014_Feb_28_1310,P18,
stim_fb/ques.jpg,stim_fb/negf.jpg,stim_fb/posf.jpg,stim_02/d.jpg,stim_02/c.jpg,1,2,f,1,41,101,22,f,1,0.833111883369,02,02,60.0246754621,PLT_learning_02,N,2014_Feb_28_1310,P18,
stim_fb/ques.jpg,stim_fb/negf.jpg,stim_fb/posf.jpg,stim_02/d.jpg,stim_02/c.jpg,1,2,f,1,42,102,24,f,1,1.08311016609,02,02,60.0246754621,PLT_learning_02,N,2014_Feb_28_1310,P18,
stim_fb/ques.jpg,stim_fb/posf.jpg,stim_fb/negf.jpg,stim_02/c.jpg,stim_02/d.jpg,2,2,j,1,43,103,39,j,1,0.849745241013,02,02,60.0246754621,PLT_learning_02,N,2014_Feb_28_1310,P18,
stim_fb/ques.jpg,stim_fb/negf.jpg,stim_fb/posf.jpg,stim_02/c.jpg,stim_02/d.jpg,2,2,j,1,44,104,32,j,1,0.649829977218,02,02,60.0246754621,PLT_learning_02,N,2014_Feb_28_1310,P18,
stim_fb/ques.jpg,stim_fb/negf.jpg,stim_fb/posf.jpg,stim_02/d.jpg,stim_02/c.jpg,1,2,f,1,45,105,20,f,1,0.833109176622,02,02,60.0246754621,PLT_learning_02,N,2014_Feb_28_1310,P18,
stim_fb/ques.jpg,stim_fb/posf.jpg,stim_fb/negf.jpg,stim_02/a.jpg,stim_02/b.jpg,2,1,j,1,46,106,18,j,1,0.716463749897,02,02,60.0246754621,PLT_learning_02,N,2014_Feb_28_1310,P18,
stim_fb/ques.jpg,stim_fb/negf.jpg,stim_fb/posf.jpg,stim_02/a.jpg,stim_02/b.jpg,2,1,j,1,47,107,13,j,1,0.733120920895,02,02,60.0246754621,PLT_learning_02,N,2014_Feb_28_1310,P18,
stim_fb/ques.jpg,stim_fb/negf.jpg,stim_fb/posf.jpg,stim_02/b.jpg,stim_02/a.jpg,1,1,f,1,48,108,3,f,1,0.883095513567,02,02,60.0246754621,PLT_learning_02,N,2014_Feb_28_1310,P18,
stim_fb/ques.jpg,stim_fb/negf.jpg,stim_fb/posf.jpg,stim_02/f.jpg,stim_02/e.jpg,1,3,f,1,49,109,44,f,1,0.816469647597,02,02,60.0246754621,PLT_learning_02,N,2014_Feb_28_1310,P18,
stim_fb/ques.jpg,stim_fb/posf.jpg,stim_fb/negf.jpg,stim_02/f.jpg,stim_02/e.jpg,1,3,f,1,50,110,47,f,1,0.599862512311,02,02,60.0246754621,PLT_learning_02,N,2014_Feb_28_1310,P18,
stim_fb/ques.jpg,stim_fb/posf.jpg,stim_fb/negf.jpg,stim_02/e.jpg,stim_02/f.jpg,2,3,j,1,51,111,56,j,1,0.616510907436,02,02,60.0246754621,PLT_learning_02,N,2014_Feb_28_1310,P18,
stim_fb/ques.jpg,stim_fb/posf.jpg,stim_fb/negf.jpg,stim_02/b.jpg,stim_02/a.jpg,1,1,f,1,52,112,8,f,1,0.783128042646,02,02,60.0246754621,PLT_learning_02,N,2014_Feb_28_1310,P18,
stim_fb/ques.jpg,stim_fb/negf.jpg,stim_fb/posf.jpg,stim_02/b.jpg,stim_02/a.jpg,1,1,f,1,53,113,1,f,1,0.666493903053,02,02,60.0246754621,PLT_learning_02,N,2014_Feb_28_1310,P18,
stim_fb/ques.jpg,stim_fb/posf.jpg,stim_fb/negf.jpg,stim_02/e.jpg,stim_02/f.jpg,2,3,j,1,54,114,57,j,1,0.616535608003,02,02,60.0246754621,PLT_learning_02,N,2014_Feb_28_1310,P18,
stim_fb/ques.jpg,stim_fb/negf.jpg,stim_fb/posf.jpg,stim_02/c.jpg,stim_02/d.jpg,2,2,j,1,55,115,36,j,1,0.883107603702,02,02,60.0246754621,PLT_learning_02,N,2014_Feb_28_1310,P18,
stim_fb/ques.jpg,stim_fb/negf.jpg,stim_fb/posf.jpg,stim_02/e.jpg,stim_02/f.jpg,2,3,j,1,56,116,50,j,1,0.599843195164,02,02,60.0246754621,PLT_learning_02,N,2014_Feb_28_1310,P18,
stim_fb/ques.jpg,stim_fb/negf.jpg,stim_fb/posf.jpg,stim_02/a.jpg,stim_02/b.jpg,2,1,j,1,57,117,10,j,1,0.716459551431,02,02,60.0246754621,PLT_learning_02,N,2014_Feb_28_1310,P18,
stim_fb/ques.jpg,stim_fb/negf.jpg,stim_fb/posf.jpg,stim_02/e.jpg,stim_02/f.jpg,2,3,j,1,58,118,51,j,1,0.78311711942,02,02,60.0246754621,PLT_learning_02,N,2014_Feb_28_1310,P18,
stim_fb/ques.jpg,stim_fb/negf.jpg,stim_fb/posf.jpg,stim_02/a.jpg,stim_02/b.jpg,2,1,j,1,59,119,11,j,1,0.699816987842,02,02,60.0246754621,PLT_learning_02,N,2014_Feb_28_1310,P18,
stim_fb/ques.jpg,stim_fb/negf.jpg,stim_fb/posf.jpg,stim_02/c.jpg,stim_02/d.jpg,2,2,j,2,0,120,32,j,1,0.999770179172,02,02,60.0246754621,PLT_learning_02,N,2014_Feb_28_1310,P18,
stim_fb/ques.jpg,stim_fb/negf.jpg,stim_fb/posf.jpg,stim_02/a.jpg,stim_02/b.jpg,2,1,j,2,1,121,14,j,1,0.616507878888,02,02,60.0246754621,PLT_learning_02,N,2014_Feb_28_1310,P18,
stim_fb/ques.jpg,stim_fb/negf.jpg,stim_fb/posf.jpg,stim_02/f.jpg,stim_02/e.jpg,1,3,f,2,2,122,40,f,1,0.599870816009,02,02,60.0246754621,PLT_learning_02,N,2014_Feb_28_1310,P18,
stim_fb/ques.jpg,stim_fb/negf.jpg,stim_fb/posf.jpg,stim_02/c.jpg,stim_02/d.jpg,2,2,j,2,3,123,31,j,1,0.899750726686,02,02,60.0246754621,PLT_learning_02,N,2014_Feb_28_1310,P18,
stim_fb/ques.jpg,stim_fb/posf.jpg,stim_fb/negf.jpg,stim_02/a.jpg,stim_02/b.jpg,2,1,j,2,4,124,18,j,1,0.716484399365,02,02,60.0246754621,PLT_learning_02,N,2014_Feb_28_1310,P18,
stim_fb/ques.jpg,stim_fb/negf.jpg,stim_fb/posf.jpg,stim_02/a.jpg,stim_02/b.jpg,2,1,j,2,5,125,10,j,1,0.733151507132,02,02,60.0246754621,PLT_learning_02,N,2014_Feb_28_1310,P18,
stim_fb/ques.jpg,stim_fb/negf.jpg,stim_fb/posf.jpg,stim_02/a.jpg,stim_02/b.jpg,2,1,j,2,6,126,17,j,1,0.866422246449,02,02,60.0246754621,PLT_learning_02,N,2014_Feb_28_1310,P18,
stim_fb/ques.jpg,stim_fb/negf.jpg,stim_fb/posf.jpg,stim_02/b.jpg,stim_02/a.jpg,1,1,f,2,7,127,6,f,1,0.966350722175,02,02,60.0246754621,PLT_learning_02,N,2014_Feb_28_1310,P18,
stim_fb/ques.jpg,stim_fb/negf.jpg,stim_fb/posf.jpg,stim_02/d.jpg,stim_02/c.jpg,1,2,f,2,8,128,25,f,1,1.09971063676,02,02,60.0246754621,PLT_learning_02,N,2014_Feb_28_1310,P18,
stim_fb/ques.jpg,stim_fb/posf.jpg,stim_fb/negf.jpg,stim_02/f.jpg,stim_02/e.jpg,1,3,f,2,9,129,49,f,1,0.966409663085,02,02,60.0246754621,PLT_learning_02,N,2014_Feb_28_1310,P18,
stim_fb/ques.jpg,stim_fb/negf.jpg,stim_fb/posf.jpg,stim_02/e.jpg,stim_02/f.jpg,2,3,j,2,10,130,50,j,1,0.650013708168,02,02,60.0246754621,PLT_learning_02,N,2014_Feb_28_1310,P18,
stim_fb/ques.jpg,stim_fb/posf.jpg,stim_fb/negf.jpg,stim_02/e.jpg,stim_02/f.jpg,2,3,j,2,11,131,56,j,1,0.584160570222,02,02,60.0246754621,PLT_learning_02,N,2014_Feb_28_1310,P18,
stim_fb/ques.jpg,stim_fb/posf.jpg,stim_fb/negf.jpg,stim_02/c.jpg,stim_02/d.jpg,2,2,j,2,12,132,39,j,1,1.04965882663,02,02,60.0246754621,PLT_learning_02,N,2014_Feb_28_1310,P18,
stim_fb/ques.jpg,stim_fb/posf.jpg,stim_fb/negf.jpg,stim_02/b.jpg,stim_02/a.jpg,1,1,f,2,13,133,8,f,1,1.16629707747,02,02,60.0246754621,PLT_learning_02,N,2014_Feb_28_1310,P18,
stim_fb/ques.jpg,stim_fb/negf.jpg,stim_fb/posf.jpg,stim_02/f.jpg,stim_02/e.jpg,1,3,f,2,14,134,44,f,1,0.899781234728,02,02,60.0246754621,PLT_learning_02,N,2014_Feb_28_1310,P18,
stim_fb/ques.jpg,stim_fb/negf.jpg,stim_fb/posf.jpg,stim_02/a.jpg,stim_02/b.jpg,2,1,j,2,15,135,16,j,1,0.733147672574,02,02,60.0246754621,PLT_learning_02,N,2014_Feb_28_1310,P18,
stim_fb/ques.jpg,stim_fb/negf.jpg,stim_fb/posf.jpg,stim_02/d.jpg,stim_02/c.jpg,1,2,f,2,16,136,22,f,1,0.98306449726,02,02,60.0246754621,PLT_learning_02,N,2014_Feb_28_1310,P18,
stim_fb/ques.jpg,stim_fb/negf.jpg,stim_fb/posf.jpg,stim_02/e.jpg,stim_02/f.jpg,2,3,j,2,17,137,52,j,1,0.616515941985,02,02,60.0246754621,PLT_learning_02,N,2014_Feb_28_1310,P18,
stim_fb/ques.jpg,stim_fb/posf.jpg,stim_fb/negf.jpg,stim_02/c.jpg,stim_02/d.jpg,2,2,j,2,18,138,37,j,1,0.883092749679,02,02,60.0246754621,PLT_learning_02,N,2014_Feb_28_1310,P18,
stim_fb/ques.jpg,stim_fb/negf.jpg,stim_fb/posf.jpg,stim_02/b.jpg,stim_02/a.jpg,1,1,f,2,19,139,5,f,1,0.866434495982,02,02,60.0246754621,PLT_learning_02,N,2014_Feb_28_1310,P18,
stim_fb/ques.jpg,stim_fb/negf.jpg,stim_fb/posf.jpg,stim_02/d.jpg,stim_02/c.jpg,1,2,f,2,20,140,20,f,1,0.999737932798,02,02,60.0246754621,PLT_learning_02,N,2014_Feb_28_1310,P18,
stim_fb/ques.jpg,stim_fb/negf.jpg,stim_fb/posf.jpg,stim_02/f.jpg,stim_02/e.jpg,1,3,f,2,21,141,41,f,1,0.883109549553,02,02,60.0246754621,PLT_learning_02,N,2014_Feb_28_1310,P18,
stim_fb/ques.jpg,stim_fb/negf.jpg,stim_fb/posf.jpg,stim_02/d.jpg,stim_02/c.jpg,1,2,f,2,22,142,21,f,1,0.833104933045,02,02,60.0246754621,PLT_learning_02,N,2014_Feb_28_1310,P18,
stim_fb/ques.jpg,stim_fb/negf.jpg,stim_fb/posf.jpg,stim_02/c.jpg,stim_02/d.jpg,2,2,j,2,23,143,33,j,1,0.983020287065,02,02,60.0246754621,PLT_learning_02,N,2014_Feb_28_1310,P18,
stim_fb/ques.jpg,stim_fb/posf.jpg,stim_fb/negf.jpg,stim_02/e.jpg,stim_02/f.jpg,2,3,j,2,24,144,58,j,1,1.01638229788,02,02,60.0246754621,PLT_learning_02,N,2014_Feb_28_1310,P18,
stim_fb/ques.jpg,stim_fb/negf.jpg,stim_fb/posf.jpg,stim_02/b.jpg,stim_02/a.jpg,1,1,f,2,25,145,3,f,1,0.899751063525,02,02,60.0246754621,PLT_learning_02,N,2014_Feb_28_1310,P18,
stim_fb/ques.jpg,stim_fb/posf.jpg,stim_fb/negf.jpg,stim_02/d.jpg,stim_02/c.jpg,1,2,f,2,26,146,28,f,1,0.849814124706,02,02,60.0246754621,PLT_learning_02,N,2014_Feb_28_1310,P18,
stim_fb/ques.jpg,stim_fb/negf.jpg,stim_fb/posf.jpg,stim_02/f.jpg,stim_02/e.jpg,1,3,f,2,27,147,43,f,1,0.766464158916,02,02,60.0246754621,PLT_learning_02,N,2014_Feb_28_1310,P18,
stim_fb/ques.jpg,stim_fb/posf.jpg,stim_fb/negf.jpg,stim_02/c.jpg,stim_02/d.jpg,2,2,j,2,28,148,38,j,1,0.999706059353,02,02,60.0246754621,PLT_learning_02,N,2014_Feb_28_1310,P18,
stim_fb/ques.jpg,stim_fb/negf.jpg,stim_fb/posf.jpg,stim_02/e.jpg,stim_02/f.jpg,2,3,j,2,29,149,51,j,1,0.799783138472,02,02,60.0246754621,PLT_learning_02,N,2014_Feb_28_1310,P18,
stim_fb/ques.jpg,stim_fb/negf.jpg,stim_fb/posf.jpg,stim_02/f.jpg,stim_02/e.jpg,1,3,f,2,30,150,45,f,1,0.549873958842,02,02,60.0246754621,PLT_learning_02,N,2014_Feb_28_1310,P18,
stim_fb/ques.jpg,stim_fb/negf.jpg,stim_fb/posf.jpg,stim_02/c.jpg,stim_02/d.jpg,2,2,j,2,31,151,36,j,1,0.916416562281,02,02,60.0246754621,PLT_learning_02,N,2014_Feb_28_1310,P18,
stim_fb/ques.jpg,stim_fb/negf.jpg,stim_fb/posf.jpg,stim_02/a.jpg,stim_02/b.jpg,2,1,j,2,32,152,15,j,1,1.11634432523,02,02,60.0246754621,PLT_learning_02,N,2014_Feb_28_1310,P18,
stim_fb/ques.jpg,stim_fb/posf.jpg,stim_fb/negf.jpg,stim_02/f.jpg,stim_02/e.jpg,1,3,f,2,33,153,46,f,1,0.699816756265,02,02,60.0246754621,PLT_learning_02,N,2014_Feb_28_1310,P18,
stim_fb/ques.jpg,stim_fb/posf.jpg,stim_fb/negf.jpg,stim_02/f.jpg,stim_02/e.jpg,1,3,f,2,34,154,47,f,1,0.633195242141,02,02,60.0246754621,PLT_learning_02,N,2014_Feb_28_1310,P18,
stim_fb/ques.jpg,stim_fb/posf.jpg,stim_fb/negf.jpg,stim_02/b.jpg,stim_02/a.jpg,1,1,f,2,35,155,9,f,1,0.883083973805,02,02,60.0246754621,PLT_learning_02,N,2014_Feb_28_1310,P18,
stim_fb/ques.jpg,stim_fb/negf.jpg,stim_fb/posf.jpg,stim_02/c.jpg,stim_02/d.jpg,2,2,j,2,36,156,35,j,1,1.2662928399,02,02,60.0246754621,PLT_learning_02,N,2014_Feb_28_1310,P18,
stim_fb/ques.jpg,stim_fb/negf.jpg,stim_fb/posf.jpg,stim_02/a.jpg,stim_02/b.jpg,2,1,j,2,37,157,13,j,1,0.699841504951,02,02,60.0246754621,PLT_learning_02,N,2014_Feb_28_1310,P18,
stim_fb/ques.jpg,stim_fb/negf.jpg,stim_fb/posf.jpg,stim_02/d.jpg,stim_02/c.jpg,1,2,f,2,38,158,26,f,1,0.91640343456,02,02,60.0246754621,PLT_learning_02,N,2014_Feb_28_1310,P18,
stim_fb/ques.jpg,stim_fb/negf.jpg,stim_fb/posf.jpg,stim_02/d.jpg,stim_02/c.jpg,1,2,f,2,39,159,24,f,1,0.816503121029,02,02,60.0246754621,PLT_learning_02,N,2014_Feb_28_1310,P18,
stim_fb/ques.jpg,stim_fb/posf.jpg,stim_fb/negf.jpg,stim_02/e.jpg,stim_02/f.jpg,2,3,j,2,40,160,57,j,1,0.799794837632,02,02,60.0246754621,PLT_learning_02,N,2014_Feb_28_1310,P18,
stim_fb/ques.jpg,stim_fb/negf.jpg,stim_fb/posf.jpg,stim_02/b.jpg,stim_02/a.jpg,1,1,f,2,41,161,4,f,1,0.833132689228,02,02,60.0246754621,PLT_learning_02,N,2014_Feb_28_1310,P18,
stim_fb/ques.jpg,stim_fb/negf.jpg,stim_fb/posf.jpg,stim_02/d.jpg,stim_02/c.jpg,1,2,f,2,42,162,23,f,1,1.06633706213,02,02,60.0246754621,PLT_learning_02,N,2014_Feb_28_1310,P18,
stim_fb/ques.jpg,stim_fb/negf.jpg,stim_fb/posf.jpg,stim_02/e.jpg,stim_02/f.jpg,2,3,j,2,43,163,53,j,1,0.949698700009,02,02,60.0246754621,PLT_learning_02,N,2014_Feb_28_1310,P18,
stim_fb/ques.jpg,stim_fb/posf.jpg,stim_fb/negf.jpg,stim_02/a.jpg,stim_02/b.jpg,2,1,j,2,44,164,19,j,1,0.816452137953,02,02,60.0246754621,PLT_learning_02,N,2014_Feb_28_1310,P18,
stim_fb/ques.jpg,stim_fb/negf.jpg,stim_fb/posf.jpg,stim_02/b.jpg,stim_02/a.jpg,1,1,f,2,45,165,2,f,1,0.733194105308,02,02,60.0246754621,PLT_learning_02,N,2014_Feb_28_1310,P18,
stim_fb/ques.jpg,stim_fb/negf.jpg,stim_fb/posf.jpg,stim_02/c.jpg,stim_02/d.jpg,2,2,j,2,46,166,34,j,1,0.916357467989,02,02,60.0246754621,PLT_learning_02,N,2014_Feb_28_1310,P18,
stim_fb/ques.jpg,stim_fb/negf.jpg,stim_fb/posf.jpg,stim_02/c.jpg,stim_02/d.jpg,2,2,j,2,47,167,30,j,1,0.799803721777,02,02,60.0246754621,PLT_learning_02,N,2014_Feb_28_1310,P18,
stim_fb/ques.jpg,stim_fb/negf.jpg,stim_fb/posf.jpg,stim_02/b.jpg,stim_02/a.jpg,1,1,f,2,48,168,1,f,1,0.849772786671,02,02,60.0246754621,PLT_learning_02,N,2014_Feb_28_1310,P18,
stim_fb/ques.jpg,stim_fb/negf.jpg,stim_fb/posf.jpg,stim_02/a.jpg,stim_02/b.jpg,2,1,j,2,49,169,12,j,1,0.649802329306,02,02,60.0246754621,PLT_learning_02,N,2014_Feb_28_1310,P18,
stim_fb/ques.jpg,stim_fb/posf.jpg,stim_fb/negf.jpg,stim_02/e.jpg,stim_02/f.jpg,2,3,j,2,50,170,59,j,1,0.683135092218,02,02,60.0246754621,PLT_learning_02,N,2014_Feb_28_1310,P18,
stim_fb/ques.jpg,stim_fb/negf.jpg,stim_fb/posf.jpg,stim_02/b.jpg,stim_02/a.jpg,1,1,f,2,51,171,7,f,1,0.849770940068,02,02,60.0246754621,PLT_learning_02,N,2014_Feb_28_1310,P18,
stim_fb/ques.jpg,stim_fb/posf.jpg,stim_fb/negf.jpg,stim_02/f.jpg,stim_02/e.jpg,1,3,f,2,52,172,48,f,1,0.59984777558,02,02,60.0246754621,PLT_learning_02,N,2014_Feb_28_1310,P18,
stim_fb/ques.jpg,stim_fb/posf.jpg,stim_fb/negf.jpg,stim_02/d.jpg,stim_02/c.jpg,1,2,f,2,53,173,29,f,1,0.933074437035,02,02,60.0246754621,PLT_learning_02,N,2014_Feb_28_1310,P18,
stim_fb/ques.jpg,stim_fb/negf.jpg,stim_fb/posf.jpg,stim_02/e.jpg,stim_02/f.jpg,2,3,j,2,54,174,55,j,1,0.63317070398,02,02,60.0246754621,PLT_learning_02,N,2014_Feb_28_1310,P18,
stim_fb/ques.jpg,stim_fb/negf.jpg,stim_fb/posf.jpg,stim_02/b.jpg,stim_02/a.jpg,1,1,f,2,55,175,0,f,1,0.749823201329,02,02,60.0246754621,PLT_learning_02,N,2014_Feb_28_1310,P18,
stim_fb/ques.jpg,stim_fb/negf.jpg,stim_fb/posf.jpg,stim_02/f.jpg,stim_02/e.jpg,1,3,f,2,56,176,42,f,1,0.66649263389,02,02,60.0246754621,PLT_learning_02,N,2014_Feb_28_1310,P18,
stim_fb/ques.jpg,stim_fb/negf.jpg,stim_fb/posf.jpg,stim_02/e.jpg,stim_02/f.jpg,2,3,j,2,57,177,54,j,1,0.533244483877,02,02,60.0246754621,PLT_learning_02,N,2014_Feb_28_1310,P18,
stim_fb/ques.jpg,stim_fb/posf.jpg,stim_fb/negf.jpg,stim_02/d.jpg,stim_02/c.jpg,1,2,f,2,58,178,27,f,1,0.749810281126,02,02,60.0246754621,PLT_learning_02,N,2014_Feb_28_1310,P18,
stim_fb/ques.jpg,stim_fb/negf.jpg,stim_fb/posf.jpg,stim_02/a.jpg,stim_02/b.jpg,2,1,j,2,59,179,11,j,1,0.749800912775,02,02,60.0246754621,PLT_learning_02,N,2014_Feb_28_1310,P18,
stim_fb/ques.jpg,stim_fb/posf.jpg,stim_fb/negf.jpg,stim_02/b.jpg,stim_02/a.jpg,1,1,f,3,0,180,9,f,1,0.7997933399,02,02,60.0246754621,PLT_learning_02,N,2014_Feb_28_1310,P18,
stim_fb/ques.jpg,stim_fb/negf.jpg,stim_fb/posf.jpg,stim_02/f.jpg,stim_02/e.jpg,1,3,f,3,1,181,40,f,1,0.783122274269,02,02,60.0246754621,PLT_learning_02,N,2014_Feb_28_1310,P18,
stim_fb/ques.jpg,stim_fb/negf.jpg,stim_fb/posf.jpg,stim_02/e.jpg,stim_02/f.jpg,2,3,j,3,2,182,54,j,1,0.616533890723,02,02,60.0246754621,PLT_learning_02,N,2014_Feb_28_1310,P18,
stim_fb/ques.jpg,stim_fb/posf.jpg,stim_fb/negf.jpg,stim_02/d.jpg,stim_02/c.jpg,1,2,f,3,3,183,29,f,1,0.999701728559,02,02,60.0246754621,PLT_learning_02,N,2014_Feb_28_1310,P18,
stim_fb/ques.jpg,stim_fb/posf.jpg,stim_fb/negf.jpg,stim_02/e.jpg,stim_02/f.jpg,2,3,j,3,4,184,58,j,1,0.64985056353,02,02,60.0246754621,PLT_learning_02,N,2014_Feb_28_1310,P18,
stim_fb/ques.jpg,stim_fb/posf.jpg,stim_fb/negf.jpg,stim_02/d.jpg,stim_02/c.jpg,1,2,f,3,5,185,28,f,1,0.883057104834,02,02,60.0246754621,PLT_learning_02,N,2014_Feb_28_1310,P18,
stim_fb/ques.jpg,stim_fb/negf.jpg,stim_fb/posf.jpg,stim_02/c.jpg,stim_02/d.jpg,2,2,j,3,6,186,35,j,1,0.849794323351,02,02,60.0246754621,PLT_learning_02,N,2014_Feb_28_1310,P18,
stim_fb/ques.jpg,stim_fb/posf.jpg,stim_fb/negf.jpg,stim_02/d.jpg,stim_02/c.jpg,1,2,f,3,7,187,27,f,1,0.899722982535,02,02,60.0246754621,PLT_learning_02,N,2014_Feb_28_1310,P18,
stim_fb/ques.jpg,stim_fb/negf.jpg,stim_fb/posf.jpg,stim_02/e.jpg,stim_02/f.jpg,2,3,j,3,8,188,51,j,1,0.749831586229,02,02,60.0246754621,PLT_learning_02,N,2014_Feb_28_1310,P18,
stim_fb/ques.jpg,stim_fb/negf.jpg,stim_fb/posf.jpg,stim_02/d.jpg,stim_02/c.jpg,1,2,f,3,9,189,26,f,1,0.883105919504,02,02,60.0246754621,PLT_learning_02,N,2014_Feb_28_1310,P18,
stim_fb/ques.jpg,stim_fb/negf.jpg,stim_fb/posf.jpg,stim_02/b.jpg,stim_02/a.jpg,1,1,f,3,10,190,0,f,1,0.799784720415,02,02,60.0246754621,PLT_learning_02,N,2014_Feb_28_1310,P18,
stim_fb/ques.jpg,stim_fb/negf.jpg,stim_fb/posf.jpg,stim_02/a.jpg,stim_02/b.jpg,2,1,j,3,11,191,12,j,1,1.08299818798,02,02,60.0246754621,PLT_learning_02,N,2014_Feb_28_1310,P18,
stim_fb/ques.jpg,stim_fb/negf.jpg,stim_fb/posf.jpg,stim_02/c.jpg,stim_02/d.jpg,2,2,j,3,12,192,33,j,1,0.88309089706,02,02,60.0246754621,PLT_learning_02,N,2014_Feb_28_1310,P18,
stim_fb/ques.jpg,stim_fb/negf.jpg,stim_fb/posf.jpg,stim_02/c.jpg,stim_02/d.jpg,2,2,j,3,13,193,34,j,1,1.08302768851,02,02,60.0246754621,PLT_learning_02,N,2014_Feb_28_1310,P18,
stim_fb/ques.jpg,stim_fb/posf.jpg,stim_fb/negf.jpg,stim_02/e.jpg,stim_02/f.jpg,2,3,j,3,14,194,59,j,1,0.666491424877,02,02,60.0246754621,PLT_learning_02,N,2014_Feb_28_1310,P18,
stim_fb/ques.jpg,stim_fb/posf.jpg,stim_fb/negf.jpg,stim_02/e.jpg,stim_02/f.jpg,2,3,j,3,15,195,56,j,1,0.69981724348,02,02,60.0246754621,PLT_learning_02,N,2014_Feb_28_1310,P18,
stim_fb/ques.jpg,stim_fb/negf.jpg,stim_fb/posf.jpg,stim_02/b.jpg,stim_02/a.jpg,1,1,f,3,16,196,6,f,1,0.799754170269,02,02,60.0246754621,PLT_learning_02,N,2014_Feb_28_1310,P18,
stim_fb/ques.jpg,stim_fb/negf.jpg,stim_fb/posf.jpg,stim_02/b.jpg,stim_02/a.jpg,1,1,f,3,17,197,1,f,1,1.04972195698,02,02,60.0246754621,PLT_learning_02,N,2014_Feb_28_1310,P18,
stim_fb/ques.jpg,stim_fb/negf.jpg,stim_fb/posf.jpg,stim_02/d.jpg,stim_02/c.jpg,1,2,f,3,18,198,23,f,1,0.899781673822,02,02,60.0246754621,PLT_learning_02,N,2014_Feb_28_1310,P18,
stim_fb/ques.jpg,stim_fb/negf.jpg,stim_fb/posf.jpg,stim_02/d.jpg,stim_02/c.jpg,1,2,f,3,19,199,25,f,1,0.983076067097,02,02,60.0246754621,PLT_learning_02,N,2014_Feb_28_1310,P18,
stim_fb/ques.jpg,stim_fb/negf.jpg,stim_fb/posf.jpg,stim_02/b.jpg,stim_02/a.jpg,1,1,f,3,20,200,2,f,1,0.783118397606,02,02,60.0246754621,PLT_learning_02,N,2014_Feb_28_1310,P18,
stim_fb/ques.jpg,stim_fb/negf.jpg,stim_fb/posf.jpg,stim_02/b.jpg,stim_02/a.jpg,1,1,f,3,21,201,5,f,1,0.79977654604,02,02,60.0246754621,PLT_learning_02,N,2014_Feb_28_1310,P18,
stim_fb/ques.jpg,stim_fb/posf.jpg,stim_fb/negf.jpg,stim_02/c.jpg,stim_02/d.jpg,2,2,j,3,22,202,39,j,1,0.866438453847,02,02,60.0246754621,PLT_learning_02,N,2014_Feb_28_1310,P18,
stim_fb/ques.jpg,stim_fb/posf.jpg,stim_fb/negf.jpg,stim_02/a.jpg,stim_02/b.jpg,2,1,j,3,23,203,19,f,0,0.84976833257,02,02,60.0246754621,PLT_learning_02,N,2014_Feb_28_1310,P18,
stim_fb/ques.jpg,stim_fb/negf.jpg,stim_fb/posf.jpg,stim_02/a.jpg,stim_02/b.jpg,2,1,j,3,24,204,17,j,1,0.733125423118,02,02,60.0246754621,PLT_learning_02,N,2014_Feb_28_1310,P18,
stim_fb/ques.jpg,stim_fb/negf.jpg,stim_fb/posf.jpg,stim_02/a.jpg,stim_02/b.jpg,2,1,j,3,25,205,11,j,1,0.949737860617,02,02,60.0246754621,PLT_learning_02,N,2014_Feb_28_1310,P18,
stim_fb/ques.jpg,stim_fb/negf.jpg,stim_fb/posf.jpg,stim_02/c.jpg,stim_02/d.jpg,2,2,j,3,26,206,30,j,1,1.04974149668,02,02,60.0246754621,PLT_learning_02,N,2014_Feb_28_1310,P18,
stim_fb/ques.jpg,stim_fb/posf.jpg,stim_fb/negf.jpg,stim_02/a.jpg,stim_02/b.jpg,2,1,j,3,27,207,18,j,1,0.999719457749,02,02,60.0246754621,PLT_learning_02,N,2014_Feb_28_1310,P18,
stim_fb/ques.jpg,stim_fb/negf.jpg,stim_fb/posf.jpg,stim_02/a.jpg,stim_02/b.jpg,2,1,j,3,28,208,13,j,1,1.1329836287,02,02,60.0246754621,PLT_learning_02,N,2014_Feb_28_1310,P18,
stim_fb/ques.jpg,stim_fb/posf.jpg,stim_fb/negf.jpg,stim_02/f.jpg,stim_02/e.jpg,1,3,f,3,29,209,47,f,1,0.916374075383,02,02,60.0246754621,PLT_learning_02,N,2014_Feb_28_1310,P18,
stim_fb/ques.jpg,stim_fb/posf.jpg,stim_fb/negf.jpg,stim_02/c.jpg,stim_02/d.jpg,2,2,j,3,30,210,37,j,1,1.03304090345,02,02,60.0246754621,PLT_learning_02,N,2014_Feb_28_1310,P18,
stim_fb/ques.jpg,stim_fb/posf.jpg,stim_fb/negf.jpg,stim_02/b.jpg,stim_02/a.jpg,1,1,f,3,31,211,8,f,1,0.883105197706,02,02,60.0246754621,PLT_learning_02,N,2014_Feb_28_1310,P18,
stim_fb/ques.jpg,stim_fb/negf.jpg,stim_fb/posf.jpg,stim_02/b.jpg,stim_02/a.jpg,1,1,f,3,32,212,7,f,1,0.833119242712,02,02,60.0246754621,PLT_learning_02,N,2014_Feb_28_1310,P18,
stim_fb/ques.jpg,stim_fb/negf.jpg,stim_fb/posf.jpg,stim_02/d.jpg,stim_02/c.jpg,1,2,f,3,33,213,20,f,1,0.949753493583,02,02,60.0246754621,PLT_learning_02,N,2014_Feb_28_1310,P18,
stim_fb/ques.jpg,stim_fb/negf.jpg,stim_fb/posf.jpg,stim_02/f.jpg,stim_02/e.jpg,1,3,f,3,34,214,44,f,1,0.849775728002,02,02,60.0246754621,PLT_learning_02,N,2014_Feb_28_1310,P18,
stim_fb/ques.jpg,stim_fb/negf.jpg,stim_fb/posf.jpg,stim_02/e.jpg,stim_02/f.jpg,2,3,j,3,35,215,53,j,1,0.949730260675,02,02,60.0246754621,PLT_learning_02,N,2014_Feb_28_1310,P18,
stim_fb/ques.jpg,stim_fb/posf.jpg,stim_fb/negf.jpg,stim_02/f.jpg,stim_02/e.jpg,1,3,f,3,36,216,46,j,0,0.88307421448,02,02,60.0246754621,PLT_learning_02,N,2014_Feb_28_1310,P18,
stim_fb/ques.jpg,stim_fb/negf.jpg,stim_fb/posf.jpg,stim_02/c.jpg,stim_02/d.jpg,2,2,j,3,37,217,36,j,1,1.2162992579,02,02,60.0246754621,PLT_learning_02,N,2014_Feb_28_1310,P18,
stim_fb/ques.jpg,stim_fb/negf.jpg,stim_fb/posf.jpg,stim_02/a.jpg,stim_02/b.jpg,2,1,j,3,38,218,16,j,1,0.949744035008,02,02,60.0246754621,PLT_learning_02,N,2014_Feb_28_1310,P18,
stim_fb/ques.jpg,stim_fb/negf.jpg,stim_fb/posf.jpg,stim_02/b.jpg,stim_02/a.jpg,1,1,f,3,39,219,4,j,0,0.999735439584,02,02,60.0246754621,PLT_learning_02,N,2014_Feb_28_1310,P18,
stim_fb/ques.jpg,stim_fb/negf.jpg,stim_fb/posf.jpg,stim_02/d.jpg,stim_02/c.jpg,1,2,f,3,40,220,22,f,1,1.04969930151,02,02,60.0246754621,PLT_learning_02,N,2014_Feb_28_1310,P18,
stim_fb/ques.jpg,stim_fb/negf.jpg,stim_fb/posf.jpg,stim_02/b.jpg,stim_02/a.jpg,1,1,f,3,41,221,3,f,1,0.733133585461,02,02,60.0246754621,PLT_learning_02,N,2014_Feb_28_1310,P18,
stim_fb/ques.jpg,stim_fb/negf.jpg,stim_fb/posf.jpg,stim_02/f.jpg,stim_02/e.jpg,1,3,f,3,42,222,41,f,1,1.19958870384,02,02,60.0246754621,PLT_learning_02,N,2014_Feb_28_1310,P18,
stim_fb/ques.jpg,stim_fb/negf.jpg,stim_fb/posf.jpg,stim_02/a.jpg,stim_02/b.jpg,2,1,j,3,43,223,14,f,0,1.03308986549,02,02,60.0246754621,PLT_learning_02,N,2014_Feb_28_1310,P18,
stim_fb/ques.jpg,stim_fb/negf.jpg,stim_fb/posf.jpg,stim_02/a.jpg,stim_02/b.jpg,2,1,j,3,44,224,15,j,1,0.816457807084,02,02,60.0246754621,PLT_learning_02,N,2014_Feb_28_1310,P18,
stim_fb/ques.jpg,stim_fb/negf.jpg,stim_fb/posf.jpg,stim_02/f.jpg,stim_02/e.jpg,1,3,f,3,45,225,45,f,1,0.783133798994,02,02,60.0246754621,PLT_learning_02,N,2014_Feb_28_1310,P18,
stim_fb/ques.jpg,stim_fb/negf.jpg,stim_fb/posf.jpg,stim_02/a.jpg,stim_02/b.jpg,2,1,j,3,46,226,10,f,0,0.999719322412,02,02,60.0246754621,PLT_learning_02,N,2014_Feb_28_1310,P18,
stim_fb/ques.jpg,stim_fb/negf.jpg,stim_fb/posf.jpg,stim_02/c.jpg,stim_02/d.jpg,2,2,j,3,47,227,31,j,1,0.833104151096,02,02,60.0246754621,PLT_learning_02,N,2014_Feb_28_1310,P18,
stim_fb/ques.jpg,stim_fb/posf.jpg,stim_fb/negf.jpg,stim_02/c.jpg,stim_02/d.jpg,2,2,j,3,48,228,38,j,1,1.04969614965,02,02,60.0246754621,PLT_learning_02,N,2014_Feb_28_1310,P18,
stim_fb/ques.jpg,stim_fb/posf.jpg,stim_fb/negf.jpg,stim_02/f.jpg,stim_02/e.jpg,1,3,f,3,49,229,48,f,1,0.833099603763,02,02,60.0246754621,PLT_learning_02,N,2014_Feb_28_1310,P18,
stim_fb/ques.jpg,stim_fb/posf.jpg,stim_fb/negf.jpg,stim_02/e.jpg,stim_02/f.jpg,2,3,j,3,50,230,57,j,1,0.949719749476,02,02,60.0246754621,PLT_learning_02,N,2014_Feb_28_1310,P18,
stim_fb/ques.jpg,stim_fb/posf.jpg,stim_fb/negf.jpg,stim_02/f.jpg,stim_02/e.jpg,1,3,f,3,51,231,49,f,1,0.599840614732,02,02,60.0246754621,PLT_learning_02,N,2014_Feb_28_1310,P18,
stim_fb/ques.jpg,stim_fb/negf.jpg,stim_fb/posf.jpg,stim_02/f.jpg,stim_02/e.jpg,1,3,f,3,52,232,42,f,1,0.699784648235,02,02,60.0246754621,PLT_learning_02,N,2014_Feb_28_1310,P18,
stim_fb/ques.jpg,stim_fb/negf.jpg,stim_fb/posf.jpg,stim_02/d.jpg,stim_02/c.jpg,1,2,f,3,53,233,21,f,1,1.14967884151,02,02,60.0246754621,PLT_learning_02,N,2014_Feb_28_1310,P18,
stim_fb/ques.jpg,stim_fb/negf.jpg,stim_fb/posf.jpg,stim_02/d.jpg,stim_02/c.jpg,1,2,f,3,54,234,24,f,1,1.04969748197,02,02,60.0246754621,PLT_learning_02,N,2014_Feb_28_1310,P18,
stim_fb/ques.jpg,stim_fb/negf.jpg,stim_fb/posf.jpg,stim_02/e.jpg,stim_02/f.jpg,2,3,j,3,55,235,52,j,1,0.799771300967,02,02,60.0246754621,PLT_learning_02,N,2014_Feb_28_1310,P18,
stim_fb/ques.jpg,stim_fb/negf.jpg,stim_fb/posf.jpg,stim_02/e.jpg,stim_02/f.jpg,2,3,j,3,56,236,50,j,1,0.699806046571,02,02,60.0246754621,PLT_learning_02,N,2014_Feb_28_1310,P18,
stim_fb/ques.jpg,stim_fb/negf.jpg,stim_fb/posf.jpg,stim_02/c.jpg,stim_02/d.jpg,2,2,j,3,57,237,32,j,1,0.816465888227,02,02,60.0246754621,PLT_learning_02,N,2014_Feb_28_1310,P18,
stim_fb/ques.jpg,stim_fb/negf.jpg,stim_fb/posf.jpg,stim_02/e.jpg,stim_02/f.jpg,2,3,j,3,58,238,55,j,1,0.783109209706,02,02,60.0246754621,PLT_learning_02,N,2014_Feb_28_1310,P18,
stim_fb/ques.jpg,stim_fb/negf.jpg,stim_fb/posf.jpg,stim_02/f.jpg,stim_02/e.jpg,1,3,f,3,59,239,43,f,1,0.54985721611,02,02,60.0246754621,PLT_learning_02,N,2014_Feb_28_1310,P18,
stim_fb/ques.jpg,stim_fb/negf.jpg,stim_fb/posf.jpg,stim_02/d.jpg,stim_02/c.jpg,1,2,f,4,0,240,23,f,1,1.04971203224,02,02,60.0246754621,PLT_learning_02,N,2014_Feb_28_1310,P18,
stim_fb/ques.jpg,stim_fb/negf.jpg,stim_fb/posf.jpg,stim_02/f.jpg,stim_02/e.jpg,1,3,f,4,1,241,42,f,1,0.683153462004,02,02,60.0246754621,PLT_learning_02,N,2014_Feb_28_1310,P18,
stim_fb/ques.jpg,stim_fb/negf.jpg,stim_fb/posf.jpg,stim_02/d.jpg,stim_02/c.jpg,1,2,f,4,2,242,24,f,1,0.866303011256,02,02,60.0246754621,PLT_learning_02,N,2014_Feb_28_1310,P18,
stim_fb/ques.jpg,stim_fb/negf.jpg,stim_fb/posf.jpg,stim_02/d.jpg,stim_02/c.jpg,1,2,f,4,3,243,20,f,1,1.0497033105,02,02,60.0246754621,PLT_learning_02,N,2014_Feb_28_1310,P18,
stim_fb/ques.jpg,stim_fb/posf.jpg,stim_fb/negf.jpg,stim_02/d.jpg,stim_02/c.jpg,1,2,f,4,4,244,29,f,1,0.849781376081,02,02,60.0246754621,PLT_learning_02,N,2014_Feb_28_1310,P18,
stim_fb/ques.jpg,stim_fb/negf.jpg,stim_fb/posf.jpg,stim_02/d.jpg,stim_02/c.jpg,1,2,f,4,5,245,26,f,1,0.799781821189,02,02,60.0246754621,PLT_learning_02,N,2014_Feb_28_1310,P18,
stim_fb/ques.jpg,stim_fb/negf.jpg,stim_fb/posf.jpg,stim_02/f.jpg,stim_02/e.jpg,1,3,f,4,6,246,41,f,1,0.799798615049,02,02,60.0246754621,PLT_learning_02,N,2014_Feb_28_1310,P18,
stim_fb/ques.jpg,stim_fb/posf.jpg,stim_fb/negf.jpg,stim_02/f.jpg,stim_02/e.jpg,1,3,f,4,7,247,46,f,1,0.566519430681,02,02,60.0246754621,PLT_learning_02,N,2014_Feb_28_1310,P18,
stim_fb/ques.jpg,stim_fb/posf.jpg,stim_fb/negf.jpg,stim_02/f.jpg,stim_02/e.jpg,1,3,f,4,8,248,48,f,1,0.533125618605,02,02,60.0246754621,PLT_learning_02,N,2014_Feb_28_1310,P18,
stim_fb/ques.jpg,stim_fb/negf.jpg,stim_fb/posf.jpg,stim_02/a.jpg,stim_02/b.jpg,2,1,j,4,9,249,16,j,1,0.833091531643,02,02,60.0246754621,PLT_learning_02,N,2014_Feb_28_1310,P18,
stim_fb/ques.jpg,stim_fb/negf.jpg,stim_fb/posf.jpg,stim_02/f.jpg,stim_02/e.jpg,1,3,f,4,10,250,43,f,1,0.633170673905,02,02,60.0246754621,PLT_learning_02,N,2014_Feb_28_1310,P18,
stim_fb/ques.jpg,stim_fb/negf.jpg,stim_fb/posf.jpg,stim_02/b.jpg,stim_02/a.jpg,1,1,f,4,11,251,2,f,1,0.799788606101,02,02,60.0246754621,PLT_learning_02,N,2014_Feb_28_1310,P18,
stim_fb/ques.jpg,stim_fb/negf.jpg,stim_fb/posf.jpg,stim_02/e.jpg,stim_02/f.jpg,2,3,j,4,12,252,51,j,1,0.683159555191,02,02,60.0246754621,PLT_learning_02,N,2014_Feb_28_1310,P18,
stim_fb/ques.jpg,stim_fb/posf.jpg,stim_fb/negf.jpg,stim_02/e.jpg,stim_02/f.jpg,2,3,j,4,13,253,59,j,1,0.716485782813,02,02,60.0246754621,PLT_learning_02,N,2014_Feb_28_1310,P18,
stim_fb/ques.jpg,stim_fb/posf.jpg,stim_fb/negf.jpg,stim_02/e.jpg,stim_02/f.jpg,2,3,j,4,14,254,57,j,1,0.633129528349,02,02,60.0246754621,PLT_learning_02,N,2014_Feb_28_1310,P18,
stim_fb/ques.jpg,stim_fb/negf.jpg,stim_fb/posf.jpg,stim_02/e.jpg,stim_02/f.jpg,2,3,j,4,15,255,54,j,1,0.733148156781,02,02,60.0246754621,PLT_learning_02,N,2014_Feb_28_1310,P18,
stim_fb/ques.jpg,stim_fb/negf.jpg,stim_fb/posf.jpg,stim_02/e.jpg,stim_02/f.jpg,2,3,j,4,16,256,50,j,1,0.533229274968,02,02,60.0246754621,PLT_learning_02,N,2014_Feb_28_1310,P18,
stim_fb/ques.jpg,stim_fb/negf.jpg,stim_fb/posf.jpg,stim_02/c.jpg,stim_02/d.jpg,2,2,j,4,17,257,30,j,1,1.06634009068,02,02,60.0246754621,PLT_learning_02,N,2014_Feb_28_1310,P18,
stim_fb/ques.jpg,stim_fb/negf.jpg,stim_fb/posf.jpg,stim_02/c.jpg,stim_02/d.jpg,2,2,j,4,18,258,35,j,1,0.849764720566,02,02,60.0246754621,PLT_learning_02,N,2014_Feb_28_1310,P18,
stim_fb/ques.jpg,stim_fb/negf.jpg,stim_fb/posf.jpg,stim_02/c.jpg,stim_02/d.jpg,2,2,j,4,19,259,32,j,1,0.83307016639,02,02,60.0246754621,PLT_learning_02,N,2014_Feb_28_1310,P18,
stim_fb/ques.jpg,stim_fb/posf.jpg,stim_fb/negf.jpg,stim_02/a.jpg,stim_02/b.jpg,2,1,j,4,20,260,18,j,1,0.666506107474,02,02,60.0246754621,PLT_learning_02,N,2014_Feb_28_1310,P18,
stim_fb/ques.jpg,stim_fb/negf.jpg,stim_fb/posf.jpg,stim_02/b.jpg,stim_02/a.jpg,1,1,f,4,21,261,5,f,1,0.716479939249,02,02,60.0246754621,PLT_learning_02,N,2014_Feb_28_1310,P18,
stim_fb/ques.jpg,stim_fb/negf.jpg,stim_fb/posf.jpg,stim_02/c.jpg,stim_02/d.jpg,2,2,j,4,22,262,31,j,1,0.866386863257,02,02,60.0246754621,PLT_learning_02,N,2014_Feb_28_1310,P18,
stim_fb/ques.jpg,stim_fb/negf.jpg,stim_fb/posf.jpg,stim_02/f.jpg,stim_02/e.jpg,1,3,f,4,23,263,45,f,1,0.633192315847,02,02,60.0246754621,PLT_learning_02,N,2014_Feb_28_1310,P18,
stim_fb/ques.jpg,stim_fb/posf.jpg,stim_fb/negf.jpg,stim_02/c.jpg,stim_02/d.jpg,2,2,j,4,24,264,38,j,1,0.866466552882,02,02,60.0246754621,PLT_learning_02,N,2014_Feb_28_1310,P18,
stim_fb/ques.jpg,stim_fb/negf.jpg,stim_fb/posf.jpg,stim_02/c.jpg,stim_02/d.jpg,2,2,j,4,25,265,36,j,1,0.916409425493,02,02,60.0246754621,PLT_learning_02,N,2014_Feb_28_1310,P18,
stim_fb/ques.jpg,stim_fb/posf.jpg,stim_fb/negf.jpg,stim_02/c.jpg,stim_02/d.jpg,2,2,j,4,26,266,39,j,1,0.899756233412,02,02,60.0246754621,PLT_learning_02,N,2014_Feb_28_1310,P18,
stim_fb/ques.jpg,stim_fb/negf.jpg,stim_fb/posf.jpg,stim_02/c.jpg,stim_02/d.jpg,2,2,j,4,27,267,34,j,1,0.583176794159,02,02,60.0246754621,PLT_learning_02,N,2014_Feb_28_1310,P18,
stim_fb/ques.jpg,stim_fb/negf.jpg,stim_fb/posf.jpg,stim_02/e.jpg,stim_02/f.jpg,2,3,j,4,28,268,55,j,1,0.71647830317,02,02,60.0246754621,PLT_learning_02,N,2014_Feb_28_1310,P18,
stim_fb/ques.jpg,stim_fb/negf.jpg,stim_fb/posf.jpg,stim_02/a.jpg,stim_02/b.jpg,2,1,j,4,29,269,10,j,1,0.749795336877,02,02,60.0246754621,PLT_learning_02,N,2014_Feb_28_1310,P18,
stim_fb/ques.jpg,stim_fb/negf.jpg,stim_fb/posf.jpg,stim_02/f.jpg,stim_02/e.jpg,1,3,f,4,30,270,40,f,1,0.633177819715,02,02,60.0246754621,PLT_learning_02,N,2014_Feb_28_1310,P18,
stim_fb/ques.jpg,stim_fb/posf.jpg,stim_fb/negf.jpg,stim_02/b.jpg,stim_02/a.jpg,1,1,f,4,31,271,8,f,1,0.899751307133,02,02,60.0246754621,PLT_learning_02,N,2014_Feb_28_1310,P18,
stim_fb/ques.jpg,stim_fb/negf.jpg,stim_fb/posf.jpg,stim_02/b.jpg,stim_02/a.jpg,1,1,f,4,32,272,0,f,1,0.866431094503,02,02,60.0246754621,PLT_learning_02,N,2014_Feb_28_1310,P18,
stim_fb/ques.jpg,stim_fb/negf.jpg,stim_fb/posf.jpg,stim_02/c.jpg,stim_02/d.jpg,2,2,j,4,33,273,33,j,1,1.09968233622,02,02,60.0246754621,PLT_learning_02,N,2014_Feb_28_1310,P18,
stim_fb/ques.jpg,stim_fb/negf.jpg,stim_fb/posf.jpg,stim_02/a.jpg,stim_02/b.jpg,2,1,j,4,34,274,15,j,1,0.666507683401,02,02,60.0246754621,PLT_learning_02,N,2014_Feb_28_1310,P18,
stim_fb/ques.jpg,stim_fb/posf.jpg,stim_fb/negf.jpg,stim_02/d.jpg,stim_02/c.jpg,1,2,f,4,35,275,27,f,1,0.99973772528,02,02,60.0246754621,PLT_learning_02,N,2014_Feb_28_1310,P18,
stim_fb/ques.jpg,stim_fb/posf.jpg,stim_fb/negf.jpg,stim_02/d.jpg,stim_02/c.jpg,1,2,f,4,36,276,28,f,1,0.966398195503,02,02,60.0246754621,PLT_learning_02,N,2014_Feb_28_1310,P18,
stim_fb/ques.jpg,stim_fb/posf.jpg,stim_fb/negf.jpg,stim_02/f.jpg,stim_02/e.jpg,1,3,f,4,37,277,47,f,1,0.749806774385,02,02,60.0246754621,PLT_learning_02,N,2014_Feb_28_1310,P18,
stim_fb/ques.jpg,stim_fb/negf.jpg,stim_fb/posf.jpg,stim_02/a.jpg,stim_02/b.jpg,2,1,j,4,38,278,13,j,1,0.683158201818,02,02,60.0246754621,PLT_learning_02,N,2014_Feb_28_1310,P18,
stim_fb/ques.jpg,stim_fb/negf.jpg,stim_fb/posf.jpg,stim_02/b.jpg,stim_02/a.jpg,1,1,f,4,39,279,3,f,1,0.716478155804,02,02,60.0246754621,PLT_learning_02,N,2014_Feb_28_1310,P18,
stim_fb/ques.jpg,stim_fb/posf.jpg,stim_fb/negf.jpg,stim_02/a.jpg,stim_02/b.jpg,2,1,j,4,40,280,19,j,1,0.649827499041,02,02,60.0246754621,PLT_learning_02,N,2014_Feb_28_1310,P18,
stim_fb/ques.jpg,stim_fb/negf.jpg,stim_fb/posf.jpg,stim_02/e.jpg,stim_02/f.jpg,2,3,j,4,41,281,52,j,1,0.633168625799,02,02,60.0246754621,PLT_learning_02,N,2014_Feb_28_1310,P18,
stim_fb/ques.jpg,stim_fb/negf.jpg,stim_fb/posf.jpg,stim_02/a.jpg,stim_02/b.jpg,2,1,j,4,42,282,17,j,1,0.566521496831,02,02,60.0246754621,PLT_learning_02,N,2014_Feb_28_1310,P18,
stim_fb/ques.jpg,stim_fb/negf.jpg,stim_fb/posf.jpg,stim_02/d.jpg,stim_02/c.jpg,1,2,f,4,43,283,22,f,1,0.883064001023,02,02,60.0246754621,PLT_learning_02,N,2014_Feb_28_1310,P18,
stim_fb/ques.jpg,stim_fb/negf.jpg,stim_fb/posf.jpg,stim_02/b.jpg,stim_02/a.jpg,1,1,f,4,44,284,6,f,1,0.949741153826,02,02,60.0246754621,PLT_learning_02,N,2014_Feb_28_1310,P18,
stim_fb/ques.jpg,stim_fb/negf.jpg,stim_fb/posf.jpg,stim_02/d.jpg,stim_02/c.jpg,1,2,f,4,45,285,25,f,1,0.849774251321,02,02,60.0246754621,PLT_learning_02,N,2014_Feb_28_1310,P18,
stim_fb/ques.jpg,stim_fb/negf.jpg,stim_fb/posf.jpg,stim_02/e.jpg,stim_02/f.jpg,2,3,j,4,46,286,53,j,1,0.699800052631,02,02,60.0246754621,PLT_learning_02,N,2014_Feb_28_1310,P18,
stim_fb/ques.jpg,stim_fb/posf.jpg,stim_fb/negf.jpg,stim_02/b.jpg,stim_02/a.jpg,1,1,f,4,47,287,9,f,1,0.799784633198,02,02,60.0246754621,PLT_learning_02,N,2014_Feb_28_1310,P18,
stim_fb/ques.jpg,stim_fb/posf.jpg,stim_fb/negf.jpg,stim_02/e.jpg,stim_02/f.jpg,2,3,j,4,48,288,56,j,1,0.633149696619,02,02,60.0246754621,PLT_learning_02,N,2014_Feb_28_1310,P18,
stim_fb/ques.jpg,stim_fb/negf.jpg,stim_fb/posf.jpg,stim_02/b.jpg,stim_02/a.jpg,1,1,f,4,49,289,4,f,1,0.633186397095,02,02,60.0246754621,PLT_learning_02,N,2014_Feb_28_1310,P18,
stim_fb/ques.jpg,stim_fb/negf.jpg,stim_fb/posf.jpg,stim_02/b.jpg,stim_02/a.jpg,1,1,f,4,50,290,1,f,1,0.666480588868,02,02,60.0246754621,PLT_learning_02,N,2014_Feb_28_1310,P18,
stim_fb/ques.jpg,stim_fb/negf.jpg,stim_fb/posf.jpg,stim_02/d.jpg,stim_02/c.jpg,1,2,f,4,51,291,21,f,1,0.899840551575,02,02,60.0246754621,PLT_learning_02,N,2014_Feb_28_1310,P18,
stim_fb/ques.jpg,stim_fb/posf.jpg,stim_fb/negf.jpg,stim_02/c.jpg,stim_02/d.jpg,2,2,j,4,52,292,37,j,1,0.933073402455,02,02,60.0246754621,PLT_learning_02,N,2014_Feb_28_1310,P18,
stim_fb/ques.jpg,stim_fb/posf.jpg,stim_fb/negf.jpg,stim_02/e.jpg,stim_02/f.jpg,2,3,j,4,53,293,58,j,1,0.766422682536,02,02,60.0246754621,PLT_learning_02,N,2014_Feb_28_1310,P18,
stim_fb/ques.jpg,stim_fb/posf.jpg,stim_fb/negf.jpg,stim_02/f.jpg,stim_02/e.jpg,1,3,f,4,54,294,49,f,1,0.583184183577,02,02,60.0246754621,PLT_learning_02,N,2014_Feb_28_1310,P18,
stim_fb/ques.jpg,stim_fb/negf.jpg,stim_fb/posf.jpg,stim_02/b.jpg,stim_02/a.jpg,1,1,f,4,55,295,7,f,1,0.683117585581,02,02,60.0246754621,PLT_learning_02,N,2014_Feb_28_1310,P18,
stim_fb/ques.jpg,stim_fb/negf.jpg,stim_fb/posf.jpg,stim_02/a.jpg,stim_02/b.jpg,2,1,j,4,56,296,14,j,1,0.699863164939,02,02,60.0246754621,PLT_learning_02,N,2014_Feb_28_1310,P18,
stim_fb/ques.jpg,stim_fb/negf.jpg,stim_fb/posf.jpg,stim_02/a.jpg,stim_02/b.jpg,2,1,j,4,57,297,12,j,1,0.583177930993,02,02,60.0246754621,PLT_learning_02,N,2014_Feb_28_1310,P18,
stim_fb/ques.jpg,stim_fb/negf.jpg,stim_fb/posf.jpg,stim_02/a.jpg,stim_02/b.jpg,2,1,j,4,58,298,11,j,1,0.516534176435,02,02,60.0246754621,PLT_learning_02,N,2014_Feb_28_1310,P18,
stim_fb/ques.jpg,stim_fb/negf.jpg,stim_fb/posf.jpg,stim_02/f.jpg,stim_02/e.jpg,1,3,f,4,59,299,44,f,1,0.499884241472,02,02,60.0246754621,PLT_learning_02,N,2014_Feb_28_1310,P18,
stim_fb/ques.jpg,stim_fb/posf.jpg,stim_fb/negf.jpg,stim_02/b.jpg,stim_02/a.jpg,1,1,f,5,0,300,8,f,1,0.749734576432,02,02,60.0246754621,PLT_learning_02,N,2014_Feb_28_1310,P18,
stim_fb/ques.jpg,stim_fb/posf.jpg,stim_fb/negf.jpg,stim_02/e.jpg,stim_02/f.jpg,2,3,j,5,1,301,59,j,1,0.58316008451,02,02,60.0246754621,PLT_learning_02,N,2014_Feb_28_1310,P18,
stim_fb/ques.jpg,stim_fb/posf.jpg,stim_fb/negf.jpg,stim_02/c.jpg,stim_02/d.jpg,2,2,j,5,2,302,37,j,1,0.966392210586,02,02,60.0246754621,PLT_learning_02,N,2014_Feb_28_1310,P18,
stim_fb/ques.jpg,stim_fb/negf.jpg,stim_fb/posf.jpg,stim_02/d.jpg,stim_02/c.jpg,1,2,f,5,3,303,26,f,1,0.783101327058,02,02,60.0246754621,PLT_learning_02,N,2014_Feb_28_1310,P18,
stim_fb/ques.jpg,stim_fb/negf.jpg,stim_fb/posf.jpg,stim_02/a.jpg,stim_02/b.jpg,2,1,j,5,4,304,13,j,1,0.766761161194,02,02,60.0246754621,PLT_learning_02,N,2014_Feb_28_1310,P18,
stim_fb/ques.jpg,stim_fb/negf.jpg,stim_fb/posf.jpg,stim_02/e.jpg,stim_02/f.jpg,2,3,j,5,5,305,53,j,1,0.699792431636,02,02,60.0246754621,PLT_learning_02,N,2014_Feb_28_1310,P18,
stim_fb/ques.jpg,stim_fb/negf.jpg,stim_fb/posf.jpg,stim_02/c.jpg,stim_02/d.jpg,2,2,j,5,6,306,30,j,1,0.999706143563,02,02,60.0246754621,PLT_learning_02,N,2014_Feb_28_1310,P18,
stim_fb/ques.jpg,stim_fb/posf.jpg,stim_fb/negf.jpg,stim_02/f.jpg,stim_02/e.jpg,1,3,f,5,7,307,47,f,1,0.749802452613,02,02,60.0246754621,PLT_learning_02,N,2014_Feb_28_1310,P18,
stim_fb/ques.jpg,stim_fb/posf.jpg,stim_fb/negf.jpg,stim_02/b.jpg,stim_02/a.jpg,1,1,f,5,8,308,9,f,1,0.866425807325,02,02,60.0246754621,PLT_learning_02,N,2014_Feb_28_1310,P18,
stim_fb/ques.jpg,stim_fb/negf.jpg,stim_fb/posf.jpg,stim_02/c.jpg,stim_02/d.jpg,2,2,j,5,9,309,36,j,1,0.866406673634,02,02,60.0246754621,PLT_learning_02,N,2014_Feb_28_1310,P18,
stim_fb/ques.jpg,stim_fb/posf.jpg,stim_fb/negf.jpg,stim_02/a.jpg,stim_02/b.jpg,2,1,j,5,10,310,19,j,1,0.783137218516,02,02,60.0246754621,PLT_learning_02,N,2014_Feb_28_1310,P18,
stim_fb/ques.jpg,stim_fb/posf.jpg,stim_fb/negf.jpg,stim_02/e.jpg,stim_02/f.jpg,2,3,j,5,11,311,58,j,1,0.7664471816,02,02,60.0246754621,PLT_learning_02,N,2014_Feb_28_1310,P18,
stim_fb/ques.jpg,stim_fb/negf.jpg,stim_fb/posf.jpg,stim_02/c.jpg,stim_02/d.jpg,2,2,j,5,12,312,35,j,1,1.24966573184,02,02,60.0246754621,PLT_learning_02,N,2014_Feb_28_1310,P18,
stim_fb/ques.jpg,stim_fb/posf.jpg,stim_fb/negf.jpg,stim_02/d.jpg,stim_02/c.jpg,1,2,f,5,13,313,29,f,1,1.01643114864,02,02,60.0246754621,PLT_learning_02,N,2014_Feb_28_1310,P18,
stim_fb/ques.jpg,stim_fb/posf.jpg,stim_fb/negf.jpg,stim_02/c.jpg,stim_02/d.jpg,2,2,j,5,14,314,39,j,1,0.799794326358,02,02,60.0246754621,PLT_learning_02,N,2014_Feb_28_1310,P18,
stim_fb/ques.jpg,stim_fb/posf.jpg,stim_fb/negf.jpg,stim_02/e.jpg,stim_02/f.jpg,2,3,j,5,15,315,57,j,1,0.849761607808,02,02,60.0246754621,PLT_learning_02,N,2014_Feb_28_1310,P18,
stim_fb/ques.jpg,stim_fb/negf.jpg,stim_fb/posf.jpg,stim_02/c.jpg,stim_02/d.jpg,2,2,j,5,16,316,31,None,0,,02,02,60.0246754621,PLT_learning_02,N,2014_Feb_28_1310,P18,
stim_fb/ques.jpg,stim_fb/negf.jpg,stim_fb/posf.jpg,stim_02/d.jpg,stim_02/c.jpg,1,2,f,5,17,317,20,f,1,0.816437831295,02,02,60.0246754621,PLT_learning_02,N,2014_Feb_28_1310,P18,
stim_fb/ques.jpg,stim_fb/negf.jpg,stim_fb/posf.jpg,stim_02/e.jpg,stim_02/f.jpg,2,3,j,5,18,318,50,j,1,1.21630321577,02,02,60.0246754621,PLT_learning_02,N,2014_Feb_28_1310,P18,
stim_fb/ques.jpg,stim_fb/posf.jpg,stim_fb/negf.jpg,stim_02/f.jpg,stim_02/e.jpg,1,3,f,5,19,319,48,f,1,0.64983425087,02,02,60.0246754621,PLT_learning_02,N,2014_Feb_28_1310,P18,
stim_fb/ques.jpg,stim_fb/negf.jpg,stim_fb/posf.jpg,stim_02/a.jpg,stim_02/b.jpg,2,1,j,5,20,320,15,j,1,1.36625692138,02,02,60.0246754621,PLT_learning_02,N,2014_Feb_28_1310,P18,
stim_fb/ques.jpg,stim_fb/negf.jpg,stim_fb/posf.jpg,stim_02/b.jpg,stim_02/a.jpg,1,1,f,5,21,321,5,f,1,1.14967174984,02,02,60.0246754621,PLT_learning_02,N,2014_Feb_28_1310,P18,
stim_fb/ques.jpg,stim_fb/negf.jpg,stim_fb/posf.jpg,stim_02/b.jpg,stim_02/a.jpg,1,1,f,5,22,322,2,f,1,1.16634399441,02,02,60.0246754621,PLT_learning_02,N,2014_Feb_28_1310,P18,
stim_fb/ques.jpg,stim_fb/negf.jpg,stim_fb/posf.jpg,stim_02/f.jpg,stim_02/e.jpg,1,3,f,5,23,323,40,j,0,1.04970381275,02,02,60.0246754621,PLT_learning_02,N,2014_Feb_28_1310,P18,
stim_fb/ques.jpg,stim_fb/negf.jpg,stim_fb/posf.jpg,stim_02/a.jpg,stim_02/b.jpg,2,1,j,5,24,324,16,j,1,0.799739268125,02,02,60.0246754621,PLT_learning_02,N,2014_Feb_28_1310,P18,
stim_fb/ques.jpg,stim_fb/posf.jpg,stim_fb/negf.jpg,stim_02/a.jpg,stim_02/b.jpg,2,1,j,5,25,325,18,j,1,0.833105278908,02,02,60.0246754621,PLT_learning_02,N,2014_Feb_28_1310,P18,
stim_fb/ques.jpg,stim_fb/negf.jpg,stim_fb/posf.jpg,stim_02/e.jpg,stim_02/f.jpg,2,3,j,5,26,326,55,j,1,0.883105988677,02,02,60.0246754621,PLT_learning_02,N,2014_Feb_28_1310,P18,
stim_fb/ques.jpg,stim_fb/negf.jpg,stim_fb/posf.jpg,stim_02/b.jpg,stim_02/a.jpg,1,1,f,5,27,327,0,f,1,0.799790678266,02,02,60.0246754621,PLT_learning_02,N,2014_Feb_28_1310,P18,
stim_fb/ques.jpg,stim_fb/negf.jpg,stim_fb/posf.jpg,stim_02/d.jpg,stim_02/c.jpg,1,2,f,5,28,328,25,f,1,0.983038689935,02,02,60.0246754621,PLT_learning_02,N,2014_Feb_28_1310,P18,
stim_fb/ques.jpg,stim_fb/negf.jpg,stim_fb/posf.jpg,stim_02/d.jpg,stim_02/c.jpg,1,2,f,5,29,329,22,f,1,0.98304083428,02,02,60.0246754621,PLT_learning_02,N,2014_Feb_28_1310,P18,
stim_fb/ques.jpg,stim_fb/posf.jpg,stim_fb/negf.jpg,stim_02/f.jpg,stim_02/e.jpg,1,3,f,5,30,330,49,f,1,0.583181001646,02,02,60.0246754621,PLT_learning_02,N,2014_Feb_28_1310,P18,
stim_fb/ques.jpg,stim_fb/negf.jpg,stim_fb/posf.jpg,stim_02/a.jpg,stim_02/b.jpg,2,1,j,5,31,331,17,j,1,0.766428348659,02,02,60.0246754621,PLT_learning_02,N,2014_Feb_28_1310,P18,
stim_fb/ques.jpg,stim_fb/negf.jpg,stim_fb/posf.jpg,stim_02/f.jpg,stim_02/e.jpg,1,3,f,5,32,332,43,f,1,0.583174890414,02,02,60.0246754621,PLT_learning_02,N,2014_Feb_28_1310,P18,
stim_fb/ques.jpg,stim_fb/negf.jpg,stim_fb/posf.jpg,stim_02/b.jpg,stim_02/a.jpg,1,1,f,5,33,333,7,f,1,0.716509896918,02,02,60.0246754621,PLT_learning_02,N,2014_Feb_28_1310,P18,
stim_fb/ques.jpg,stim_fb/negf.jpg,stim_fb/posf.jpg,stim_02/d.jpg,stim_02/c.jpg,1,2,f,5,34,334,23,f,1,0.849742251562,02,02,60.0246754621,PLT_learning_02,N,2014_Feb_28_1310,P18,
stim_fb/ques.jpg,stim_fb/posf.jpg,stim_fb/negf.jpg,stim_02/d.jpg,stim_02/c.jpg,1,2,f,5,35,335,27,f,1,1.04969369253,02,02,60.0246754621,PLT_learning_02,N,2014_Feb_28_1310,P18,
stim_fb/ques.jpg,stim_fb/negf.jpg,stim_fb/posf.jpg,stim_02/c.jpg,stim_02/d.jpg,2,2,j,5,36,336,33,j,1,0.933020028421,02,02,60.0246754621,PLT_learning_02,N,2014_Feb_28_1310,P18,
stim_fb/ques.jpg,stim_fb/posf.jpg,stim_fb/negf.jpg,stim_02/e.jpg,stim_02/f.jpg,2,3,j,5,37,337,56,j,1,0.649865225074,02,02,60.0246754621,PLT_learning_02,N,2014_Feb_28_1310,P18,
stim_fb/ques.jpg,stim_fb/negf.jpg,stim_fb/posf.jpg,stim_02/e.jpg,stim_02/f.jpg,2,3,j,5,38,338,51,j,1,0.649816744235,02,02,60.0246754621,PLT_learning_02,N,2014_Feb_28_1310,P18,
stim_fb/ques.jpg,stim_fb/posf.jpg,stim_fb/negf.jpg,stim_02/d.jpg,stim_02/c.jpg,1,2,f,5,39,339,28,f,1,0.666497490996,02,02,60.0246754621,PLT_learning_02,N,2014_Feb_28_1310,P18,
stim_fb/ques.jpg,stim_fb/posf.jpg,stim_fb/negf.jpg,stim_02/f.jpg,stim_02/e.jpg,1,3,f,5,40,340,46,f,1,0.516572894941,02,02,60.0246754621,PLT_learning_02,N,2014_Feb_28_1310,P18,
stim_fb/ques.jpg,stim_fb/negf.jpg,stim_fb/posf.jpg,stim_02/a.jpg,stim_02/b.jpg,2,1,j,5,41,341,14,j,1,0.799784269291,02,02,60.0246754621,PLT_learning_02,N,2014_Feb_28_1310,P18,
stim_fb/ques.jpg,stim_fb/negf.jpg,stim_fb/posf.jpg,stim_02/f.jpg,stim_02/e.jpg,1,3,f,5,42,342,42,f,1,0.899754675529,02,02,60.0246754621,PLT_learning_02,N,2014_Feb_28_1310,P18,
stim_fb/ques.jpg,stim_fb/posf.jpg,stim_fb/negf.jpg,stim_02/c.jpg,stim_02/d.jpg,2,2,j,5,43,343,38,j,1,0.866431184728,02,02,60.0246754621,PLT_learning_02,N,2014_Feb_28_1310,P18,
stim_fb/ques.jpg,stim_fb/negf.jpg,stim_fb/posf.jpg,stim_02/c.jpg,stim_02/d.jpg,2,2,j,5,44,344,34,j,1,0.983016512658,02,02,60.0246754621,PLT_learning_02,N,2014_Feb_28_1310,P18,
stim_fb/ques.jpg,stim_fb/negf.jpg,stim_fb/posf.jpg,stim_02/b.jpg,stim_02/a.jpg,1,1,f,5,45,345,6,f,1,0.816480053533,02,02,60.0246754621,PLT_learning_02,N,2014_Feb_28_1310,P18,
stim_fb/ques.jpg,stim_fb/negf.jpg,stim_fb/posf.jpg,stim_02/a.jpg,stim_02/b.jpg,2,1,j,5,46,346,11,j,1,0.76645704318,02,02,60.0246754621,PLT_learning_02,N,2014_Feb_28_1310,P18,
stim_fb/ques.jpg,stim_fb/negf.jpg,stim_fb/posf.jpg,stim_02/f.jpg,stim_02/e.jpg,1,3,f,5,47,347,41,j,0,0.949726224615,02,02,60.0246754621,PLT_learning_02,N,2014_Feb_28_1310,P18,
stim_fb/ques.jpg,stim_fb/negf.jpg,stim_fb/posf.jpg,stim_02/c.jpg,stim_02/d.jpg,2,2,j,5,48,348,32,j,1,1.14965202066,02,02,60.0246754621,PLT_learning_02,N,2014_Feb_28_1310,P18,
stim_fb/ques.jpg,stim_fb/negf.jpg,stim_fb/posf.jpg,stim_02/d.jpg,stim_02/c.jpg,1,2,f,5,49,349,21,f,1,0.849656279276,02,02,60.0246754621,PLT_learning_02,N,2014_Feb_28_1310,P18,
stim_fb/ques.jpg,stim_fb/negf.jpg,stim_fb/posf.jpg,stim_02/b.jpg,stim_02/a.jpg,1,1,f,5,50,350,1,f,1,1.11633715536,02,02,60.0246754621,PLT_learning_02,N,2014_Feb_28_1310,P18,
stim_fb/ques.jpg,stim_fb/negf.jpg,stim_fb/posf.jpg,stim_02/b.jpg,stim_02/a.jpg,1,1,f,5,51,351,3,f,1,0.683209786393,02,02,60.0246754621,PLT_learning_02,N,2014_Feb_28_1310,P18,
stim_fb/ques.jpg,stim_fb/negf.jpg,stim_fb/posf.jpg,stim_02/f.jpg,stim_02/e.jpg,1,3,f,5,52,352,44,f,1,1.21632560357,02,02,60.0246754621,PLT_learning_02,N,2014_Feb_28_1310,P18,
stim_fb/ques.jpg,stim_fb/negf.jpg,stim_fb/posf.jpg,stim_02/b.jpg,stim_02/a.jpg,1,1,f,5,53,353,4,f,1,0.683168427305,02,02,60.0246754621,PLT_learning_02,N,2014_Feb_28_1310,P18,
stim_fb/ques.jpg,stim_fb/negf.jpg,stim_fb/posf.jpg,stim_02/a.jpg,stim_02/b.jpg,2,1,j,5,54,354,12,j,1,0.616472829527,02,02,60.0246754621,PLT_learning_02,N,2014_Feb_28_1310,P18,
stim_fb/ques.jpg,stim_fb/negf.jpg,stim_fb/posf.jpg,stim_02/a.jpg,stim_02/b.jpg,2,1,j,5,55,355,10,j,1,0.566528780986,02,02,60.0246754621,PLT_learning_02,N,2014_Feb_28_1310,P18,
stim_fb/ques.jpg,stim_fb/negf.jpg,stim_fb/posf.jpg,stim_02/e.jpg,stim_02/f.jpg,2,3,j,5,56,356,54,j,1,0.899769285946,02,02,60.0246754621,PLT_learning_02,N,2014_Feb_28_1310,P18,
stim_fb/ques.jpg,stim_fb/negf.jpg,stim_fb/posf.jpg,stim_02/f.jpg,stim_02/e.jpg,1,3,f,5,57,357,45,f,1,0.51656105142,02,02,60.0246754621,PLT_learning_02,N,2014_Feb_28_1310,P18,
stim_fb/ques.jpg,stim_fb/negf.jpg,stim_fb/posf.jpg,stim_02/e.jpg,stim_02/f.jpg,2,3,j,5,58,358,52,j,1,0.566535941834,02,02,60.0246754621,PLT_learning_02,N,2014_Feb_28_1310,P18,
stim_fb/ques.jpg,stim_fb/negf.jpg,stim_fb/posf.jpg,stim_02/d.jpg,stim_02/c.jpg,1,2,f,5,59,359,24,f,1,0.816482252013,02,02,60.0246754621,PLT_learning_02,N,2014_Feb_28_1310,P18,
