Fb3,Fb2,Fb1,Symbol2,Symbol1,PosCond,Pair,Correct,trials.thisRepN,trials.thisTrialN,trials.thisN,trials.thisIndex,Response.keys,Response.corr,Response.rt,Version,Session Number,frameRate,expName,StimCondition,date,Participant,
stim_fb/ques.jpg,stim_fb/negf.jpg,stim_fb/posf.jpg,stim_02/f.jpg,stim_02/e.jpg,1,3,f,0,0,0,40,None,0,,02,01,60.0197566562,PLT_learning_02,N,2014_Mrz_06_1454,P19,
stim_fb/ques.jpg,stim_fb/negf.jpg,stim_fb/posf.jpg,stim_02/e.jpg,stim_02/f.jpg,2,3,j,0,1,1,53,j,1,1.28295949143,02,01,60.0197566562,PLT_learning_02,N,2014_Mrz_06_1454,P19,
stim_fb/ques.jpg,stim_fb/negf.jpg,stim_fb/posf.jpg,stim_02/e.jpg,stim_02/f.jpg,2,3,j,0,2,2,51,f,0,1.1163015184,02,01,60.0197566562,PLT_learning_02,N,2014_Mrz_06_1454,P19,
stim_fb/ques.jpg,stim_fb/negf.jpg,stim_fb/posf.jpg,stim_02/c.jpg,stim_02/d.jpg,2,2,j,0,3,3,30,f,0,1.01638479566,02,01,60.0197566562,PLT_learning_02,N,2014_Mrz_06_1454,P19,
stim_fb/ques.jpg,stim_fb/negf.jpg,stim_fb/posf.jpg,stim_02/a.jpg,stim_02/b.jpg,2,1,j,0,4,4,11,j,1,1.01638612497,02,01,60.0197566562,PLT_learning_02,N,2014_Mrz_06_1454,P19,
stim_fb/ques.jpg,stim_fb/negf.jpg,stim_fb/posf.jpg,stim_02/a.jpg,stim_02/b.jpg,2,1,j,0,5,5,13,f,0,1.01638592648,02,01,60.0197566562,PLT_learning_02,N,2014_Mrz_06_1454,P19,
stim_fb/ques.jpg,stim_fb/posf.jpg,stim_fb/negf.jpg,stim_02/e.jpg,stim_02/f.jpg,2,3,j,0,6,6,58,f,0,1.11651626185,02,01,60.0197566562,PLT_learning_02,N,2014_Mrz_06_1454,P19,
stim_fb/ques.jpg,stim_fb/negf.jpg,stim_fb/posf.jpg,stim_02/e.jpg,stim_02/f.jpg,2,3,j,0,7,7,52,j,1,1.11632155728,02,01,60.0197566562,PLT_learning_02,N,2014_Mrz_06_1454,P19,
stim_fb/ques.jpg,stim_fb/negf.jpg,stim_fb/posf.jpg,stim_02/f.jpg,stim_02/e.jpg,1,3,f,0,8,8,41,f,1,1.54953357368,02,01,60.0197566562,PLT_learning_02,N,2014_Mrz_06_1454,P19,
stim_fb/ques.jpg,stim_fb/negf.jpg,stim_fb/posf.jpg,stim_02/b.jpg,stim_02/a.jpg,1,1,f,0,9,9,4,f,1,1.31629580719,02,01,60.0197566562,PLT_learning_02,N,2014_Mrz_06_1454,P19,
stim_fb/ques.jpg,stim_fb/negf.jpg,stim_fb/posf.jpg,stim_02/f.jpg,stim_02/e.jpg,1,3,f,0,10,10,45,f,1,1.38293955181,02,01,60.0197566562,PLT_learning_02,N,2014_Mrz_06_1454,P19,
stim_fb/ques.jpg,stim_fb/posf.jpg,stim_fb/negf.jpg,stim_02/e.jpg,stim_02/f.jpg,2,3,j,0,11,11,57,j,1,1.29962359221,02,01,60.0197566562,PLT_learning_02,N,2014_Mrz_06_1454,P19,
stim_fb/ques.jpg,stim_fb/negf.jpg,stim_fb/posf.jpg,stim_02/a.jpg,stim_02/b.jpg,2,1,j,0,12,12,12,f,0,1.04969073281,02,01,60.0197566562,PLT_learning_02,N,2014_Mrz_06_1454,P19,
stim_fb/ques.jpg,stim_fb/negf.jpg,stim_fb/posf.jpg,stim_02/b.jpg,stim_02/a.jpg,1,1,f,0,13,13,1,j,0,1.28296321771,02,01,60.0197566562,PLT_learning_02,N,2014_Mrz_06_1454,P19,
stim_fb/ques.jpg,stim_fb/negf.jpg,stim_fb/posf.jpg,stim_02/a.jpg,stim_02/b.jpg,2,1,j,0,14,14,16,j,1,1.19964955884,02,01,60.0197566562,PLT_learning_02,N,2014_Mrz_06_1454,P19,
stim_fb/ques.jpg,stim_fb/negf.jpg,stim_fb/posf.jpg,stim_02/b.jpg,stim_02/a.jpg,1,1,f,0,15,15,5,f,1,1.44957594914,02,01,60.0197566562,PLT_learning_02,N,2014_Mrz_06_1454,P19,
stim_fb/ques.jpg,stim_fb/negf.jpg,stim_fb/posf.jpg,stim_02/b.jpg,stim_02/a.jpg,1,1,f,0,16,16,6,f,1,1.24962435161,02,01,60.0197566562,PLT_learning_02,N,2014_Mrz_06_1454,P19,
stim_fb/ques.jpg,stim_fb/posf.jpg,stim_fb/negf.jpg,stim_02/f.jpg,stim_02/e.jpg,1,3,f,0,17,17,49,f,1,1.36625797754,02,01,60.0197566562,PLT_learning_02,N,2014_Mrz_06_1454,P19,
stim_fb/ques.jpg,stim_fb/negf.jpg,stim_fb/posf.jpg,stim_02/d.jpg,stim_02/c.jpg,1,2,f,0,18,18,26,j,0,1.18304029654,02,01,60.0197566562,PLT_learning_02,N,2014_Mrz_06_1454,P19,
stim_fb/ques.jpg,stim_fb/negf.jpg,stim_fb/posf.jpg,stim_02/b.jpg,stim_02/a.jpg,1,1,f,0,19,19,2,f,1,1.2329669094,02,01,60.0197566562,PLT_learning_02,N,2014_Mrz_06_1454,P19,
stim_fb/ques.jpg,stim_fb/posf.jpg,stim_fb/negf.jpg,stim_02/d.jpg,stim_02/c.jpg,1,2,f,0,20,20,27,j,0,1.06634988026,02,01,60.0197566562,PLT_learning_02,N,2014_Mrz_06_1454,P19,
stim_fb/ques.jpg,stim_fb/negf.jpg,stim_fb/posf.jpg,stim_02/a.jpg,stim_02/b.jpg,2,1,j,0,21,21,17,j,1,1.18299541885,02,01,60.0197566562,PLT_learning_02,N,2014_Mrz_06_1454,P19,
stim_fb/ques.jpg,stim_fb/negf.jpg,stim_fb/posf.jpg,stim_02/c.jpg,stim_02/d.jpg,2,2,j,0,22,22,33,f,0,0.733123379812,02,01,60.0197566562,PLT_learning_02,N,2014_Mrz_06_1454,P19,
stim_fb/ques.jpg,stim_fb/posf.jpg,stim_fb/negf.jpg,stim_02/a.jpg,stim_02/b.jpg,2,1,j,0,23,23,19,j,1,0.883075111184,02,01,60.0197566562,PLT_learning_02,N,2014_Mrz_06_1454,P19,
stim_fb/ques.jpg,stim_fb/negf.jpg,stim_fb/posf.jpg,stim_02/d.jpg,stim_02/c.jpg,1,2,f,0,24,24,21,j,0,1.26630791984,02,01,60.0197566562,PLT_learning_02,N,2014_Mrz_06_1454,P19,
stim_fb/ques.jpg,stim_fb/negf.jpg,stim_fb/posf.jpg,stim_02/d.jpg,stim_02/c.jpg,1,2,f,0,25,25,22,j,0,1.2496298944,02,01,60.0197566562,PLT_learning_02,N,2014_Mrz_06_1454,P19,
stim_fb/ques.jpg,stim_fb/negf.jpg,stim_fb/posf.jpg,stim_02/a.jpg,stim_02/b.jpg,2,1,j,0,26,26,15,f,0,0.999697050032,02,01,60.0197566562,PLT_learning_02,N,2014_Mrz_06_1454,P19,
stim_fb/ques.jpg,stim_fb/posf.jpg,stim_fb/negf.jpg,stim_02/e.jpg,stim_02/f.jpg,2,3,j,0,27,27,59,j,1,1.04971763777,02,01,60.0197566562,PLT_learning_02,N,2014_Mrz_06_1454,P19,
stim_fb/ques.jpg,stim_fb/negf.jpg,stim_fb/posf.jpg,stim_02/c.jpg,stim_02/d.jpg,2,2,j,0,28,28,31,f,0,0.833089695981,02,01,60.0197566562,PLT_learning_02,N,2014_Mrz_06_1454,P19,
stim_fb/ques.jpg,stim_fb/negf.jpg,stim_fb/posf.jpg,stim_02/d.jpg,stim_02/c.jpg,1,2,f,0,29,29,20,j,0,1.46622699443,02,01,60.0197566562,PLT_learning_02,N,2014_Mrz_06_1454,P19,
stim_fb/ques.jpg,stim_fb/posf.jpg,stim_fb/negf.jpg,stim_02/a.jpg,stim_02/b.jpg,2,1,j,0,30,30,18,None,0,,02,01,60.0197566562,PLT_learning_02,N,2014_Mrz_06_1454,P19,
stim_fb/ques.jpg,stim_fb/negf.jpg,stim_fb/posf.jpg,stim_02/d.jpg,stim_02/c.jpg,1,2,f,0,31,31,23,j,0,1.18300568339,02,01,60.0197566562,PLT_learning_02,N,2014_Mrz_06_1454,P19,
stim_fb/ques.jpg,stim_fb/negf.jpg,stim_fb/posf.jpg,stim_02/b.jpg,stim_02/a.jpg,1,1,f,0,32,32,0,f,1,0.783113474659,02,01,60.0197566562,PLT_learning_02,N,2014_Mrz_06_1454,P19,
stim_fb/ques.jpg,stim_fb/negf.jpg,stim_fb/posf.jpg,stim_02/c.jpg,stim_02/d.jpg,2,2,j,0,33,33,32,f,0,1.29961632914,02,01,60.0197566562,PLT_learning_02,N,2014_Mrz_06_1454,P19,
stim_fb/ques.jpg,stim_fb/negf.jpg,stim_fb/posf.jpg,stim_02/f.jpg,stim_02/e.jpg,1,3,f,0,34,34,43,f,1,1.5162147284,02,01,60.0197566562,PLT_learning_02,N,2014_Mrz_06_1454,P19,
stim_fb/ques.jpg,stim_fb/negf.jpg,stim_fb/posf.jpg,stim_02/a.jpg,stim_02/b.jpg,2,1,j,0,35,35,14,j,1,1.08301209836,02,01,60.0197566562,PLT_learning_02,N,2014_Mrz_06_1454,P19,
stim_fb/ques.jpg,stim_fb/posf.jpg,stim_fb/negf.jpg,stim_02/b.jpg,stim_02/a.jpg,1,1,f,0,36,36,8,f,1,1.49955858543,02,01,60.0197566562,PLT_learning_02,N,2014_Mrz_06_1454,P19,
stim_fb/ques.jpg,stim_fb/negf.jpg,stim_fb/posf.jpg,stim_02/d.jpg,stim_02/c.jpg,1,2,f,0,37,37,25,j,0,0.899583544546,02,01,60.0197566562,PLT_learning_02,N,2014_Mrz_06_1454,P19,
stim_fb/ques.jpg,stim_fb/posf.jpg,stim_fb/negf.jpg,stim_02/c.jpg,stim_02/d.jpg,2,2,j,0,38,38,38,f,0,1.13300172404,02,01,60.0197566562,PLT_learning_02,N,2014_Mrz_06_1454,P19,
stim_fb/ques.jpg,stim_fb/posf.jpg,stim_fb/negf.jpg,stim_02/d.jpg,stim_02/c.jpg,1,2,f,0,39,39,28,f,1,1.066365444,02,01,60.0197566562,PLT_learning_02,N,2014_Mrz_06_1454,P19,
stim_fb/ques.jpg,stim_fb/posf.jpg,stim_fb/negf.jpg,stim_02/d.jpg,stim_02/c.jpg,1,2,f,0,40,40,29,j,0,0.783129823347,02,01,60.0197566562,PLT_learning_02,N,2014_Mrz_06_1454,P19,
stim_fb/ques.jpg,stim_fb/posf.jpg,stim_fb/negf.jpg,stim_02/e.jpg,stim_02/f.jpg,2,3,j,0,41,41,56,j,1,0.982942279597,02,01,60.0197566562,PLT_learning_02,N,2014_Mrz_06_1454,P19,
stim_fb/ques.jpg,stim_fb/negf.jpg,stim_fb/posf.jpg,stim_02/a.jpg,stim_02/b.jpg,2,1,j,0,42,42,10,j,1,1.29961012169,02,01,60.0197566562,PLT_learning_02,N,2014_Mrz_06_1454,P19,
stim_fb/ques.jpg,stim_fb/negf.jpg,stim_fb/posf.jpg,stim_02/b.jpg,stim_02/a.jpg,1,1,f,0,43,43,7,f,1,1.18298568963,02,01,60.0197566562,PLT_learning_02,N,2014_Mrz_06_1454,P19,
stim_fb/ques.jpg,stim_fb/negf.jpg,stim_fb/posf.jpg,stim_02/e.jpg,stim_02/f.jpg,2,3,j,0,44,44,50,f,0,1.16634488483,02,01,60.0197566562,PLT_learning_02,N,2014_Mrz_06_1454,P19,
stim_fb/ques.jpg,stim_fb/posf.jpg,stim_fb/negf.jpg,stim_02/f.jpg,stim_02/e.jpg,1,3,f,0,45,45,46,f,1,1.44956025909,02,01,60.0197566562,PLT_learning_02,N,2014_Mrz_06_1454,P19,
stim_fb/ques.jpg,stim_fb/posf.jpg,stim_fb/negf.jpg,stim_02/b.jpg,stim_02/a.jpg,1,1,f,0,46,46,9,f,1,1.09969646959,02,01,60.0197566562,PLT_learning_02,N,2014_Mrz_06_1454,P19,
stim_fb/ques.jpg,stim_fb/negf.jpg,stim_fb/posf.jpg,stim_02/e.jpg,stim_02/f.jpg,2,3,j,0,47,47,55,j,1,0.949780794954,02,01,60.0197566562,PLT_learning_02,N,2014_Mrz_06_1454,P19,
stim_fb/ques.jpg,stim_fb/posf.jpg,stim_fb/negf.jpg,stim_02/f.jpg,stim_02/e.jpg,1,3,f,0,48,48,48,f,1,1.08296879659,02,01,60.0197566562,PLT_learning_02,N,2014_Mrz_06_1454,P19,
stim_fb/ques.jpg,stim_fb/posf.jpg,stim_fb/negf.jpg,stim_02/c.jpg,stim_02/d.jpg,2,2,j,0,49,49,39,f,0,1.3162492002,02,01,60.0197566562,PLT_learning_02,N,2014_Mrz_06_1454,P19,
stim_fb/ques.jpg,stim_fb/negf.jpg,stim_fb/posf.jpg,stim_02/f.jpg,stim_02/e.jpg,1,3,f,0,50,50,42,f,1,0.999686544888,02,01,60.0197566562,PLT_learning_02,N,2014_Mrz_06_1454,P19,
stim_fb/ques.jpg,stim_fb/negf.jpg,stim_fb/posf.jpg,stim_02/c.jpg,stim_02/d.jpg,2,2,j,0,51,51,36,f,0,1.4162532603,02,01,60.0197566562,PLT_learning_02,N,2014_Mrz_06_1454,P19,
stim_fb/ques.jpg,stim_fb/negf.jpg,stim_fb/posf.jpg,stim_02/d.jpg,stim_02/c.jpg,1,2,f,0,52,52,24,j,0,1.11639820604,02,01,60.0197566562,PLT_learning_02,N,2014_Mrz_06_1454,P19,
stim_fb/ques.jpg,stim_fb/negf.jpg,stim_fb/posf.jpg,stim_02/b.jpg,stim_02/a.jpg,1,1,f,0,53,53,3,f,1,1.08303275076,02,01,60.0197566562,PLT_learning_02,N,2014_Mrz_06_1454,P19,
stim_fb/ques.jpg,stim_fb/negf.jpg,stim_fb/posf.jpg,stim_02/e.jpg,stim_02/f.jpg,2,3,j,0,54,54,54,j,1,1.16632099939,02,01,60.0197566562,PLT_learning_02,N,2014_Mrz_06_1454,P19,
stim_fb/ques.jpg,stim_fb/negf.jpg,stim_fb/posf.jpg,stim_02/f.jpg,stim_02/e.jpg,1,3,f,0,55,55,44,f,1,1.08302544558,02,01,60.0197566562,PLT_learning_02,N,2014_Mrz_06_1454,P19,
stim_fb/ques.jpg,stim_fb/posf.jpg,stim_fb/negf.jpg,stim_02/c.jpg,stim_02/d.jpg,2,2,j,0,56,56,37,f,0,0.933069987932,02,01,60.0197566562,PLT_learning_02,N,2014_Mrz_06_1454,P19,
stim_fb/ques.jpg,stim_fb/negf.jpg,stim_fb/posf.jpg,stim_02/c.jpg,stim_02/d.jpg,2,2,j,0,57,57,34,f,0,0.983063511314,02,01,60.0197566562,PLT_learning_02,N,2014_Mrz_06_1454,P19,
stim_fb/ques.jpg,stim_fb/negf.jpg,stim_fb/posf.jpg,stim_02/c.jpg,stim_02/d.jpg,2,2,j,0,58,58,35,f,0,0.933089043358,02,01,60.0197566562,PLT_learning_02,N,2014_Mrz_06_1454,P19,
stim_fb/ques.jpg,stim_fb/posf.jpg,stim_fb/negf.jpg,stim_02/f.jpg,stim_02/e.jpg,1,3,f,0,59,59,47,j,0,0.84981370586,02,01,60.0197566562,PLT_learning_02,N,2014_Mrz_06_1454,P19,
stim_fb/ques.jpg,stim_fb/posf.jpg,stim_fb/negf.jpg,stim_02/c.jpg,stim_02/d.jpg,2,2,j,1,0,60,39,f,0,1.19966534212,02,01,60.0197566562,PLT_learning_02,N,2014_Mrz_06_1454,P19,
stim_fb/ques.jpg,stim_fb/posf.jpg,stim_fb/negf.jpg,stim_02/a.jpg,stim_02/b.jpg,2,1,j,1,1,61,19,f,0,0.916448280659,02,01,60.0197566562,PLT_learning_02,N,2014_Mrz_06_1454,P19,
stim_fb/ques.jpg,stim_fb/negf.jpg,stim_fb/posf.jpg,stim_02/c.jpg,stim_02/d.jpg,2,2,j,1,2,62,32,f,0,0.949779739325,02,01,60.0197566562,PLT_learning_02,N,2014_Mrz_06_1454,P19,
stim_fb/ques.jpg,stim_fb/negf.jpg,stim_fb/posf.jpg,stim_02/e.jpg,stim_02/f.jpg,2,3,j,1,3,63,54,j,1,0.916419667446,02,01,60.0197566562,PLT_learning_02,N,2014_Mrz_06_1454,P19,
stim_fb/ques.jpg,stim_fb/negf.jpg,stim_fb/posf.jpg,stim_02/a.jpg,stim_02/b.jpg,2,1,j,1,4,64,11,f,0,1.06639765717,02,01,60.0197566562,PLT_learning_02,N,2014_Mrz_06_1454,P19,
stim_fb/ques.jpg,stim_fb/negf.jpg,stim_fb/posf.jpg,stim_02/a.jpg,stim_02/b.jpg,2,1,j,1,5,65,10,j,1,0.666474603669,02,01,60.0197566562,PLT_learning_02,N,2014_Mrz_06_1454,P19,
stim_fb/ques.jpg,stim_fb/negf.jpg,stim_fb/posf.jpg,stim_02/c.jpg,stim_02/d.jpg,2,2,j,1,6,66,30,f,0,1.19966406093,02,01,60.0197566562,PLT_learning_02,N,2014_Mrz_06_1454,P19,
stim_fb/ques.jpg,stim_fb/negf.jpg,stim_fb/posf.jpg,stim_02/f.jpg,stim_02/e.jpg,1,3,f,1,7,67,41,j,0,0.766440661195,02,01,60.0197566562,PLT_learning_02,N,2014_Mrz_06_1454,P19,
stim_fb/ques.jpg,stim_fb/negf.jpg,stim_fb/posf.jpg,stim_02/e.jpg,stim_02/f.jpg,2,3,j,1,8,68,53,f,0,0.666497493638,02,01,60.0197566562,PLT_learning_02,N,2014_Mrz_06_1454,P19,
stim_fb/ques.jpg,stim_fb/negf.jpg,stim_fb/posf.jpg,stim_02/f.jpg,stim_02/e.jpg,1,3,f,1,9,69,44,j,0,0.783115522756,02,01,60.0197566562,PLT_learning_02,N,2014_Mrz_06_1454,P19,
stim_fb/ques.jpg,stim_fb/negf.jpg,stim_fb/posf.jpg,stim_02/c.jpg,stim_02/d.jpg,2,2,j,1,10,70,36,f,0,0.633171544681,02,01,60.0197566562,PLT_learning_02,N,2014_Mrz_06_1454,P19,
stim_fb/ques.jpg,stim_fb/negf.jpg,stim_fb/posf.jpg,stim_02/f.jpg,stim_02/e.jpg,1,3,f,1,11,71,42,j,0,0.849803826273,02,01,60.0197566562,PLT_learning_02,N,2014_Mrz_06_1454,P19,
stim_fb/ques.jpg,stim_fb/negf.jpg,stim_fb/posf.jpg,stim_02/b.jpg,stim_02/a.jpg,1,1,f,1,12,72,6,f,1,1.04970631158,02,01,60.0197566562,PLT_learning_02,N,2014_Mrz_06_1454,P19,
stim_fb/ques.jpg,stim_fb/negf.jpg,stim_fb/posf.jpg,stim_02/c.jpg,stim_02/d.jpg,2,2,j,1,13,73,33,f,0,1.01637137325,02,01,60.0197566562,PLT_learning_02,N,2014_Mrz_06_1454,P19,
stim_fb/ques.jpg,stim_fb/negf.jpg,stim_fb/posf.jpg,stim_02/d.jpg,stim_02/c.jpg,1,2,f,1,14,74,21,j,0,1.11632685045,02,01,60.0197566562,PLT_learning_02,N,2014_Mrz_06_1454,P19,
stim_fb/ques.jpg,stim_fb/negf.jpg,stim_fb/posf.jpg,stim_02/e.jpg,stim_02/f.jpg,2,3,j,1,15,75,55,j,1,0.966423082446,02,01,60.0197566562,PLT_learning_02,N,2014_Mrz_06_1454,P19,
stim_fb/ques.jpg,stim_fb/negf.jpg,stim_fb/posf.jpg,stim_02/f.jpg,stim_02/e.jpg,1,3,f,1,16,76,40,f,1,0.916405899181,02,01,60.0197566562,PLT_learning_02,N,2014_Mrz_06_1454,P19,
stim_fb/ques.jpg,stim_fb/negf.jpg,stim_fb/posf.jpg,stim_02/c.jpg,stim_02/d.jpg,2,2,j,1,17,77,31,j,1,1.16634018413,02,01,60.0197566562,PLT_learning_02,N,2014_Mrz_06_1454,P19,
stim_fb/ques.jpg,stim_fb/negf.jpg,stim_fb/posf.jpg,stim_02/d.jpg,stim_02/c.jpg,1,2,f,1,18,78,22,j,0,1.0496923749,02,01,60.0197566562,PLT_learning_02,N,2014_Mrz_06_1454,P19,
stim_fb/ques.jpg,stim_fb/negf.jpg,stim_fb/posf.jpg,stim_02/b.jpg,stim_02/a.jpg,1,1,f,1,19,79,0,f,1,1.16634288486,02,01,60.0197566562,PLT_learning_02,N,2014_Mrz_06_1454,P19,
stim_fb/ques.jpg,stim_fb/negf.jpg,stim_fb/posf.jpg,stim_02/a.jpg,stim_02/b.jpg,2,1,j,1,20,80,12,j,1,1.09971257467,02,01,60.0197566562,PLT_learning_02,N,2014_Mrz_06_1454,P19,
stim_fb/ques.jpg,stim_fb/posf.jpg,stim_fb/negf.jpg,stim_02/f.jpg,stim_02/e.jpg,1,3,f,1,21,81,48,f,1,1.04968365018,02,01,60.0197566562,PLT_learning_02,N,2014_Mrz_06_1454,P19,
stim_fb/ques.jpg,stim_fb/negf.jpg,stim_fb/posf.jpg,stim_02/c.jpg,stim_02/d.jpg,2,2,j,1,22,82,35,j,1,1.08301379157,02,01,60.0197566562,PLT_learning_02,N,2014_Mrz_06_1454,P19,
stim_fb/ques.jpg,stim_fb/posf.jpg,stim_fb/negf.jpg,stim_02/f.jpg,stim_02/e.jpg,1,3,f,1,23,83,47,f,1,1.26630882509,02,01,60.0197566562,PLT_learning_02,N,2014_Mrz_06_1454,P19,
stim_fb/ques.jpg,stim_fb/negf.jpg,stim_fb/posf.jpg,stim_02/b.jpg,stim_02/a.jpg,1,1,f,1,24,84,2,f,1,1.31627830664,02,01,60.0197566562,PLT_learning_02,N,2014_Mrz_06_1454,P19,
stim_fb/ques.jpg,stim_fb/negf.jpg,stim_fb/posf.jpg,stim_02/a.jpg,stim_02/b.jpg,2,1,j,1,25,85,13,j,1,1.13301588027,02,01,60.0197566562,PLT_learning_02,N,2014_Mrz_06_1454,P19,
stim_fb/ques.jpg,stim_fb/negf.jpg,stim_fb/posf.jpg,stim_02/a.jpg,stim_02/b.jpg,2,1,j,1,26,86,17,j,1,1.11633773153,02,01,60.0197566562,PLT_learning_02,N,2014_Mrz_06_1454,P19,
stim_fb/ques.jpg,stim_fb/negf.jpg,stim_fb/posf.jpg,stim_02/f.jpg,stim_02/e.jpg,1,3,f,1,27,87,45,f,1,1.19964593181,02,01,60.0197566562,PLT_learning_02,N,2014_Mrz_06_1454,P19,
stim_fb/ques.jpg,stim_fb/posf.jpg,stim_fb/negf.jpg,stim_02/d.jpg,stim_02/c.jpg,1,2,f,1,28,88,27,f,1,1.59950984613,02,01,60.0197566562,PLT_learning_02,N,2014_Mrz_06_1454,P19,
stim_fb/ques.jpg,stim_fb/negf.jpg,stim_fb/posf.jpg,stim_02/e.jpg,stim_02/f.jpg,2,3,j,1,29,89,52,j,1,0.883131871444,02,01,60.0197566562,PLT_learning_02,N,2014_Mrz_06_1454,P19,
stim_fb/ques.jpg,stim_fb/negf.jpg,stim_fb/posf.jpg,stim_02/b.jpg,stim_02/a.jpg,1,1,f,1,30,90,1,f,1,0.966413584811,02,01,60.0197566562,PLT_learning_02,N,2014_Mrz_06_1454,P19,
stim_fb/ques.jpg,stim_fb/posf.jpg,stim_fb/negf.jpg,stim_02/d.jpg,stim_02/c.jpg,1,2,f,1,31,91,29,f,1,0.866468904487,02,01,60.0197566562,PLT_learning_02,N,2014_Mrz_06_1454,P19,
stim_fb/ques.jpg,stim_fb/posf.jpg,stim_fb/negf.jpg,stim_02/c.jpg,stim_02/d.jpg,2,2,j,1,32,92,38,j,1,0.866432134977,02,01,60.0197566562,PLT_learning_02,N,2014_Mrz_06_1454,P19,
stim_fb/ques.jpg,stim_fb/negf.jpg,stim_fb/posf.jpg,stim_02/a.jpg,stim_02/b.jpg,2,1,j,1,33,93,15,j,1,1.23299820829,02,01,60.0197566562,PLT_learning_02,N,2014_Mrz_06_1454,P19,
stim_fb/ques.jpg,stim_fb/negf.jpg,stim_fb/posf.jpg,stim_02/b.jpg,stim_02/a.jpg,1,1,f,1,34,94,7,f,1,1.01636179442,02,01,60.0197566562,PLT_learning_02,N,2014_Mrz_06_1454,P19,
stim_fb/ques.jpg,stim_fb/posf.jpg,stim_fb/negf.jpg,stim_02/f.jpg,stim_02/e.jpg,1,3,f,1,35,95,46,f,1,1.1496745345,02,01,60.0197566562,PLT_learning_02,N,2014_Mrz_06_1454,P19,
stim_fb/ques.jpg,stim_fb/negf.jpg,stim_fb/posf.jpg,stim_02/e.jpg,stim_02/f.jpg,2,3,j,1,36,96,50,j,1,0.816474280364,02,01,60.0197566562,PLT_learning_02,N,2014_Mrz_06_1454,P19,
stim_fb/ques.jpg,stim_fb/negf.jpg,stim_fb/posf.jpg,stim_02/b.jpg,stim_02/a.jpg,1,1,f,1,37,97,5,f,1,0.949739192416,02,01,60.0197566562,PLT_learning_02,N,2014_Mrz_06_1454,P19,
stim_fb/ques.jpg,stim_fb/negf.jpg,stim_fb/posf.jpg,stim_02/d.jpg,stim_02/c.jpg,1,2,f,1,38,98,25,f,1,1.11634615249,02,01,60.0197566562,PLT_learning_02,N,2014_Mrz_06_1454,P19,
stim_fb/ques.jpg,stim_fb/negf.jpg,stim_fb/posf.jpg,stim_02/a.jpg,stim_02/b.jpg,2,1,j,1,39,99,14,j,1,1.04971244384,02,01,60.0197566562,PLT_learning_02,N,2014_Mrz_06_1454,P19,
stim_fb/ques.jpg,stim_fb/negf.jpg,stim_fb/posf.jpg,stim_02/d.jpg,stim_02/c.jpg,1,2,f,1,40,100,20,f,1,1.19986255493,02,01,60.0197566562,PLT_learning_02,N,2014_Mrz_06_1454,P19,
stim_fb/ques.jpg,stim_fb/negf.jpg,stim_fb/posf.jpg,stim_02/d.jpg,stim_02/c.jpg,1,2,f,1,41,101,26,f,1,0.783122737712,02,01,60.0197566562,PLT_learning_02,N,2014_Mrz_06_1454,P19,
stim_fb/ques.jpg,stim_fb/posf.jpg,stim_fb/negf.jpg,stim_02/b.jpg,stim_02/a.jpg,1,1,f,1,42,102,8,f,1,1.28296412597,02,01,60.0197566562,PLT_learning_02,N,2014_Mrz_06_1454,P19,
stim_fb/ques.jpg,stim_fb/negf.jpg,stim_fb/posf.jpg,stim_02/b.jpg,stim_02/a.jpg,1,1,f,1,43,103,3,f,1,1.3162655549,02,01,60.0197566562,PLT_learning_02,N,2014_Mrz_06_1454,P19,
stim_fb/ques.jpg,stim_fb/negf.jpg,stim_fb/posf.jpg,stim_02/d.jpg,stim_02/c.jpg,1,2,f,1,44,104,24,f,1,0.933070833036,02,01,60.0197566562,PLT_learning_02,N,2014_Mrz_06_1454,P19,
stim_fb/ques.jpg,stim_fb/posf.jpg,stim_fb/negf.jpg,stim_02/e.jpg,stim_02/f.jpg,2,3,j,1,45,105,58,j,1,0.849771167994,02,01,60.0197566562,PLT_learning_02,N,2014_Mrz_06_1454,P19,
stim_fb/ques.jpg,stim_fb/posf.jpg,stim_fb/negf.jpg,stim_02/e.jpg,stim_02/f.jpg,2,3,j,1,46,106,57,f,0,0.816435276294,02,01,60.0197566562,PLT_learning_02,N,2014_Mrz_06_1454,P19,
stim_fb/ques.jpg,stim_fb/posf.jpg,stim_fb/negf.jpg,stim_02/c.jpg,stim_02/d.jpg,2,2,j,1,47,107,37,j,1,0.899760856832,02,01,60.0197566562,PLT_learning_02,N,2014_Mrz_06_1454,P19,
stim_fb/ques.jpg,stim_fb/negf.jpg,stim_fb/posf.jpg,stim_02/a.jpg,stim_02/b.jpg,2,1,j,1,48,108,16,j,1,0.949724151982,02,01,60.0197566562,PLT_learning_02,N,2014_Mrz_06_1454,P19,
stim_fb/ques.jpg,stim_fb/negf.jpg,stim_fb/posf.jpg,stim_02/e.jpg,stim_02/f.jpg,2,3,j,1,49,109,51,j,1,0.9830627023,02,01,60.0197566562,PLT_learning_02,N,2014_Mrz_06_1454,P19,
stim_fb/ques.jpg,stim_fb/negf.jpg,stim_fb/posf.jpg,stim_02/d.jpg,stim_02/c.jpg,1,2,f,1,50,110,23,f,1,0.766446946838,02,01,60.0197566562,PLT_learning_02,N,2014_Mrz_06_1454,P19,
stim_fb/ques.jpg,stim_fb/posf.jpg,stim_fb/negf.jpg,stim_02/a.jpg,stim_02/b.jpg,2,1,j,1,51,111,18,j,1,0.733104318373,02,01,60.0197566562,PLT_learning_02,N,2014_Mrz_06_1454,P19,
stim_fb/ques.jpg,stim_fb/posf.jpg,stim_fb/negf.jpg,stim_02/f.jpg,stim_02/e.jpg,1,3,f,1,52,112,49,f,1,0.699827439539,02,01,60.0197566562,PLT_learning_02,N,2014_Mrz_06_1454,P19,
stim_fb/ques.jpg,stim_fb/posf.jpg,stim_fb/negf.jpg,stim_02/e.jpg,stim_02/f.jpg,2,3,j,1,53,113,56,j,1,0.749793354209,02,01,60.0197566562,PLT_learning_02,N,2014_Mrz_06_1454,P19,
stim_fb/ques.jpg,stim_fb/posf.jpg,stim_fb/negf.jpg,stim_02/e.jpg,stim_02/f.jpg,2,3,j,1,54,114,59,j,1,1.11635245317,02,01,60.0197566562,PLT_learning_02,N,2014_Mrz_06_1454,P19,
stim_fb/ques.jpg,stim_fb/negf.jpg,stim_fb/posf.jpg,stim_02/f.jpg,stim_02/e.jpg,1,3,f,1,55,115,43,f,1,0.799753843379,02,01,60.0197566562,PLT_learning_02,N,2014_Mrz_06_1454,P19,
stim_fb/ques.jpg,stim_fb/negf.jpg,stim_fb/posf.jpg,stim_02/c.jpg,stim_02/d.jpg,2,2,j,1,56,116,34,j,1,1.4828876336,02,01,60.0197566562,PLT_learning_02,N,2014_Mrz_06_1454,P19,
stim_fb/ques.jpg,stim_fb/posf.jpg,stim_fb/negf.jpg,stim_02/b.jpg,stim_02/a.jpg,1,1,f,1,57,117,9,f,1,1.06640704654,02,01,60.0197566562,PLT_learning_02,N,2014_Mrz_06_1454,P19,
stim_fb/ques.jpg,stim_fb/posf.jpg,stim_fb/negf.jpg,stim_02/d.jpg,stim_02/c.jpg,1,2,f,1,58,118,28,f,1,0.916342414184,02,01,60.0197566562,PLT_learning_02,N,2014_Mrz_06_1454,P19,
stim_fb/ques.jpg,stim_fb/negf.jpg,stim_fb/posf.jpg,stim_02/b.jpg,stim_02/a.jpg,1,1,f,1,59,119,4,j,0,1.23298698436,02,01,60.0197566562,PLT_learning_02,N,2014_Mrz_06_1454,P19,
stim_fb/ques.jpg,stim_fb/posf.jpg,stim_fb/negf.jpg,stim_02/f.jpg,stim_02/e.jpg,1,3,f,2,0,120,47,f,1,1.08302310576,02,01,60.0197566562,PLT_learning_02,N,2014_Mrz_06_1454,P19,
stim_fb/ques.jpg,stim_fb/negf.jpg,stim_fb/posf.jpg,stim_02/b.jpg,stim_02/a.jpg,1,1,f,2,1,121,4,f,1,1.01638640466,02,01,60.0197566562,PLT_learning_02,N,2014_Mrz_06_1454,P19,
stim_fb/ques.jpg,stim_fb/negf.jpg,stim_fb/posf.jpg,stim_02/c.jpg,stim_02/d.jpg,2,2,j,2,2,122,30,j,1,0.999701946219,02,01,60.0197566562,PLT_learning_02,N,2014_Mrz_06_1454,P19,
stim_fb/ques.jpg,stim_fb/negf.jpg,stim_fb/posf.jpg,stim_02/d.jpg,stim_02/c.jpg,1,2,f,2,3,123,23,f,1,0.999733187971,02,01,60.0197566562,PLT_learning_02,N,2014_Mrz_06_1454,P19,
stim_fb/ques.jpg,stim_fb/posf.jpg,stim_fb/negf.jpg,stim_02/c.jpg,stim_02/d.jpg,2,2,j,2,4,124,39,j,1,0.849767306385,02,01,60.0197566562,PLT_learning_02,N,2014_Mrz_06_1454,P19,
stim_fb/ques.jpg,stim_fb/negf.jpg,stim_fb/posf.jpg,stim_02/b.jpg,stim_02/a.jpg,1,1,f,2,5,125,6,j,0,1.16634664421,02,01,60.0197566562,PLT_learning_02,N,2014_Mrz_06_1454,P19,
stim_fb/ques.jpg,stim_fb/negf.jpg,stim_fb/posf.jpg,stim_02/e.jpg,stim_02/f.jpg,2,3,j,2,6,126,53,j,1,0.98304327094,02,01,60.0197566562,PLT_learning_02,N,2014_Mrz_06_1454,P19,
stim_fb/ques.jpg,stim_fb/negf.jpg,stim_fb/posf.jpg,stim_02/f.jpg,stim_02/e.jpg,1,3,f,2,7,127,40,f,1,0.933026271132,02,01,60.0197566562,PLT_learning_02,N,2014_Mrz_06_1454,P19,
stim_fb/ques.jpg,stim_fb/negf.jpg,stim_fb/posf.jpg,stim_02/f.jpg,stim_02/e.jpg,1,3,f,2,8,128,45,f,1,0.699823424548,02,01,60.0197566562,PLT_learning_02,N,2014_Mrz_06_1454,P19,
stim_fb/ques.jpg,stim_fb/negf.jpg,stim_fb/posf.jpg,stim_02/b.jpg,stim_02/a.jpg,1,1,f,2,9,129,0,f,1,1.0830190276,02,01,60.0197566562,PLT_learning_02,N,2014_Mrz_06_1454,P19,
stim_fb/ques.jpg,stim_fb/posf.jpg,stim_fb/negf.jpg,stim_02/e.jpg,stim_02/f.jpg,2,3,j,2,10,130,59,j,1,0.800023593718,02,01,60.0197566562,PLT_learning_02,N,2014_Mrz_06_1454,P19,
stim_fb/ques.jpg,stim_fb/negf.jpg,stim_fb/posf.jpg,stim_02/d.jpg,stim_02/c.jpg,1,2,f,2,11,131,20,f,1,1.1496816863,02,01,60.0197566562,PLT_learning_02,N,2014_Mrz_06_1454,P19,
stim_fb/ques.jpg,stim_fb/posf.jpg,stim_fb/negf.jpg,stim_02/e.jpg,stim_02/f.jpg,2,3,j,2,12,132,57,j,1,1.34955641252,02,01,60.0197566562,PLT_learning_02,N,2014_Mrz_06_1454,P19,
stim_fb/ques.jpg,stim_fb/negf.jpg,stim_fb/posf.jpg,stim_02/b.jpg,stim_02/a.jpg,1,1,f,2,13,133,7,f,1,1.11630893486,02,01,60.0197566562,PLT_learning_02,N,2014_Mrz_06_1454,P19,
stim_fb/ques.jpg,stim_fb/negf.jpg,stim_fb/posf.jpg,stim_02/b.jpg,stim_02/a.jpg,1,1,f,2,14,134,3,f,1,0.983052597152,02,01,60.0197566562,PLT_learning_02,N,2014_Mrz_06_1454,P19,
stim_fb/ques.jpg,stim_fb/negf.jpg,stim_fb/posf.jpg,stim_02/f.jpg,stim_02/e.jpg,1,3,f,2,15,135,41,f,1,1.09969201851,02,01,60.0197566562,PLT_learning_02,N,2014_Mrz_06_1454,P19,
stim_fb/ques.jpg,stim_fb/posf.jpg,stim_fb/negf.jpg,stim_02/b.jpg,stim_02/a.jpg,1,1,f,2,16,136,9,f,1,0.833117437021,02,01,60.0197566562,PLT_learning_02,N,2014_Mrz_06_1454,P19,
stim_fb/ques.jpg,stim_fb/negf.jpg,stim_fb/posf.jpg,stim_02/e.jpg,stim_02/f.jpg,2,3,j,2,17,137,51,f,0,0.983077703635,02,01,60.0197566562,PLT_learning_02,N,2014_Mrz_06_1454,P19,
stim_fb/ques.jpg,stim_fb/negf.jpg,stim_fb/posf.jpg,stim_02/a.jpg,stim_02/b.jpg,2,1,j,2,18,138,10,j,1,1.16631487915,02,01,60.0197566562,PLT_learning_02,N,2014_Mrz_06_1454,P19,
stim_fb/ques.jpg,stim_fb/negf.jpg,stim_fb/posf.jpg,stim_02/c.jpg,stim_02/d.jpg,2,2,j,2,19,139,33,f,0,0.899760718488,02,01,60.0197566562,PLT_learning_02,N,2014_Mrz_06_1454,P19,
stim_fb/ques.jpg,stim_fb/negf.jpg,stim_fb/posf.jpg,stim_02/e.jpg,stim_02/f.jpg,2,3,j,2,20,140,54,j,1,1.23294686451,02,01,60.0197566562,PLT_learning_02,N,2014_Mrz_06_1454,P19,
stim_fb/ques.jpg,stim_fb/negf.jpg,stim_fb/posf.jpg,stim_02/c.jpg,stim_02/d.jpg,2,2,j,2,21,141,35,j,1,0.916444169427,02,01,60.0197566562,PLT_learning_02,N,2014_Mrz_06_1454,P19,
stim_fb/ques.jpg,stim_fb/negf.jpg,stim_fb/posf.jpg,stim_02/e.jpg,stim_02/f.jpg,2,3,j,2,22,142,50,j,1,0.916377950625,02,01,60.0197566562,PLT_learning_02,N,2014_Mrz_06_1454,P19,
stim_fb/ques.jpg,stim_fb/negf.jpg,stim_fb/posf.jpg,stim_02/a.jpg,stim_02/b.jpg,2,1,j,2,23,143,11,j,1,0.866437999572,02,01,60.0197566562,PLT_learning_02,N,2014_Mrz_06_1454,P19,
stim_fb/ques.jpg,stim_fb/posf.jpg,stim_fb/negf.jpg,stim_02/f.jpg,stim_02/e.jpg,1,3,f,2,24,144,46,j,0,1.44956565753,02,01,60.0197566562,PLT_learning_02,N,2014_Mrz_06_1454,P19,
stim_fb/ques.jpg,stim_fb/posf.jpg,stim_fb/negf.jpg,stim_02/c.jpg,stim_02/d.jpg,2,2,j,2,25,145,38,j,1,1.3162801803,02,01,60.0197566562,PLT_learning_02,N,2014_Mrz_06_1454,P19,
stim_fb/ques.jpg,stim_fb/negf.jpg,stim_fb/posf.jpg,stim_02/d.jpg,stim_02/c.jpg,1,2,f,2,26,146,21,f,1,1.01638375507,02,01,60.0197566562,PLT_learning_02,N,2014_Mrz_06_1454,P19,
stim_fb/ques.jpg,stim_fb/negf.jpg,stim_fb/posf.jpg,stim_02/d.jpg,stim_02/c.jpg,1,2,f,2,27,147,22,f,1,0.766448101715,02,01,60.0197566562,PLT_learning_02,N,2014_Mrz_06_1454,P19,
stim_fb/ques.jpg,stim_fb/posf.jpg,stim_fb/negf.jpg,stim_02/a.jpg,stim_02/b.jpg,2,1,j,2,28,148,18,j,1,0.983048491935,02,01,60.0197566562,PLT_learning_02,N,2014_Mrz_06_1454,P19,
stim_fb/ques.jpg,stim_fb/negf.jpg,stim_fb/posf.jpg,stim_02/e.jpg,stim_02/f.jpg,2,3,j,2,29,149,52,f,0,1.28298826103,02,01,60.0197566562,PLT_learning_02,N,2014_Mrz_06_1454,P19,
stim_fb/ques.jpg,stim_fb/negf.jpg,stim_fb/posf.jpg,stim_02/b.jpg,stim_02/a.jpg,1,1,f,2,30,150,5,f,1,0.999709434856,02,01,60.0197566562,PLT_learning_02,N,2014_Mrz_06_1454,P19,
stim_fb/ques.jpg,stim_fb/negf.jpg,stim_fb/posf.jpg,stim_02/c.jpg,stim_02/d.jpg,2,2,j,2,31,151,34,j,1,1.28296172299,02,01,60.0197566562,PLT_learning_02,N,2014_Mrz_06_1454,P19,
stim_fb/ques.jpg,stim_fb/negf.jpg,stim_fb/posf.jpg,stim_02/b.jpg,stim_02/a.jpg,1,1,f,2,32,152,2,f,1,0.849763682363,02,01,60.0197566562,PLT_learning_02,N,2014_Mrz_06_1454,P19,
stim_fb/ques.jpg,stim_fb/posf.jpg,stim_fb/negf.jpg,stim_02/d.jpg,stim_02/c.jpg,1,2,f,2,33,153,28,f,1,0.949729983497,02,01,60.0197566562,PLT_learning_02,N,2014_Mrz_06_1454,P19,
stim_fb/ques.jpg,stim_fb/posf.jpg,stim_fb/negf.jpg,stim_02/f.jpg,stim_02/e.jpg,1,3,f,2,34,154,48,f,1,1.16634986523,02,01,60.0197566562,PLT_learning_02,N,2014_Mrz_06_1454,P19,
stim_fb/ques.jpg,stim_fb/negf.jpg,stim_fb/posf.jpg,stim_02/e.jpg,stim_02/f.jpg,2,3,j,2,35,155,55,j,1,0.866422823801,02,01,60.0197566562,PLT_learning_02,N,2014_Mrz_06_1454,P19,
stim_fb/ques.jpg,stim_fb/negf.jpg,stim_fb/posf.jpg,stim_02/f.jpg,stim_02/e.jpg,1,3,f,2,36,156,43,f,1,0.966403275152,02,01,60.0197566562,PLT_learning_02,N,2014_Mrz_06_1454,P19,
stim_fb/ques.jpg,stim_fb/negf.jpg,stim_fb/posf.jpg,stim_02/f.jpg,stim_02/e.jpg,1,3,f,2,37,157,42,f,1,1.08307504502,02,01,60.0197566562,PLT_learning_02,N,2014_Mrz_06_1454,P19,
stim_fb/ques.jpg,stim_fb/posf.jpg,stim_fb/negf.jpg,stim_02/e.jpg,stim_02/f.jpg,2,3,j,2,38,158,56,j,1,0.883130199283,02,01,60.0197566562,PLT_learning_02,N,2014_Mrz_06_1454,P19,
stim_fb/ques.jpg,stim_fb/negf.jpg,stim_fb/posf.jpg,stim_02/d.jpg,stim_02/c.jpg,1,2,f,2,39,159,25,f,1,0.749806099931,02,01,60.0197566562,PLT_learning_02,N,2014_Mrz_06_1454,P19,
stim_fb/ques.jpg,stim_fb/negf.jpg,stim_fb/posf.jpg,stim_02/f.jpg,stim_02/e.jpg,1,3,f,2,40,160,44,f,1,1.13294820284,02,01,60.0197566562,PLT_learning_02,N,2014_Mrz_06_1454,P19,
stim_fb/ques.jpg,stim_fb/negf.jpg,stim_fb/posf.jpg,stim_02/c.jpg,stim_02/d.jpg,2,2,j,2,41,161,32,j,1,0.749785877604,02,01,60.0197566562,PLT_learning_02,N,2014_Mrz_06_1454,P19,
stim_fb/ques.jpg,stim_fb/posf.jpg,stim_fb/negf.jpg,stim_02/d.jpg,stim_02/c.jpg,1,2,f,2,42,162,29,f,1,0.966350003571,02,01,60.0197566562,PLT_learning_02,N,2014_Mrz_06_1454,P19,
stim_fb/ques.jpg,stim_fb/posf.jpg,stim_fb/negf.jpg,stim_02/e.jpg,stim_02/f.jpg,2,3,j,2,43,163,58,j,1,0.599839331137,02,01,60.0197566562,PLT_learning_02,N,2014_Mrz_06_1454,P19,
stim_fb/ques.jpg,stim_fb/negf.jpg,stim_fb/posf.jpg,stim_02/a.jpg,stim_02/b.jpg,2,1,j,2,44,164,13,j,1,1.16631747762,02,01,60.0197566562,PLT_learning_02,N,2014_Mrz_06_1454,P19,
stim_fb/ques.jpg,stim_fb/posf.jpg,stim_fb/negf.jpg,stim_02/c.jpg,stim_02/d.jpg,2,2,j,2,45,165,37,j,1,0.683194643669,02,01,60.0197566562,PLT_learning_02,N,2014_Mrz_06_1454,P19,
stim_fb/ques.jpg,stim_fb/posf.jpg,stim_fb/negf.jpg,stim_02/f.jpg,stim_02/e.jpg,1,3,f,2,46,166,49,f,1,0.549891972647,02,01,60.0197566562,PLT_learning_02,N,2014_Mrz_06_1454,P19,
stim_fb/ques.jpg,stim_fb/posf.jpg,stim_fb/negf.jpg,stim_02/a.jpg,stim_02/b.jpg,2,1,j,2,47,167,19,j,1,0.599872284147,02,01,60.0197566562,PLT_learning_02,N,2014_Mrz_06_1454,P19,
stim_fb/ques.jpg,stim_fb/negf.jpg,stim_fb/posf.jpg,stim_02/d.jpg,stim_02/c.jpg,1,2,f,2,48,168,26,f,1,0.683155576442,02,01,60.0197566562,PLT_learning_02,N,2014_Mrz_06_1454,P19,
stim_fb/ques.jpg,stim_fb/posf.jpg,stim_fb/negf.jpg,stim_02/b.jpg,stim_02/a.jpg,1,1,f,2,49,169,8,f,1,0.99977002064,02,01,60.0197566562,PLT_learning_02,N,2014_Mrz_06_1454,P19,
stim_fb/ques.jpg,stim_fb/negf.jpg,stim_fb/posf.jpg,stim_02/d.jpg,stim_02/c.jpg,1,2,f,2,50,170,24,f,1,0.933081515621,02,01,60.0197566562,PLT_learning_02,N,2014_Mrz_06_1454,P19,
stim_fb/ques.jpg,stim_fb/negf.jpg,stim_fb/posf.jpg,stim_02/a.jpg,stim_02/b.jpg,2,1,j,2,51,171,17,j,1,0.816433907888,02,01,60.0197566562,PLT_learning_02,N,2014_Mrz_06_1454,P19,
stim_fb/ques.jpg,stim_fb/negf.jpg,stim_fb/posf.jpg,stim_02/a.jpg,stim_02/b.jpg,2,1,j,2,52,172,14,j,1,1.03305043327,02,01,60.0197566562,PLT_learning_02,N,2014_Mrz_06_1454,P19,
stim_fb/ques.jpg,stim_fb/negf.jpg,stim_fb/posf.jpg,stim_02/c.jpg,stim_02/d.jpg,2,2,j,2,53,173,31,f,0,1.41626320305,02,01,60.0197566562,PLT_learning_02,N,2014_Mrz_06_1454,P19,
stim_fb/ques.jpg,stim_fb/negf.jpg,stim_fb/posf.jpg,stim_02/a.jpg,stim_02/b.jpg,2,1,j,2,54,174,12,j,1,1.01638418213,02,01,60.0197566562,PLT_learning_02,N,2014_Mrz_06_1454,P19,
stim_fb/ques.jpg,stim_fb/negf.jpg,stim_fb/posf.jpg,stim_02/b.jpg,stim_02/a.jpg,1,1,f,2,55,175,1,f,1,1.01639623914,02,01,60.0197566562,PLT_learning_02,N,2014_Mrz_06_1454,P19,
stim_fb/ques.jpg,stim_fb/negf.jpg,stim_fb/posf.jpg,stim_02/c.jpg,stim_02/d.jpg,2,2,j,2,56,176,36,f,0,1.36627734274,02,01,60.0197566562,PLT_learning_02,N,2014_Mrz_06_1454,P19,
stim_fb/ques.jpg,stim_fb/negf.jpg,stim_fb/posf.jpg,stim_02/a.jpg,stim_02/b.jpg,2,1,j,2,57,177,16,j,1,1.09969658688,02,01,60.0197566562,PLT_learning_02,N,2014_Mrz_06_1454,P19,
stim_fb/ques.jpg,stim_fb/posf.jpg,stim_fb/negf.jpg,stim_02/d.jpg,stim_02/c.jpg,1,2,f,2,58,178,27,None,0,,02,01,60.0197566562,PLT_learning_02,N,2014_Mrz_06_1454,P19,
stim_fb/ques.jpg,stim_fb/negf.jpg,stim_fb/posf.jpg,stim_02/a.jpg,stim_02/b.jpg,2,1,j,2,59,179,15,j,1,1.03304316117,02,01,60.0197566562,PLT_learning_02,N,2014_Mrz_06_1454,P19,
stim_fb/ques.jpg,stim_fb/negf.jpg,stim_fb/posf.jpg,stim_02/e.jpg,stim_02/f.jpg,2,3,j,3,0,180,55,f,0,1.48285154979,02,01,60.0197566562,PLT_learning_02,N,2014_Mrz_06_1454,P19,
stim_fb/ques.jpg,stim_fb/negf.jpg,stim_fb/posf.jpg,stim_02/c.jpg,stim_02/d.jpg,2,2,j,3,1,181,32,j,1,1.18297462811,02,01,60.0197566562,PLT_learning_02,N,2014_Mrz_06_1454,P19,
stim_fb/ques.jpg,stim_fb/negf.jpg,stim_fb/posf.jpg,stim_02/a.jpg,stim_02/b.jpg,2,1,j,3,2,182,10,j,1,1.01634591189,02,01,60.0197566562,PLT_learning_02,N,2014_Mrz_06_1454,P19,
stim_fb/ques.jpg,stim_fb/posf.jpg,stim_fb/negf.jpg,stim_02/c.jpg,stim_02/d.jpg,2,2,j,3,3,183,38,j,1,1.03302792224,02,01,60.0197566562,PLT_learning_02,N,2014_Mrz_06_1454,P19,
stim_fb/ques.jpg,stim_fb/negf.jpg,stim_fb/posf.jpg,stim_02/a.jpg,stim_02/b.jpg,2,1,j,3,4,184,11,j,1,0.949735526292,02,01,60.0197566562,PLT_learning_02,N,2014_Mrz_06_1454,P19,
stim_fb/ques.jpg,stim_fb/negf.jpg,stim_fb/posf.jpg,stim_02/c.jpg,stim_02/d.jpg,2,2,j,3,5,185,33,j,1,0.983064876713,02,01,60.0197566562,PLT_learning_02,N,2014_Mrz_06_1454,P19,
stim_fb/ques.jpg,stim_fb/posf.jpg,stim_fb/negf.jpg,stim_02/c.jpg,stim_02/d.jpg,2,2,j,3,6,186,39,j,1,0.683149720868,02,01,60.0197566562,PLT_learning_02,N,2014_Mrz_06_1454,P19,
stim_fb/ques.jpg,stim_fb/negf.jpg,stim_fb/posf.jpg,stim_02/d.jpg,stim_02/c.jpg,1,2,f,3,7,187,24,f,1,0.983051415211,02,01,60.0197566562,PLT_learning_02,N,2014_Mrz_06_1454,P19,
stim_fb/ques.jpg,stim_fb/negf.jpg,stim_fb/posf.jpg,stim_02/b.jpg,stim_02/a.jpg,1,1,f,3,8,188,5,f,1,0.88309740266,02,01,60.0197566562,PLT_learning_02,N,2014_Mrz_06_1454,P19,
stim_fb/ques.jpg,stim_fb/negf.jpg,stim_fb/posf.jpg,stim_02/f.jpg,stim_02/e.jpg,1,3,f,3,9,189,40,f,1,1.01624289049,02,01,60.0197566562,PLT_learning_02,N,2014_Mrz_06_1454,P19,
stim_fb/ques.jpg,stim_fb/negf.jpg,stim_fb/posf.jpg,stim_02/f.jpg,stim_02/e.jpg,1,3,f,3,10,190,43,f,1,0.766326154217,02,01,60.0197566562,PLT_learning_02,N,2014_Mrz_06_1454,P19,
stim_fb/ques.jpg,stim_fb/negf.jpg,stim_fb/posf.jpg,stim_02/f.jpg,stim_02/e.jpg,1,3,f,3,11,191,45,f,1,0.799777058153,02,01,60.0197566562,PLT_learning_02,N,2014_Mrz_06_1454,P19,
stim_fb/ques.jpg,stim_fb/posf.jpg,stim_fb/negf.jpg,stim_02/d.jpg,stim_02/c.jpg,1,2,f,3,12,192,28,f,1,1.03300049699,02,01,60.0197566562,PLT_learning_02,N,2014_Mrz_06_1454,P19,
stim_fb/ques.jpg,stim_fb/negf.jpg,stim_fb/posf.jpg,stim_02/e.jpg,stim_02/f.jpg,2,3,j,3,13,193,52,j,1,0.883089074936,02,01,60.0197566562,PLT_learning_02,N,2014_Mrz_06_1454,P19,
stim_fb/ques.jpg,stim_fb/negf.jpg,stim_fb/posf.jpg,stim_02/e.jpg,stim_02/f.jpg,2,3,j,3,14,194,54,j,1,0.833110582964,02,01,60.0197566562,PLT_learning_02,N,2014_Mrz_06_1454,P19,
stim_fb/ques.jpg,stim_fb/negf.jpg,stim_fb/posf.jpg,stim_02/b.jpg,stim_02/a.jpg,1,1,f,3,15,195,6,f,1,0.933064908291,02,01,60.0197566562,PLT_learning_02,N,2014_Mrz_06_1454,P19,
stim_fb/ques.jpg,stim_fb/negf.jpg,stim_fb/posf.jpg,stim_02/c.jpg,stim_02/d.jpg,2,2,j,3,16,196,30,j,1,0.899761689905,02,01,60.0197566562,PLT_learning_02,N,2014_Mrz_06_1454,P19,
stim_fb/ques.jpg,stim_fb/negf.jpg,stim_fb/posf.jpg,stim_02/b.jpg,stim_02/a.jpg,1,1,f,3,17,197,3,f,1,0.733137677395,02,01,60.0197566562,PLT_learning_02,N,2014_Mrz_06_1454,P19,
stim_fb/ques.jpg,stim_fb/negf.jpg,stim_fb/posf.jpg,stim_02/a.jpg,stim_02/b.jpg,2,1,j,3,18,198,12,j,1,0.616480692324,02,01,60.0197566562,PLT_learning_02,N,2014_Mrz_06_1454,P19,
stim_fb/ques.jpg,stim_fb/negf.jpg,stim_fb/posf.jpg,stim_02/d.jpg,stim_02/c.jpg,1,2,f,3,19,199,25,f,1,0.649837365743,02,01,60.0197566562,PLT_learning_02,N,2014_Mrz_06_1454,P19,
stim_fb/ques.jpg,stim_fb/posf.jpg,stim_fb/negf.jpg,stim_02/f.jpg,stim_02/e.jpg,1,3,f,3,20,200,46,f,1,0.949741595396,02,01,60.0197566562,PLT_learning_02,N,2014_Mrz_06_1454,P19,
stim_fb/ques.jpg,stim_fb/negf.jpg,stim_fb/posf.jpg,stim_02/e.jpg,stim_02/f.jpg,2,3,j,3,21,201,51,j,1,0.683149916355,02,01,60.0197566562,PLT_learning_02,N,2014_Mrz_06_1454,P19,
stim_fb/ques.jpg,stim_fb/negf.jpg,stim_fb/posf.jpg,stim_02/d.jpg,stim_02/c.jpg,1,2,f,3,22,202,21,f,1,0.683151985504,02,01,60.0197566562,PLT_learning_02,N,2014_Mrz_06_1454,P19,
stim_fb/ques.jpg,stim_fb/posf.jpg,stim_fb/negf.jpg,stim_02/e.jpg,stim_02/f.jpg,2,3,j,3,23,203,59,j,1,0.666496065083,02,01,60.0197566562,PLT_learning_02,N,2014_Mrz_06_1454,P19,
stim_fb/ques.jpg,stim_fb/negf.jpg,stim_fb/posf.jpg,stim_02/b.jpg,stim_02/a.jpg,1,1,f,3,24,204,0,f,1,0.6498549475,02,01,60.0197566562,PLT_learning_02,N,2014_Mrz_06_1454,P19,
stim_fb/ques.jpg,stim_fb/posf.jpg,stim_fb/negf.jpg,stim_02/c.jpg,stim_02/d.jpg,2,2,j,3,25,205,37,j,1,0.683089805754,02,01,60.0197566562,PLT_learning_02,N,2014_Mrz_06_1454,P19,
stim_fb/ques.jpg,stim_fb/negf.jpg,stim_fb/posf.jpg,stim_02/f.jpg,stim_02/e.jpg,1,3,f,3,26,206,42,f,1,0.749820048646,02,01,60.0197566562,PLT_learning_02,N,2014_Mrz_06_1454,P19,
stim_fb/ques.jpg,stim_fb/posf.jpg,stim_fb/negf.jpg,stim_02/b.jpg,stim_02/a.jpg,1,1,f,3,27,207,9,f,1,0.749796088016,02,01,60.0197566562,PLT_learning_02,N,2014_Mrz_06_1454,P19,
stim_fb/ques.jpg,stim_fb/posf.jpg,stim_fb/negf.jpg,stim_02/b.jpg,stim_02/a.jpg,1,1,f,3,28,208,8,f,1,0.733192846697,02,01,60.0197566562,PLT_learning_02,N,2014_Mrz_06_1454,P19,
stim_fb/ques.jpg,stim_fb/posf.jpg,stim_fb/negf.jpg,stim_02/e.jpg,stim_02/f.jpg,2,3,j,3,29,209,57,j,1,0.733129954175,02,01,60.0197566562,PLT_learning_02,N,2014_Mrz_06_1454,P19,
stim_fb/ques.jpg,stim_fb/negf.jpg,stim_fb/posf.jpg,stim_02/c.jpg,stim_02/d.jpg,2,2,j,3,30,210,36,f,0,0.799737166873,02,01,60.0197566562,PLT_learning_02,N,2014_Mrz_06_1454,P19,
stim_fb/ques.jpg,stim_fb/negf.jpg,stim_fb/posf.jpg,stim_02/b.jpg,stim_02/a.jpg,1,1,f,3,31,211,1,f,1,0.866447425029,02,01,60.0197566562,PLT_learning_02,N,2014_Mrz_06_1454,P19,
stim_fb/ques.jpg,stim_fb/negf.jpg,stim_fb/posf.jpg,stim_02/a.jpg,stim_02/b.jpg,2,1,j,3,32,212,16,j,1,0.666490149359,02,01,60.0197566562,PLT_learning_02,N,2014_Mrz_06_1454,P19,
stim_fb/ques.jpg,stim_fb/negf.jpg,stim_fb/posf.jpg,stim_02/d.jpg,stim_02/c.jpg,1,2,f,3,33,213,23,f,1,0.866463524095,02,01,60.0197566562,PLT_learning_02,N,2014_Mrz_06_1454,P19,
stim_fb/ques.jpg,stim_fb/posf.jpg,stim_fb/negf.jpg,stim_02/a.jpg,stim_02/b.jpg,2,1,j,3,34,214,18,j,1,0.866482693804,02,01,60.0197566562,PLT_learning_02,N,2014_Mrz_06_1454,P19,
stim_fb/ques.jpg,stim_fb/posf.jpg,stim_fb/negf.jpg,stim_02/d.jpg,stim_02/c.jpg,1,2,f,3,35,215,27,f,1,0.733142723953,02,01,60.0197566562,PLT_learning_02,N,2014_Mrz_06_1454,P19,
stim_fb/ques.jpg,stim_fb/negf.jpg,stim_fb/posf.jpg,stim_02/b.jpg,stim_02/a.jpg,1,1,f,3,36,216,7,f,1,1.09968072841,02,01,60.0197566562,PLT_learning_02,N,2014_Mrz_06_1454,P19,
stim_fb/ques.jpg,stim_fb/posf.jpg,stim_fb/negf.jpg,stim_02/d.jpg,stim_02/c.jpg,1,2,f,3,37,217,29,f,1,0.816469678914,02,01,60.0197566562,PLT_learning_02,N,2014_Mrz_06_1454,P19,
stim_fb/ques.jpg,stim_fb/negf.jpg,stim_fb/posf.jpg,stim_02/a.jpg,stim_02/b.jpg,2,1,j,3,38,218,15,j,1,0.71647511043,02,01,60.0197566562,PLT_learning_02,N,2014_Mrz_06_1454,P19,
stim_fb/ques.jpg,stim_fb/posf.jpg,stim_fb/negf.jpg,stim_02/a.jpg,stim_02/b.jpg,2,1,j,3,39,219,19,j,1,0.883089895979,02,01,60.0197566562,PLT_learning_02,N,2014_Mrz_06_1454,P19,
stim_fb/ques.jpg,stim_fb/negf.jpg,stim_fb/posf.jpg,stim_02/a.jpg,stim_02/b.jpg,2,1,j,3,40,220,17,j,1,0.649823257632,02,01,60.0197566562,PLT_learning_02,N,2014_Mrz_06_1454,P19,
stim_fb/ques.jpg,stim_fb/posf.jpg,stim_fb/negf.jpg,stim_02/f.jpg,stim_02/e.jpg,1,3,f,3,41,221,47,f,1,0.9330583219,02,01,60.0197566562,PLT_learning_02,N,2014_Mrz_06_1454,P19,
stim_fb/ques.jpg,stim_fb/negf.jpg,stim_fb/posf.jpg,stim_02/a.jpg,stim_02/b.jpg,2,1,j,3,42,222,13,j,1,0.549862469221,02,01,60.0197566562,PLT_learning_02,N,2014_Mrz_06_1454,P19,
stim_fb/ques.jpg,stim_fb/negf.jpg,stim_fb/posf.jpg,stim_02/d.jpg,stim_02/c.jpg,1,2,f,3,43,223,22,f,1,0.849822397491,02,01,60.0197566562,PLT_learning_02,N,2014_Mrz_06_1454,P19,
stim_fb/ques.jpg,stim_fb/negf.jpg,stim_fb/posf.jpg,stim_02/d.jpg,stim_02/c.jpg,1,2,f,3,44,224,20,f,1,0.78310919501,02,01,60.0197566562,PLT_learning_02,N,2014_Mrz_06_1454,P19,
stim_fb/ques.jpg,stim_fb/negf.jpg,stim_fb/posf.jpg,stim_02/a.jpg,stim_02/b.jpg,2,1,j,3,45,225,14,j,1,0.666497779348,02,01,60.0197566562,PLT_learning_02,N,2014_Mrz_06_1454,P19,
stim_fb/ques.jpg,stim_fb/negf.jpg,stim_fb/posf.jpg,stim_02/c.jpg,stim_02/d.jpg,2,2,j,3,46,226,35,j,1,0.966387639237,02,01,60.0197566562,PLT_learning_02,N,2014_Mrz_06_1454,P19,
stim_fb/ques.jpg,stim_fb/negf.jpg,stim_fb/posf.jpg,stim_02/b.jpg,stim_02/a.jpg,1,1,f,3,47,227,2,f,1,1.16633561877,02,01,60.0197566562,PLT_learning_02,N,2014_Mrz_06_1454,P19,
stim_fb/ques.jpg,stim_fb/negf.jpg,stim_fb/posf.jpg,stim_02/d.jpg,stim_02/c.jpg,1,2,f,3,48,228,26,f,1,0.933059239182,02,01,60.0197566562,PLT_learning_02,N,2014_Mrz_06_1454,P19,
stim_fb/ques.jpg,stim_fb/negf.jpg,stim_fb/posf.jpg,stim_02/f.jpg,stim_02/e.jpg,1,3,f,3,49,229,44,f,1,0.89976058616,02,01,60.0197566562,PLT_learning_02,N,2014_Mrz_06_1454,P19,
stim_fb/ques.jpg,stim_fb/negf.jpg,stim_fb/posf.jpg,stim_02/c.jpg,stim_02/d.jpg,2,2,j,3,50,230,34,j,1,0.833096270342,02,01,60.0197566562,PLT_learning_02,N,2014_Mrz_06_1454,P19,
stim_fb/ques.jpg,stim_fb/posf.jpg,stim_fb/negf.jpg,stim_02/e.jpg,stim_02/f.jpg,2,3,j,3,51,231,56,j,1,0.966397774462,02,01,60.0197566562,PLT_learning_02,N,2014_Mrz_06_1454,P19,
stim_fb/ques.jpg,stim_fb/posf.jpg,stim_fb/negf.jpg,stim_02/e.jpg,stim_02/f.jpg,2,3,j,3,52,232,58,j,1,0.799790922658,02,01,60.0197566562,PLT_learning_02,N,2014_Mrz_06_1454,P19,
stim_fb/ques.jpg,stim_fb/negf.jpg,stim_fb/posf.jpg,stim_02/b.jpg,stim_02/a.jpg,1,1,f,3,53,233,4,f,1,0.833134718028,02,01,60.0197566562,PLT_learning_02,N,2014_Mrz_06_1454,P19,
stim_fb/ques.jpg,stim_fb/negf.jpg,stim_fb/posf.jpg,stim_02/f.jpg,stim_02/e.jpg,1,3,f,3,54,234,41,f,1,0.933080670518,02,01,60.0197566562,PLT_learning_02,N,2014_Mrz_06_1454,P19,
stim_fb/ques.jpg,stim_fb/negf.jpg,stim_fb/posf.jpg,stim_02/e.jpg,stim_02/f.jpg,2,3,j,3,55,235,50,j,1,0.749794918103,02,01,60.0197566562,PLT_learning_02,N,2014_Mrz_06_1454,P19,
stim_fb/ques.jpg,stim_fb/negf.jpg,stim_fb/posf.jpg,stim_02/e.jpg,stim_02/f.jpg,2,3,j,3,56,236,53,j,1,0.716477266798,02,01,60.0197566562,PLT_learning_02,N,2014_Mrz_06_1454,P19,
stim_fb/ques.jpg,stim_fb/negf.jpg,stim_fb/posf.jpg,stim_02/c.jpg,stim_02/d.jpg,2,2,j,3,57,237,31,f,0,0.899766977065,02,01,60.0197566562,PLT_learning_02,N,2014_Mrz_06_1454,P19,
stim_fb/ques.jpg,stim_fb/posf.jpg,stim_fb/negf.jpg,stim_02/f.jpg,stim_02/e.jpg,1,3,f,3,58,238,48,f,1,0.899780327289,02,01,60.0197566562,PLT_learning_02,N,2014_Mrz_06_1454,P19,
stim_fb/ques.jpg,stim_fb/posf.jpg,stim_fb/negf.jpg,stim_02/f.jpg,stim_02/e.jpg,1,3,f,3,59,239,49,f,1,0.883096728983,02,01,60.0197566562,PLT_learning_02,N,2014_Mrz_06_1454,P19,
stim_fb/ques.jpg,stim_fb/negf.jpg,stim_fb/posf.jpg,stim_02/b.jpg,stim_02/a.jpg,1,1,f,4,0,240,0,f,1,0.916388618172,02,01,60.0197566562,PLT_learning_02,N,2014_Mrz_06_1454,P19,
stim_fb/ques.jpg,stim_fb/negf.jpg,stim_fb/posf.jpg,stim_02/d.jpg,stim_02/c.jpg,1,2,f,4,1,241,26,f,1,0.88307602245,02,01,60.0197566562,PLT_learning_02,N,2014_Mrz_06_1454,P19,
stim_fb/ques.jpg,stim_fb/negf.jpg,stim_fb/posf.jpg,stim_02/a.jpg,stim_02/b.jpg,2,1,j,4,2,242,17,j,1,0.883061526374,02,01,60.0197566562,PLT_learning_02,N,2014_Mrz_06_1454,P19,
stim_fb/ques.jpg,stim_fb/posf.jpg,stim_fb/negf.jpg,stim_02/b.jpg,stim_02/a.jpg,1,1,f,4,3,243,9,f,1,1.04962345537,02,01,60.0197566562,PLT_learning_02,N,2014_Mrz_06_1454,P19,
stim_fb/ques.jpg,stim_fb/negf.jpg,stim_fb/posf.jpg,stim_02/a.jpg,stim_02/b.jpg,2,1,j,4,4,244,14,j,1,0.983060569994,02,01,60.0197566562,PLT_learning_02,N,2014_Mrz_06_1454,P19,
stim_fb/ques.jpg,stim_fb/negf.jpg,stim_fb/posf.jpg,stim_02/b.jpg,stim_02/a.jpg,1,1,f,4,5,245,7,f,1,0.949753117069,02,01,60.0197566562,PLT_learning_02,N,2014_Mrz_06_1454,P19,
stim_fb/ques.jpg,stim_fb/negf.jpg,stim_fb/posf.jpg,stim_02/c.jpg,stim_02/d.jpg,2,2,j,4,6,246,31,j,1,0.799775548396,02,01,60.0197566562,PLT_learning_02,N,2014_Mrz_06_1454,P19,
stim_fb/ques.jpg,stim_fb/negf.jpg,stim_fb/posf.jpg,stim_02/e.jpg,stim_02/f.jpg,2,3,j,4,7,247,55,j,1,0.849778939335,02,01,60.0197566562,PLT_learning_02,N,2014_Mrz_06_1454,P19,
stim_fb/ques.jpg,stim_fb/negf.jpg,stim_fb/posf.jpg,stim_02/e.jpg,stim_02/f.jpg,2,3,j,4,8,248,50,j,1,0.916410521686,02,01,60.0197566562,PLT_learning_02,N,2014_Mrz_06_1454,P19,
stim_fb/ques.jpg,stim_fb/posf.jpg,stim_fb/negf.jpg,stim_02/e.jpg,stim_02/f.jpg,2,3,j,4,9,249,57,j,1,0.866423175679,02,01,60.0197566562,PLT_learning_02,N,2014_Mrz_06_1454,P19,
stim_fb/ques.jpg,stim_fb/posf.jpg,stim_fb/negf.jpg,stim_02/c.jpg,stim_02/d.jpg,2,2,j,4,10,250,38,j,1,0.949749859963,02,01,60.0197566562,PLT_learning_02,N,2014_Mrz_06_1454,P19,
stim_fb/ques.jpg,stim_fb/negf.jpg,stim_fb/posf.jpg,stim_02/b.jpg,stim_02/a.jpg,1,1,f,4,11,251,5,f,1,0.883116388914,02,01,60.0197566562,PLT_learning_02,N,2014_Mrz_06_1454,P19,
stim_fb/ques.jpg,stim_fb/negf.jpg,stim_fb/posf.jpg,stim_02/c.jpg,stim_02/d.jpg,2,2,j,4,12,252,34,j,1,0.683112906245,02,01,60.0197566562,PLT_learning_02,N,2014_Mrz_06_1454,P19,
stim_fb/ques.jpg,stim_fb/negf.jpg,stim_fb/posf.jpg,stim_02/d.jpg,stim_02/c.jpg,1,2,f,4,13,253,22,f,1,0.73313962023,02,01,60.0197566562,PLT_learning_02,N,2014_Mrz_06_1454,P19,
stim_fb/ques.jpg,stim_fb/negf.jpg,stim_fb/posf.jpg,stim_02/a.jpg,stim_02/b.jpg,2,1,j,4,14,254,13,j,1,0.699799307527,02,01,60.0197566562,PLT_learning_02,N,2014_Mrz_06_1454,P19,
stim_fb/ques.jpg,stim_fb/negf.jpg,stim_fb/posf.jpg,stim_02/c.jpg,stim_02/d.jpg,2,2,j,4,15,255,33,j,1,1.08302567716,02,01,60.0197566562,PLT_learning_02,N,2014_Mrz_06_1454,P19,
stim_fb/ques.jpg,stim_fb/negf.jpg,stim_fb/posf.jpg,stim_02/c.jpg,stim_02/d.jpg,2,2,j,4,16,256,32,j,1,0.616501690582,02,01,60.0197566562,PLT_learning_02,N,2014_Mrz_06_1454,P19,
stim_fb/ques.jpg,stim_fb/posf.jpg,stim_fb/negf.jpg,stim_02/a.jpg,stim_02/b.jpg,2,1,j,4,17,257,19,j,1,0.633048415244,02,01,60.0197566562,PLT_learning_02,N,2014_Mrz_06_1454,P19,
stim_fb/ques.jpg,stim_fb/negf.jpg,stim_fb/posf.jpg,stim_02/e.jpg,stim_02/f.jpg,2,3,j,4,18,258,52,j,1,0.983047986678,02,01,60.0197566562,PLT_learning_02,N,2014_Mrz_06_1454,P19,
stim_fb/ques.jpg,stim_fb/negf.jpg,stim_fb/posf.jpg,stim_02/d.jpg,stim_02/c.jpg,1,2,f,4,19,259,21,f,1,0.933073404436,02,01,60.0197566562,PLT_learning_02,N,2014_Mrz_06_1454,P19,
stim_fb/ques.jpg,stim_fb/posf.jpg,stim_fb/negf.jpg,stim_02/f.jpg,stim_02/e.jpg,1,3,f,4,20,260,48,f,1,0.882965575576,02,01,60.0197566562,PLT_learning_02,N,2014_Mrz_06_1454,P19,
stim_fb/ques.jpg,stim_fb/posf.jpg,stim_fb/negf.jpg,stim_02/d.jpg,stim_02/c.jpg,1,2,f,4,21,261,27,f,1,0.949727252701,02,01,60.0197566562,PLT_learning_02,N,2014_Mrz_06_1454,P19,
stim_fb/ques.jpg,stim_fb/posf.jpg,stim_fb/negf.jpg,stim_02/e.jpg,stim_02/f.jpg,2,3,j,4,22,262,56,j,1,0.749807675853,02,01,60.0197566562,PLT_learning_02,N,2014_Mrz_06_1454,P19,
stim_fb/ques.jpg,stim_fb/negf.jpg,stim_fb/posf.jpg,stim_02/c.jpg,stim_02/d.jpg,2,2,j,4,23,263,35,j,1,0.849784969341,02,01,60.0197566562,PLT_learning_02,N,2014_Mrz_06_1454,P19,
stim_fb/ques.jpg,stim_fb/negf.jpg,stim_fb/posf.jpg,stim_02/d.jpg,stim_02/c.jpg,1,2,f,4,24,264,24,f,1,0.749809348014,02,01,60.0197566562,PLT_learning_02,N,2014_Mrz_06_1454,P19,
stim_fb/ques.jpg,stim_fb/negf.jpg,stim_fb/posf.jpg,stim_02/f.jpg,stim_02/e.jpg,1,3,f,4,25,265,42,f,1,0.899771052207,02,01,60.0197566562,PLT_learning_02,N,2014_Mrz_06_1454,P19,
stim_fb/ques.jpg,stim_fb/posf.jpg,stim_fb/negf.jpg,stim_02/d.jpg,stim_02/c.jpg,1,2,f,4,26,266,28,f,1,0.783119949776,02,01,60.0197566562,PLT_learning_02,N,2014_Mrz_06_1454,P19,
stim_fb/ques.jpg,stim_fb/negf.jpg,stim_fb/posf.jpg,stim_02/f.jpg,stim_02/e.jpg,1,3,f,4,27,267,44,f,1,1.09967354052,02,01,60.0197566562,PLT_learning_02,N,2014_Mrz_06_1454,P19,
stim_fb/ques.jpg,stim_fb/posf.jpg,stim_fb/negf.jpg,stim_02/b.jpg,stim_02/a.jpg,1,1,f,4,28,268,8,f,1,0.916438422124,02,01,60.0197566562,PLT_learning_02,N,2014_Mrz_06_1454,P19,
stim_fb/ques.jpg,stim_fb/negf.jpg,stim_fb/posf.jpg,stim_02/c.jpg,stim_02/d.jpg,2,2,j,4,29,269,36,j,1,0.749840075487,02,01,60.0197566562,PLT_learning_02,N,2014_Mrz_06_1454,P19,
stim_fb/ques.jpg,stim_fb/posf.jpg,stim_fb/negf.jpg,stim_02/a.jpg,stim_02/b.jpg,2,1,j,4,30,270,18,j,1,0.899809358541,02,01,60.0197566562,PLT_learning_02,N,2014_Mrz_06_1454,P19,
stim_fb/ques.jpg,stim_fb/negf.jpg,stim_fb/posf.jpg,stim_02/b.jpg,stim_02/a.jpg,1,1,f,4,31,271,1,f,1,0.783164132736,02,01,60.0197566562,PLT_learning_02,N,2014_Mrz_06_1454,P19,
stim_fb/ques.jpg,stim_fb/posf.jpg,stim_fb/negf.jpg,stim_02/c.jpg,stim_02/d.jpg,2,2,j,4,32,272,37,j,1,0.7498210742,02,01,60.0197566562,PLT_learning_02,N,2014_Mrz_06_1454,P19,
stim_fb/ques.jpg,stim_fb/negf.jpg,stim_fb/posf.jpg,stim_02/d.jpg,stim_02/c.jpg,1,2,f,4,33,273,23,f,1,0.716406777367,02,01,60.0197566562,PLT_learning_02,N,2014_Mrz_06_1454,P19,
stim_fb/ques.jpg,stim_fb/negf.jpg,stim_fb/posf.jpg,stim_02/b.jpg,stim_02/a.jpg,1,1,f,4,34,274,6,f,1,0.799787403901,02,01,60.0197566562,PLT_learning_02,N,2014_Mrz_06_1454,P19,
stim_fb/ques.jpg,stim_fb/negf.jpg,stim_fb/posf.jpg,stim_02/d.jpg,stim_02/c.jpg,1,2,f,4,35,275,25,f,1,0.633137400706,02,01,60.0197566562,PLT_learning_02,N,2014_Mrz_06_1454,P19,
stim_fb/ques.jpg,stim_fb/posf.jpg,stim_fb/negf.jpg,stim_02/f.jpg,stim_02/e.jpg,1,3,f,4,36,276,49,f,1,0.84976268388,02,01,60.0197566562,PLT_learning_02,N,2014_Mrz_06_1454,P19,
stim_fb/ques.jpg,stim_fb/negf.jpg,stim_fb/posf.jpg,stim_02/b.jpg,stim_02/a.jpg,1,1,f,4,37,277,2,f,1,0.716490731307,02,01,60.0197566562,PLT_learning_02,N,2014_Mrz_06_1454,P19,
stim_fb/ques.jpg,stim_fb/negf.jpg,stim_fb/posf.jpg,stim_02/f.jpg,stim_02/e.jpg,1,3,f,4,38,278,40,f,1,0.699821442615,02,01,60.0197566562,PLT_learning_02,N,2014_Mrz_06_1454,P19,
stim_fb/ques.jpg,stim_fb/posf.jpg,stim_fb/negf.jpg,stim_02/f.jpg,stim_02/e.jpg,1,3,f,4,39,279,46,f,1,0.766449515231,02,01,60.0197566562,PLT_learning_02,N,2014_Mrz_06_1454,P19,
stim_fb/ques.jpg,stim_fb/negf.jpg,stim_fb/posf.jpg,stim_02/b.jpg,stim_02/a.jpg,1,1,f,4,40,280,4,f,1,0.733129091024,02,01,60.0197566562,PLT_learning_02,N,2014_Mrz_06_1454,P19,
stim_fb/ques.jpg,stim_fb/negf.jpg,stim_fb/posf.jpg,stim_02/f.jpg,stim_02/e.jpg,1,3,f,4,41,281,43,f,1,0.716437152963,02,01,60.0197566562,PLT_learning_02,N,2014_Mrz_06_1454,P19,
stim_fb/ques.jpg,stim_fb/negf.jpg,stim_fb/posf.jpg,stim_02/a.jpg,stim_02/b.jpg,2,1,j,4,42,282,15,j,1,1.23296834096,02,01,60.0197566562,PLT_learning_02,N,2014_Mrz_06_1454,P19,
stim_fb/ques.jpg,stim_fb/negf.jpg,stim_fb/posf.jpg,stim_02/e.jpg,stim_02/f.jpg,2,3,j,4,43,283,54,j,1,0.949742211929,02,01,60.0197566562,PLT_learning_02,N,2014_Mrz_06_1454,P19,
stim_fb/ques.jpg,stim_fb/posf.jpg,stim_fb/negf.jpg,stim_02/e.jpg,stim_02/f.jpg,2,3,j,4,44,284,58,j,1,0.8830985034,02,01,60.0197566562,PLT_learning_02,N,2014_Mrz_06_1454,P19,
stim_fb/ques.jpg,stim_fb/negf.jpg,stim_fb/posf.jpg,stim_02/a.jpg,stim_02/b.jpg,2,1,j,4,45,285,10,j,1,0.899744850998,02,01,60.0197566562,PLT_learning_02,N,2014_Mrz_06_1454,P19,
stim_fb/ques.jpg,stim_fb/negf.jpg,stim_fb/posf.jpg,stim_02/c.jpg,stim_02/d.jpg,2,2,j,4,46,286,30,j,1,0.849769375533,02,01,60.0197566562,PLT_learning_02,N,2014_Mrz_06_1454,P19,
stim_fb/ques.jpg,stim_fb/negf.jpg,stim_fb/posf.jpg,stim_02/a.jpg,stim_02/b.jpg,2,1,j,4,47,287,11,j,1,0.666520921945,02,01,60.0197566562,PLT_learning_02,N,2014_Mrz_06_1454,P19,
stim_fb/ques.jpg,stim_fb/negf.jpg,stim_fb/posf.jpg,stim_02/f.jpg,stim_02/e.jpg,1,3,f,4,48,288,41,f,1,0.833058162501,02,01,60.0197566562,PLT_learning_02,N,2014_Mrz_06_1454,P19,
stim_fb/ques.jpg,stim_fb/negf.jpg,stim_fb/posf.jpg,stim_02/b.jpg,stim_02/a.jpg,1,1,f,4,49,289,3,j,0,1.24963737702,02,01,60.0197566562,PLT_learning_02,N,2014_Mrz_06_1454,P19,
stim_fb/ques.jpg,stim_fb/posf.jpg,stim_fb/negf.jpg,stim_02/d.jpg,stim_02/c.jpg,1,2,f,4,50,290,29,f,1,0.833159809476,02,01,60.0197566562,PLT_learning_02,N,2014_Mrz_06_1454,P19,
stim_fb/ques.jpg,stim_fb/negf.jpg,stim_fb/posf.jpg,stim_02/a.jpg,stim_02/b.jpg,2,1,j,4,51,291,12,j,1,1.01645905347,02,01,60.0197566562,PLT_learning_02,N,2014_Mrz_06_1454,P19,
stim_fb/ques.jpg,stim_fb/posf.jpg,stim_fb/negf.jpg,stim_02/e.jpg,stim_02/f.jpg,2,3,j,4,52,292,59,j,1,0.816446746841,02,01,60.0197566562,PLT_learning_02,N,2014_Mrz_06_1454,P19,
stim_fb/ques.jpg,stim_fb/posf.jpg,stim_fb/negf.jpg,stim_02/f.jpg,stim_02/e.jpg,1,3,f,4,53,293,47,f,1,0.833098273328,02,01,60.0197566562,PLT_learning_02,N,2014_Mrz_06_1454,P19,
stim_fb/ques.jpg,stim_fb/negf.jpg,stim_fb/posf.jpg,stim_02/a.jpg,stim_02/b.jpg,2,1,j,4,54,294,16,j,1,0.699800883449,02,01,60.0197566562,PLT_learning_02,N,2014_Mrz_06_1454,P19,
stim_fb/ques.jpg,stim_fb/negf.jpg,stim_fb/posf.jpg,stim_02/e.jpg,stim_02/f.jpg,2,3,j,4,55,295,53,j,1,0.749749102079,02,01,60.0197566562,PLT_learning_02,N,2014_Mrz_06_1454,P19,
stim_fb/ques.jpg,stim_fb/negf.jpg,stim_fb/posf.jpg,stim_02/e.jpg,stim_02/f.jpg,2,3,j,4,56,296,51,j,1,0.799773641649,02,01,60.0197566562,PLT_learning_02,N,2014_Mrz_06_1454,P19,
stim_fb/ques.jpg,stim_fb/negf.jpg,stim_fb/posf.jpg,stim_02/d.jpg,stim_02/c.jpg,1,2,f,4,57,297,20,f,1,0.849770936418,02,01,60.0197566562,PLT_learning_02,N,2014_Mrz_06_1454,P19,
stim_fb/ques.jpg,stim_fb/posf.jpg,stim_fb/negf.jpg,stim_02/c.jpg,stim_02/d.jpg,2,2,j,4,58,298,39,j,1,0.683140232251,02,01,60.0197566562,PLT_learning_02,N,2014_Mrz_06_1454,P19,
stim_fb/ques.jpg,stim_fb/negf.jpg,stim_fb/posf.jpg,stim_02/f.jpg,stim_02/e.jpg,1,3,f,4,59,299,45,f,1,0.899772098812,02,01,60.0197566562,PLT_learning_02,N,2014_Mrz_06_1454,P19,
stim_fb/ques.jpg,stim_fb/negf.jpg,stim_fb/posf.jpg,stim_02/d.jpg,stim_02/c.jpg,1,2,f,5,0,300,26,f,1,0.799794381266,02,01,60.0197566562,PLT_learning_02,N,2014_Mrz_06_1454,P19,
stim_fb/ques.jpg,stim_fb/posf.jpg,stim_fb/negf.jpg,stim_02/c.jpg,stim_02/d.jpg,2,2,j,5,1,301,37,j,1,0.666452775344,02,01,60.0197566562,PLT_learning_02,N,2014_Mrz_06_1454,P19,
stim_fb/ques.jpg,stim_fb/negf.jpg,stim_fb/posf.jpg,stim_02/b.jpg,stim_02/a.jpg,1,1,f,5,2,302,5,f,1,0.749795678996,02,01,60.0197566562,PLT_learning_02,N,2014_Mrz_06_1454,P19,
stim_fb/ques.jpg,stim_fb/posf.jpg,stim_fb/negf.jpg,stim_02/f.jpg,stim_02/e.jpg,1,3,f,5,3,303,47,f,1,0.866418823849,02,01,60.0197566562,PLT_learning_02,N,2014_Mrz_06_1454,P19,
stim_fb/ques.jpg,stim_fb/negf.jpg,stim_fb/posf.jpg,stim_02/a.jpg,stim_02/b.jpg,2,1,j,5,4,304,11,j,1,0.583482360726,02,01,60.0197566562,PLT_learning_02,N,2014_Mrz_06_1454,P19,
stim_fb/ques.jpg,stim_fb/negf.jpg,stim_fb/posf.jpg,stim_02/b.jpg,stim_02/a.jpg,1,1,f,5,5,305,0,f,1,0.583182782149,02,01,60.0197566562,PLT_learning_02,N,2014_Mrz_06_1454,P19,
stim_fb/ques.jpg,stim_fb/posf.jpg,stim_fb/negf.jpg,stim_02/e.jpg,stim_02/f.jpg,2,3,j,5,6,306,59,j,1,0.783176334102,02,01,60.0197566562,PLT_learning_02,N,2014_Mrz_06_1454,P19,
stim_fb/ques.jpg,stim_fb/posf.jpg,stim_fb/negf.jpg,stim_02/e.jpg,stim_02/f.jpg,2,3,j,5,7,307,57,j,1,0.79982318395,02,01,60.0197566562,PLT_learning_02,N,2014_Mrz_06_1454,P19,
stim_fb/ques.jpg,stim_fb/negf.jpg,stim_fb/posf.jpg,stim_02/c.jpg,stim_02/d.jpg,2,2,j,5,8,308,32,j,1,0.916413790823,02,01,60.0197566562,PLT_learning_02,N,2014_Mrz_06_1454,P19,
stim_fb/ques.jpg,stim_fb/posf.jpg,stim_fb/negf.jpg,stim_02/a.jpg,stim_02/b.jpg,2,1,j,5,9,309,18,j,1,0.666496838006,02,01,60.0197566562,PLT_learning_02,N,2014_Mrz_06_1454,P19,
stim_fb/ques.jpg,stim_fb/negf.jpg,stim_fb/posf.jpg,stim_02/c.jpg,stim_02/d.jpg,2,2,j,5,10,310,30,j,1,0.733142242758,02,01,60.0197566562,PLT_learning_02,N,2014_Mrz_06_1454,P19,
stim_fb/ques.jpg,stim_fb/negf.jpg,stim_fb/posf.jpg,stim_02/e.jpg,stim_02/f.jpg,2,3,j,5,11,311,52,j,1,0.766473602178,02,01,60.0197566562,PLT_learning_02,N,2014_Mrz_06_1454,P19,
stim_fb/ques.jpg,stim_fb/negf.jpg,stim_fb/posf.jpg,stim_02/c.jpg,stim_02/d.jpg,2,2,j,5,12,312,35,j,1,0.549868039083,02,01,60.0197566562,PLT_learning_02,N,2014_Mrz_06_1454,P19,
stim_fb/ques.jpg,stim_fb/negf.jpg,stim_fb/posf.jpg,stim_02/b.jpg,stim_02/a.jpg,1,1,f,5,13,313,3,f,1,1.0830067691,02,01,60.0197566562,PLT_learning_02,N,2014_Mrz_06_1454,P19,
stim_fb/ques.jpg,stim_fb/negf.jpg,stim_fb/posf.jpg,stim_02/c.jpg,stim_02/d.jpg,2,2,j,5,14,314,36,j,1,0.866431849265,02,01,60.0197566562,PLT_learning_02,N,2014_Mrz_06_1454,P19,
stim_fb/ques.jpg,stim_fb/negf.jpg,stim_fb/posf.jpg,stim_02/f.jpg,stim_02/e.jpg,1,3,f,5,15,315,42,f,1,0.866420474957,02,01,60.0197566562,PLT_learning_02,N,2014_Mrz_06_1454,P19,
stim_fb/ques.jpg,stim_fb/negf.jpg,stim_fb/posf.jpg,stim_02/a.jpg,stim_02/b.jpg,2,1,j,5,16,316,10,j,1,0.783139209709,02,01,60.0197566562,PLT_learning_02,N,2014_Mrz_06_1454,P19,
stim_fb/ques.jpg,stim_fb/negf.jpg,stim_fb/posf.jpg,stim_02/c.jpg,stim_02/d.jpg,2,2,j,5,17,317,31,j,1,0.666492702714,02,01,60.0197566562,PLT_learning_02,N,2014_Mrz_06_1454,P19,
stim_fb/ques.jpg,stim_fb/negf.jpg,stim_fb/posf.jpg,stim_02/e.jpg,stim_02/f.jpg,2,3,j,5,18,318,55,j,1,0.983068212014,02,01,60.0197566562,PLT_learning_02,N,2014_Mrz_06_1454,P19,
stim_fb/ques.jpg,stim_fb/negf.jpg,stim_fb/posf.jpg,stim_02/a.jpg,stim_02/b.jpg,2,1,j,5,19,319,13,j,1,0.683148208102,02,01,60.0197566562,PLT_learning_02,N,2014_Mrz_06_1454,P19,
stim_fb/ques.jpg,stim_fb/negf.jpg,stim_fb/posf.jpg,stim_02/a.jpg,stim_02/b.jpg,2,1,j,5,20,320,17,j,1,0.749810695368,02,01,60.0197566562,PLT_learning_02,N,2014_Mrz_06_1454,P19,
stim_fb/ques.jpg,stim_fb/posf.jpg,stim_fb/negf.jpg,stim_02/c.jpg,stim_02/d.jpg,2,2,j,5,21,321,39,j,1,0.749761712461,02,01,60.0197566562,PLT_learning_02,N,2014_Mrz_06_1454,P19,
stim_fb/ques.jpg,stim_fb/negf.jpg,stim_fb/posf.jpg,stim_02/e.jpg,stim_02/f.jpg,2,3,j,5,22,322,51,j,1,0.716489901242,02,01,60.0197566562,PLT_learning_02,N,2014_Mrz_06_1454,P19,
stim_fb/ques.jpg,stim_fb/negf.jpg,stim_fb/posf.jpg,stim_02/e.jpg,stim_02/f.jpg,2,3,j,5,23,323,54,j,1,0.666515628771,02,01,60.0197566562,PLT_learning_02,N,2014_Mrz_06_1454,P19,
stim_fb/ques.jpg,stim_fb/posf.jpg,stim_fb/negf.jpg,stim_02/f.jpg,stim_02/e.jpg,1,3,f,5,24,324,46,f,1,0.799781662612,02,01,60.0197566562,PLT_learning_02,N,2014_Mrz_06_1454,P19,
stim_fb/ques.jpg,stim_fb/negf.jpg,stim_fb/posf.jpg,stim_02/c.jpg,stim_02/d.jpg,2,2,j,5,25,325,34,j,1,0.633121030965,02,01,60.0197566562,PLT_learning_02,N,2014_Mrz_06_1454,P19,
stim_fb/ques.jpg,stim_fb/negf.jpg,stim_fb/posf.jpg,stim_02/a.jpg,stim_02/b.jpg,2,1,j,5,26,326,12,j,1,0.999721191114,02,01,60.0197566562,PLT_learning_02,N,2014_Mrz_06_1454,P19,
stim_fb/ques.jpg,stim_fb/negf.jpg,stim_fb/posf.jpg,stim_02/a.jpg,stim_02/b.jpg,2,1,j,5,27,327,15,j,1,0.63317041086,02,01,60.0197566562,PLT_learning_02,N,2014_Mrz_06_1454,P19,
stim_fb/ques.jpg,stim_fb/negf.jpg,stim_fb/posf.jpg,stim_02/c.jpg,stim_02/d.jpg,2,2,j,5,28,328,33,j,1,0.5665276948,02,01,60.0197566562,PLT_learning_02,N,2014_Mrz_06_1454,P19,
stim_fb/ques.jpg,stim_fb/negf.jpg,stim_fb/posf.jpg,stim_02/a.jpg,stim_02/b.jpg,2,1,j,5,29,329,14,j,1,0.633118092654,02,01,60.0197566562,PLT_learning_02,N,2014_Mrz_06_1454,P19,
stim_fb/ques.jpg,stim_fb/negf.jpg,stim_fb/posf.jpg,stim_02/b.jpg,stim_02/a.jpg,1,1,f,5,30,330,6,f,1,0.899742920194,02,01,60.0197566562,PLT_learning_02,N,2014_Mrz_06_1454,P19,
stim_fb/ques.jpg,stim_fb/negf.jpg,stim_fb/posf.jpg,stim_02/f.jpg,stim_02/e.jpg,1,3,f,5,31,331,40,f,1,0.899744640474,02,01,60.0197566562,PLT_learning_02,N,2014_Mrz_06_1454,P19,
stim_fb/ques.jpg,stim_fb/posf.jpg,stim_fb/negf.jpg,stim_02/e.jpg,stim_02/f.jpg,2,3,j,5,32,332,56,j,1,0.783125354226,02,01,60.0197566562,PLT_learning_02,N,2014_Mrz_06_1454,P19,
stim_fb/ques.jpg,stim_fb/negf.jpg,stim_fb/posf.jpg,stim_02/d.jpg,stim_02/c.jpg,1,2,f,5,33,333,24,f,1,0.916411081078,02,01,60.0197566562,PLT_learning_02,N,2014_Mrz_06_1454,P19,
stim_fb/ques.jpg,stim_fb/negf.jpg,stim_fb/posf.jpg,stim_02/f.jpg,stim_02/e.jpg,1,3,f,5,34,334,45,f,1,0.916419402789,02,01,60.0197566562,PLT_learning_02,N,2014_Mrz_06_1454,P19,
stim_fb/ques.jpg,stim_fb/posf.jpg,stim_fb/negf.jpg,stim_02/a.jpg,stim_02/b.jpg,2,1,j,5,35,335,19,j,1,0.816462674482,02,01,60.0197566562,PLT_learning_02,N,2014_Mrz_06_1454,P19,
stim_fb/ques.jpg,stim_fb/negf.jpg,stim_fb/posf.jpg,stim_02/b.jpg,stim_02/a.jpg,1,1,f,5,36,336,2,f,1,0.699832913162,02,01,60.0197566562,PLT_learning_02,N,2014_Mrz_06_1454,P19,
stim_fb/ques.jpg,stim_fb/negf.jpg,stim_fb/posf.jpg,stim_02/d.jpg,stim_02/c.jpg,1,2,f,5,37,337,22,f,1,0.766493607967,02,01,60.0197566562,PLT_learning_02,N,2014_Mrz_06_1454,P19,
stim_fb/ques.jpg,stim_fb/posf.jpg,stim_fb/negf.jpg,stim_02/f.jpg,stim_02/e.jpg,1,3,f,5,38,338,48,f,1,0.866442080727,02,01,60.0197566562,PLT_learning_02,N,2014_Mrz_06_1454,P19,
stim_fb/ques.jpg,stim_fb/negf.jpg,stim_fb/posf.jpg,stim_02/b.jpg,stim_02/a.jpg,1,1,f,5,39,339,4,f,1,0.916407399916,02,01,60.0197566562,PLT_learning_02,N,2014_Mrz_06_1454,P19,
stim_fb/ques.jpg,stim_fb/negf.jpg,stim_fb/posf.jpg,stim_02/f.jpg,stim_02/e.jpg,1,3,f,5,40,340,44,f,1,0.916411502125,02,01,60.0197566562,PLT_learning_02,N,2014_Mrz_06_1454,P19,
stim_fb/ques.jpg,stim_fb/posf.jpg,stim_fb/negf.jpg,stim_02/c.jpg,stim_02/d.jpg,2,2,j,5,41,341,38,j,1,0.799848633287,02,01,60.0197566562,PLT_learning_02,N,2014_Mrz_06_1454,P19,
stim_fb/ques.jpg,stim_fb/negf.jpg,stim_fb/posf.jpg,stim_02/d.jpg,stim_02/c.jpg,1,2,f,5,42,342,21,f,1,0.549862282756,02,01,60.0197566562,PLT_learning_02,N,2014_Mrz_06_1454,P19,
stim_fb/ques.jpg,stim_fb/negf.jpg,stim_fb/posf.jpg,stim_02/a.jpg,stim_02/b.jpg,2,1,j,5,43,343,16,j,1,0.866457581305,02,01,60.0197566562,PLT_learning_02,N,2014_Mrz_06_1454,P19,
stim_fb/ques.jpg,stim_fb/negf.jpg,stim_fb/posf.jpg,stim_02/e.jpg,stim_02/f.jpg,2,3,j,5,44,344,50,j,1,0.783111330322,02,01,60.0197566562,PLT_learning_02,N,2014_Mrz_06_1454,P19,
stim_fb/ques.jpg,stim_fb/negf.jpg,stim_fb/posf.jpg,stim_02/f.jpg,stim_02/e.jpg,1,3,f,5,45,345,43,f,1,1.13299810904,02,01,60.0197566562,PLT_learning_02,N,2014_Mrz_06_1454,P19,
stim_fb/ques.jpg,stim_fb/negf.jpg,stim_fb/posf.jpg,stim_02/e.jpg,stim_02/f.jpg,2,3,j,5,46,346,53,j,1,0.683141432241,02,01,60.0197566562,PLT_learning_02,N,2014_Mrz_06_1454,P19,
stim_fb/ques.jpg,stim_fb/posf.jpg,stim_fb/negf.jpg,stim_02/d.jpg,stim_02/c.jpg,1,2,f,5,47,347,27,f,1,0.749677674312,02,01,60.0197566562,PLT_learning_02,N,2014_Mrz_06_1454,P19,
stim_fb/ques.jpg,stim_fb/negf.jpg,stim_fb/posf.jpg,stim_02/b.jpg,stim_02/a.jpg,1,1,f,5,48,348,7,j,0,0.966402992448,02,01,60.0197566562,PLT_learning_02,N,2014_Mrz_06_1454,P19,
stim_fb/ques.jpg,stim_fb/negf.jpg,stim_fb/posf.jpg,stim_02/f.jpg,stim_02/e.jpg,1,3,f,5,49,349,41,f,1,0.849736208991,02,01,60.0197566562,PLT_learning_02,N,2014_Mrz_06_1454,P19,
stim_fb/ques.jpg,stim_fb/posf.jpg,stim_fb/negf.jpg,stim_02/b.jpg,stim_02/a.jpg,1,1,f,5,50,350,9,f,1,0.683163645524,02,01,60.0197566562,PLT_learning_02,N,2014_Mrz_06_1454,P19,
stim_fb/ques.jpg,stim_fb/posf.jpg,stim_fb/negf.jpg,stim_02/d.jpg,stim_02/c.jpg,1,2,f,5,51,351,29,j,0,0.833111638591,02,01,60.0197566562,PLT_learning_02,N,2014_Mrz_06_1454,P19,
stim_fb/ques.jpg,stim_fb/posf.jpg,stim_fb/negf.jpg,stim_02/d.jpg,stim_02/c.jpg,1,2,f,5,52,352,28,j,0,0.733115560352,02,01,60.0197566562,PLT_learning_02,N,2014_Mrz_06_1454,P19,
stim_fb/ques.jpg,stim_fb/negf.jpg,stim_fb/posf.jpg,stim_02/d.jpg,stim_02/c.jpg,1,2,f,5,53,353,20,j,0,0.649843696499,02,01,60.0197566562,PLT_learning_02,N,2014_Mrz_06_1454,P19,
stim_fb/ques.jpg,stim_fb/posf.jpg,stim_fb/negf.jpg,stim_02/e.jpg,stim_02/f.jpg,2,3,j,5,54,354,58,j,1,0.799758237314,02,01,60.0197566562,PLT_learning_02,N,2014_Mrz_06_1454,P19,
stim_fb/ques.jpg,stim_fb/negf.jpg,stim_fb/posf.jpg,stim_02/d.jpg,stim_02/c.jpg,1,2,f,5,55,355,25,f,1,0.716494394424,02,01,60.0197566562,PLT_learning_02,N,2014_Mrz_06_1454,P19,
stim_fb/ques.jpg,stim_fb/negf.jpg,stim_fb/posf.jpg,stim_02/d.jpg,stim_02/c.jpg,1,2,f,5,56,356,23,j,0,0.766462573731,02,01,60.0197566562,PLT_learning_02,N,2014_Mrz_06_1454,P19,
stim_fb/ques.jpg,stim_fb/posf.jpg,stim_fb/negf.jpg,stim_02/b.jpg,stim_02/a.jpg,1,1,f,5,57,357,8,f,1,0.616523894843,02,01,60.0197566562,PLT_learning_02,N,2014_Mrz_06_1454,P19,
stim_fb/ques.jpg,stim_fb/posf.jpg,stim_fb/negf.jpg,stim_02/f.jpg,stim_02/e.jpg,1,3,f,5,58,358,49,f,1,0.966446032564,02,01,60.0197566562,PLT_learning_02,N,2014_Mrz_06_1454,P19,
stim_fb/ques.jpg,stim_fb/negf.jpg,stim_fb/posf.jpg,stim_02/b.jpg,stim_02/a.jpg,1,1,f,5,59,359,1,f,1,1.21629870641,02,01,60.0197566562,PLT_learning_02,N,2014_Mrz_06_1454,P19,
