Fb3,Fb2,Fb1,Symbol2,Symbol1,PosCond,Pair,Correct,trials.thisRepN,trials.thisTrialN,trials.thisN,trials.thisIndex,Response.keys,Response.corr,Response.rt,Version,Session Number,frameRate,expName,StimCondition,date,Participant,
stim_fb/ques.jpg,stim_fb/negf.jpg,stim_fb/posf.jpg,stim_03/e.jpg,stim_03/f.jpg,2,3,j,0,0,0,55,f,0,0.749839998196,03,01,60.01917025,PLT_learning_3,N,2014_Mrz_05_1816,P21,
stim_fb/ques.jpg,stim_fb/posf.jpg,stim_fb/negf.jpg,stim_03/b.jpg,stim_03/a.jpg,1,1,f,0,1,1,9,f,1,0.8830886655,03,01,60.01917025,PLT_learning_3,N,2014_Mrz_05_1816,P21,
stim_fb/ques.jpg,stim_fb/negf.jpg,stim_fb/posf.jpg,stim_03/c.jpg,stim_03/d.jpg,2,2,j,0,2,2,31,j,1,0.966398676701,03,01,60.01917025,PLT_learning_3,N,2014_Mrz_05_1816,P21,
stim_fb/ques.jpg,stim_fb/negf.jpg,stim_fb/posf.jpg,stim_03/f.jpg,stim_03/e.jpg,1,3,f,0,3,3,40,j,0,1.16635523342,03,01,60.01917025,PLT_learning_3,N,2014_Mrz_05_1816,P21,
stim_fb/ques.jpg,stim_fb/negf.jpg,stim_fb/posf.jpg,stim_03/a.jpg,stim_03/b.jpg,2,1,j,0,4,4,10,j,1,1.11633787114,03,01,60.01917025,PLT_learning_3,N,2014_Mrz_05_1816,P21,
stim_fb/ques.jpg,stim_fb/negf.jpg,stim_fb/posf.jpg,stim_03/f.jpg,stim_03/e.jpg,1,3,f,0,5,5,44,None,0,,03,01,60.01917025,PLT_learning_3,N,2014_Mrz_05_1816,P21,
stim_fb/ques.jpg,stim_fb/posf.jpg,stim_fb/negf.jpg,stim_03/d.jpg,stim_03/c.jpg,1,2,f,0,6,6,28,None,0,,03,01,60.01917025,PLT_learning_3,N,2014_Mrz_05_1816,P21,
stim_fb/ques.jpg,stim_fb/posf.jpg,stim_fb/negf.jpg,stim_03/f.jpg,stim_03/e.jpg,1,3,f,0,7,7,47,f,1,1.46625165525,03,01,60.01917025,PLT_learning_3,N,2014_Mrz_05_1816,P21,
stim_fb/ques.jpg,stim_fb/negf.jpg,stim_fb/posf.jpg,stim_03/a.jpg,stim_03/b.jpg,2,1,j,0,8,8,11,j,1,1.21631750438,03,01,60.01917025,PLT_learning_3,N,2014_Mrz_05_1816,P21,
stim_fb/ques.jpg,stim_fb/negf.jpg,stim_fb/posf.jpg,stim_03/f.jpg,stim_03/e.jpg,1,3,f,0,9,9,42,j,0,1.33296199878,03,01,60.01917025,PLT_learning_3,N,2014_Mrz_05_1816,P21,
stim_fb/ques.jpg,stim_fb/negf.jpg,stim_fb/posf.jpg,stim_03/b.jpg,stim_03/a.jpg,1,1,f,0,10,10,6,f,1,1.24968836926,03,01,60.01917025,PLT_learning_3,N,2014_Mrz_05_1816,P21,
stim_fb/ques.jpg,stim_fb/negf.jpg,stim_fb/posf.jpg,stim_03/c.jpg,stim_03/d.jpg,2,2,j,0,11,11,34,None,0,,03,01,60.01917025,PLT_learning_3,N,2014_Mrz_05_1816,P21,
stim_fb/ques.jpg,stim_fb/negf.jpg,stim_fb/posf.jpg,stim_03/d.jpg,stim_03/c.jpg,1,2,f,0,12,12,21,f,1,1.31627939038,03,01,60.01917025,PLT_learning_3,N,2014_Mrz_05_1816,P21,
stim_fb/ques.jpg,stim_fb/negf.jpg,stim_fb/posf.jpg,stim_03/f.jpg,stim_03/e.jpg,1,3,f,0,13,13,43,j,0,1.14967010774,03,01,60.01917025,PLT_learning_3,N,2014_Mrz_05_1816,P21,
stim_fb/ques.jpg,stim_fb/negf.jpg,stim_fb/posf.jpg,stim_03/b.jpg,stim_03/a.jpg,1,1,f,0,14,14,0,None,0,,03,01,60.01917025,PLT_learning_3,N,2014_Mrz_05_1816,P21,
stim_fb/ques.jpg,stim_fb/negf.jpg,stim_fb/posf.jpg,stim_03/b.jpg,stim_03/a.jpg,1,1,f,0,15,15,4,f,1,0.849789794062,03,01,60.01917025,PLT_learning_3,N,2014_Mrz_05_1816,P21,
stim_fb/ques.jpg,stim_fb/negf.jpg,stim_fb/posf.jpg,stim_03/a.jpg,stim_03/b.jpg,2,1,j,0,16,16,17,j,1,1.21630456012,03,01,60.01917025,PLT_learning_3,N,2014_Mrz_05_1816,P21,
stim_fb/ques.jpg,stim_fb/negf.jpg,stim_fb/posf.jpg,stim_03/a.jpg,stim_03/b.jpg,2,1,j,0,17,17,15,j,1,1.14966668521,03,01,60.01917025,PLT_learning_3,N,2014_Mrz_05_1816,P21,
stim_fb/ques.jpg,stim_fb/negf.jpg,stim_fb/posf.jpg,stim_03/c.jpg,stim_03/d.jpg,2,2,j,0,18,18,36,j,1,1.13299084368,03,01,60.01917025,PLT_learning_3,N,2014_Mrz_05_1816,P21,
stim_fb/ques.jpg,stim_fb/negf.jpg,stim_fb/posf.jpg,stim_03/f.jpg,stim_03/e.jpg,1,3,f,0,19,19,41,f,1,1.23300799242,03,01,60.01917025,PLT_learning_3,N,2014_Mrz_05_1816,P21,
stim_fb/ques.jpg,stim_fb/negf.jpg,stim_fb/posf.jpg,stim_03/b.jpg,stim_03/a.jpg,1,1,f,0,20,20,5,f,1,1.26632700205,03,01,60.01917025,PLT_learning_3,N,2014_Mrz_05_1816,P21,
stim_fb/ques.jpg,stim_fb/negf.jpg,stim_fb/posf.jpg,stim_03/c.jpg,stim_03/d.jpg,2,2,j,0,21,21,32,j,1,0.916421031421,03,01,60.01917025,PLT_learning_3,N,2014_Mrz_05_1816,P21,
stim_fb/ques.jpg,stim_fb/negf.jpg,stim_fb/posf.jpg,stim_03/a.jpg,stim_03/b.jpg,2,1,j,0,22,22,14,j,1,0.916423067496,03,01,60.01917025,PLT_learning_3,N,2014_Mrz_05_1816,P21,
stim_fb/ques.jpg,stim_fb/negf.jpg,stim_fb/posf.jpg,stim_03/d.jpg,stim_03/c.jpg,1,2,f,0,23,23,23,f,1,0.799784645229,03,01,60.01917025,PLT_learning_3,N,2014_Mrz_05_1816,P21,
stim_fb/ques.jpg,stim_fb/posf.jpg,stim_fb/negf.jpg,stim_03/a.jpg,stim_03/b.jpg,2,1,j,0,24,24,19,j,1,0.866421768256,03,01,60.01917025,PLT_learning_3,N,2014_Mrz_05_1816,P21,
stim_fb/ques.jpg,stim_fb/negf.jpg,stim_fb/posf.jpg,stim_03/b.jpg,stim_03/a.jpg,1,1,f,0,25,25,2,f,1,0.816435268907,03,01,60.01917025,PLT_learning_3,N,2014_Mrz_05_1816,P21,
stim_fb/ques.jpg,stim_fb/posf.jpg,stim_fb/negf.jpg,stim_03/d.jpg,stim_03/c.jpg,1,2,f,0,26,26,27,f,1,0.833090382779,03,01,60.01917025,PLT_learning_3,N,2014_Mrz_05_1816,P21,
stim_fb/ques.jpg,stim_fb/negf.jpg,stim_fb/posf.jpg,stim_03/b.jpg,stim_03/a.jpg,1,1,f,0,27,27,7,f,1,0.66647730769,03,01,60.01917025,PLT_learning_3,N,2014_Mrz_05_1816,P21,
stim_fb/ques.jpg,stim_fb/posf.jpg,stim_fb/negf.jpg,stim_03/d.jpg,stim_03/c.jpg,1,2,f,0,28,28,29,f,1,1.26628685799,03,01,60.01917025,PLT_learning_3,N,2014_Mrz_05_1816,P21,
stim_fb/ques.jpg,stim_fb/negf.jpg,stim_fb/posf.jpg,stim_03/d.jpg,stim_03/c.jpg,1,2,f,0,29,29,20,f,1,1.34960872775,03,01,60.01917025,PLT_learning_3,N,2014_Mrz_05_1816,P21,
stim_fb/ques.jpg,stim_fb/posf.jpg,stim_fb/negf.jpg,stim_03/c.jpg,stim_03/d.jpg,2,2,j,0,30,30,38,j,1,1.1829828678,03,01,60.01917025,PLT_learning_3,N,2014_Mrz_05_1816,P21,
stim_fb/ques.jpg,stim_fb/posf.jpg,stim_fb/negf.jpg,stim_03/b.jpg,stim_03/a.jpg,1,1,f,0,31,31,8,f,1,0.899727427613,03,01,60.01917025,PLT_learning_3,N,2014_Mrz_05_1816,P21,
stim_fb/ques.jpg,stim_fb/negf.jpg,stim_fb/posf.jpg,stim_03/b.jpg,stim_03/a.jpg,1,1,f,0,32,32,1,j,0,1.49958199412,03,01,60.01917025,PLT_learning_3,N,2014_Mrz_05_1816,P21,
stim_fb/ques.jpg,stim_fb/posf.jpg,stim_fb/negf.jpg,stim_03/e.jpg,stim_03/f.jpg,2,3,j,0,33,33,59,j,1,1.44956653559,03,01,60.01917025,PLT_learning_3,N,2014_Mrz_05_1816,P21,
stim_fb/ques.jpg,stim_fb/posf.jpg,stim_fb/negf.jpg,stim_03/c.jpg,stim_03/d.jpg,2,2,j,0,34,34,37,j,1,1.18296185442,03,01,60.01917025,PLT_learning_3,N,2014_Mrz_05_1816,P21,
stim_fb/ques.jpg,stim_fb/negf.jpg,stim_fb/posf.jpg,stim_03/a.jpg,stim_03/b.jpg,2,1,j,0,35,35,12,j,1,1.08303405839,03,01,60.01917025,PLT_learning_3,N,2014_Mrz_05_1816,P21,
stim_fb/ques.jpg,stim_fb/negf.jpg,stim_fb/posf.jpg,stim_03/d.jpg,stim_03/c.jpg,1,2,f,0,36,36,22,f,1,0.966413290125,03,01,60.01917025,PLT_learning_3,N,2014_Mrz_05_1816,P21,
stim_fb/ques.jpg,stim_fb/negf.jpg,stim_fb/posf.jpg,stim_03/c.jpg,stim_03/d.jpg,2,2,j,0,37,37,30,j,1,0.949682080585,03,01,60.01917025,PLT_learning_3,N,2014_Mrz_05_1816,P21,
stim_fb/ques.jpg,stim_fb/negf.jpg,stim_fb/posf.jpg,stim_03/e.jpg,stim_03/f.jpg,2,3,j,0,38,38,54,f,0,1.31620880745,03,01,60.01917025,PLT_learning_3,N,2014_Mrz_05_1816,P21,
stim_fb/ques.jpg,stim_fb/posf.jpg,stim_fb/negf.jpg,stim_03/f.jpg,stim_03/e.jpg,1,3,f,0,39,39,49,f,1,1.44955415674,03,01,60.01917025,PLT_learning_3,N,2014_Mrz_05_1816,P21,
stim_fb/ques.jpg,stim_fb/posf.jpg,stim_fb/negf.jpg,stim_03/f.jpg,stim_03/e.jpg,1,3,f,0,40,40,46,None,0,,03,01,60.01917025,PLT_learning_3,N,2014_Mrz_05_1816,P21,
stim_fb/ques.jpg,stim_fb/negf.jpg,stim_fb/posf.jpg,stim_03/e.jpg,stim_03/f.jpg,2,3,j,0,41,41,52,j,1,1.24963856512,03,01,60.01917025,PLT_learning_3,N,2014_Mrz_05_1816,P21,
stim_fb/ques.jpg,stim_fb/posf.jpg,stim_fb/negf.jpg,stim_03/e.jpg,stim_03/f.jpg,2,3,j,0,42,42,57,j,1,1.01638502868,03,01,60.01917025,PLT_learning_3,N,2014_Mrz_05_1816,P21,
stim_fb/ques.jpg,stim_fb/negf.jpg,stim_fb/posf.jpg,stim_03/e.jpg,stim_03/f.jpg,2,3,j,0,43,43,50,j,1,1.21632863813,03,01,60.01917025,PLT_learning_3,N,2014_Mrz_05_1816,P21,
stim_fb/ques.jpg,stim_fb/posf.jpg,stim_fb/negf.jpg,stim_03/f.jpg,stim_03/e.jpg,1,3,f,0,44,44,48,f,1,0.899750756762,03,01,60.01917025,PLT_learning_3,N,2014_Mrz_05_1816,P21,
stim_fb/ques.jpg,stim_fb/negf.jpg,stim_fb/posf.jpg,stim_03/c.jpg,stim_03/d.jpg,2,2,j,0,45,45,33,j,1,0.999713463809,03,01,60.01917025,PLT_learning_3,N,2014_Mrz_05_1816,P21,
stim_fb/ques.jpg,stim_fb/posf.jpg,stim_fb/negf.jpg,stim_03/c.jpg,stim_03/d.jpg,2,2,j,0,46,46,39,j,1,0.933178373094,03,01,60.01917025,PLT_learning_3,N,2014_Mrz_05_1816,P21,
stim_fb/ques.jpg,stim_fb/posf.jpg,stim_fb/negf.jpg,stim_03/e.jpg,stim_03/f.jpg,2,3,j,0,47,47,58,j,1,1.11633166367,03,01,60.01917025,PLT_learning_3,N,2014_Mrz_05_1816,P21,
stim_fb/ques.jpg,stim_fb/posf.jpg,stim_fb/negf.jpg,stim_03/e.jpg,stim_03/f.jpg,2,3,j,0,48,48,56,j,1,1.2496435726,03,01,60.01917025,PLT_learning_3,N,2014_Mrz_05_1816,P21,
stim_fb/ques.jpg,stim_fb/negf.jpg,stim_fb/posf.jpg,stim_03/f.jpg,stim_03/e.jpg,1,3,f,0,49,49,45,f,1,1.1829866813,03,01,60.01917025,PLT_learning_3,N,2014_Mrz_05_1816,P21,
stim_fb/ques.jpg,stim_fb/negf.jpg,stim_fb/posf.jpg,stim_03/d.jpg,stim_03/c.jpg,1,2,f,0,50,50,26,f,1,1.0497118548,03,01,60.01917025,PLT_learning_3,N,2014_Mrz_05_1816,P21,
stim_fb/ques.jpg,stim_fb/negf.jpg,stim_fb/posf.jpg,stim_03/d.jpg,stim_03/c.jpg,1,2,f,0,51,51,24,f,1,1.29962087202,03,01,60.01917025,PLT_learning_3,N,2014_Mrz_05_1816,P21,
stim_fb/ques.jpg,stim_fb/negf.jpg,stim_fb/posf.jpg,stim_03/c.jpg,stim_03/d.jpg,2,2,j,0,52,52,35,j,1,1.18297487387,03,01,60.01917025,PLT_learning_3,N,2014_Mrz_05_1816,P21,
stim_fb/ques.jpg,stim_fb/negf.jpg,stim_fb/posf.jpg,stim_03/a.jpg,stim_03/b.jpg,2,1,j,0,53,53,13,j,1,1.11634752521,03,01,60.01917025,PLT_learning_3,N,2014_Mrz_05_1816,P21,
stim_fb/ques.jpg,stim_fb/negf.jpg,stim_fb/posf.jpg,stim_03/a.jpg,stim_03/b.jpg,2,1,j,0,54,54,16,j,1,0.933063724333,03,01,60.01917025,PLT_learning_3,N,2014_Mrz_05_1816,P21,
stim_fb/ques.jpg,stim_fb/negf.jpg,stim_fb/posf.jpg,stim_03/e.jpg,stim_03/f.jpg,2,3,j,0,55,55,51,j,1,1.39971544876,03,01,60.01917025,PLT_learning_3,N,2014_Mrz_05_1816,P21,
stim_fb/ques.jpg,stim_fb/negf.jpg,stim_fb/posf.jpg,stim_03/d.jpg,stim_03/c.jpg,1,2,f,0,56,56,25,f,1,1.21630485184,03,01,60.01917025,PLT_learning_3,N,2014_Mrz_05_1816,P21,
stim_fb/ques.jpg,stim_fb/posf.jpg,stim_fb/negf.jpg,stim_03/a.jpg,stim_03/b.jpg,2,1,j,0,57,57,18,j,1,0.916426282509,03,01,60.01917025,PLT_learning_3,N,2014_Mrz_05_1816,P21,
stim_fb/ques.jpg,stim_fb/negf.jpg,stim_fb/posf.jpg,stim_03/e.jpg,stim_03/f.jpg,2,3,j,0,58,58,53,j,1,1.01635493868,03,01,60.01917025,PLT_learning_3,N,2014_Mrz_05_1816,P21,
stim_fb/ques.jpg,stim_fb/negf.jpg,stim_fb/posf.jpg,stim_03/b.jpg,stim_03/a.jpg,1,1,f,0,59,59,3,f,1,1.01624849437,03,01,60.01917025,PLT_learning_3,N,2014_Mrz_05_1816,P21,
stim_fb/ques.jpg,stim_fb/negf.jpg,stim_fb/posf.jpg,stim_03/a.jpg,stim_03/b.jpg,2,1,j,1,0,60,10,j,1,0.866437635807,03,01,60.01917025,PLT_learning_3,N,2014_Mrz_05_1816,P21,
stim_fb/ques.jpg,stim_fb/negf.jpg,stim_fb/posf.jpg,stim_03/c.jpg,stim_03/d.jpg,2,2,j,1,1,61,34,j,1,0.949760663454,03,01,60.01917025,PLT_learning_3,N,2014_Mrz_05_1816,P21,
stim_fb/ques.jpg,stim_fb/negf.jpg,stim_fb/posf.jpg,stim_03/a.jpg,stim_03/b.jpg,2,1,j,1,2,62,12,f,0,1.29959215044,03,01,60.01917025,PLT_learning_3,N,2014_Mrz_05_1816,P21,
stim_fb/ques.jpg,stim_fb/negf.jpg,stim_fb/posf.jpg,stim_03/f.jpg,stim_03/e.jpg,1,3,f,1,3,63,42,f,1,1.28300743002,03,01,60.01917025,PLT_learning_3,N,2014_Mrz_05_1816,P21,
stim_fb/ques.jpg,stim_fb/negf.jpg,stim_fb/posf.jpg,stim_03/b.jpg,stim_03/a.jpg,1,1,f,1,4,64,7,f,1,1.21630770596,03,01,60.01917025,PLT_learning_3,N,2014_Mrz_05_1816,P21,
stim_fb/ques.jpg,stim_fb/negf.jpg,stim_fb/posf.jpg,stim_03/f.jpg,stim_03/e.jpg,1,3,f,1,5,65,40,f,1,1.38293946061,03,01,60.01917025,PLT_learning_3,N,2014_Mrz_05_1816,P21,
stim_fb/ques.jpg,stim_fb/negf.jpg,stim_fb/posf.jpg,stim_03/b.jpg,stim_03/a.jpg,1,1,f,1,6,66,3,f,1,1.63283338621,03,01,60.01917025,PLT_learning_3,N,2014_Mrz_05_1816,P21,
stim_fb/ques.jpg,stim_fb/posf.jpg,stim_fb/negf.jpg,stim_03/c.jpg,stim_03/d.jpg,2,2,j,1,7,67,37,j,1,1.04968105202,03,01,60.01917025,PLT_learning_3,N,2014_Mrz_05_1816,P21,
stim_fb/ques.jpg,stim_fb/posf.jpg,stim_fb/negf.jpg,stim_03/f.jpg,stim_03/e.jpg,1,3,f,1,8,68,48,f,1,1.1663136608,03,01,60.01917025,PLT_learning_3,N,2014_Mrz_05_1816,P21,
stim_fb/ques.jpg,stim_fb/negf.jpg,stim_fb/posf.jpg,stim_03/d.jpg,stim_03/c.jpg,1,2,f,1,9,69,26,None,0,,03,01,60.01917025,PLT_learning_3,N,2014_Mrz_05_1816,P21,
stim_fb/ques.jpg,stim_fb/negf.jpg,stim_fb/posf.jpg,stim_03/e.jpg,stim_03/f.jpg,2,3,j,1,10,70,54,j,1,0.866426965211,03,01,60.01917025,PLT_learning_3,N,2014_Mrz_05_1816,P21,
stim_fb/ques.jpg,stim_fb/negf.jpg,stim_fb/posf.jpg,stim_03/b.jpg,stim_03/a.jpg,1,1,f,1,11,71,4,f,1,1.09969067601,03,01,60.01917025,PLT_learning_3,N,2014_Mrz_05_1816,P21,
stim_fb/ques.jpg,stim_fb/negf.jpg,stim_fb/posf.jpg,stim_03/f.jpg,stim_03/e.jpg,1,3,f,1,12,72,43,f,1,1.21631891189,03,01,60.01917025,PLT_learning_3,N,2014_Mrz_05_1816,P21,
stim_fb/ques.jpg,stim_fb/posf.jpg,stim_fb/negf.jpg,stim_03/d.jpg,stim_03/c.jpg,1,2,f,1,13,73,29,j,0,1.18297952948,03,01,60.01917025,PLT_learning_3,N,2014_Mrz_05_1816,P21,
stim_fb/ques.jpg,stim_fb/posf.jpg,stim_fb/negf.jpg,stim_03/f.jpg,stim_03/e.jpg,1,3,f,1,14,74,46,f,1,1.06637721822,03,01,60.01917025,PLT_learning_3,N,2014_Mrz_05_1816,P21,
stim_fb/ques.jpg,stim_fb/posf.jpg,stim_fb/negf.jpg,stim_03/e.jpg,stim_03/f.jpg,2,3,j,1,15,75,59,j,1,0.983176415215,03,01,60.01917025,PLT_learning_3,N,2014_Mrz_05_1816,P21,
stim_fb/ques.jpg,stim_fb/posf.jpg,stim_fb/negf.jpg,stim_03/e.jpg,stim_03/f.jpg,2,3,j,1,16,76,57,f,0,0.749799697747,03,01,60.01917025,PLT_learning_3,N,2014_Mrz_05_1816,P21,
stim_fb/ques.jpg,stim_fb/negf.jpg,stim_fb/posf.jpg,stim_03/c.jpg,stim_03/d.jpg,2,2,j,1,17,77,32,f,0,1.44960629168,03,01,60.01917025,PLT_learning_3,N,2014_Mrz_05_1816,P21,
stim_fb/ques.jpg,stim_fb/posf.jpg,stim_fb/negf.jpg,stim_03/c.jpg,stim_03/d.jpg,2,2,j,1,18,78,39,j,1,0.933078145277,03,01,60.01917025,PLT_learning_3,N,2014_Mrz_05_1816,P21,
stim_fb/ques.jpg,stim_fb/posf.jpg,stim_fb/negf.jpg,stim_03/f.jpg,stim_03/e.jpg,1,3,f,1,19,79,47,f,1,1.44959310983,03,01,60.01917025,PLT_learning_3,N,2014_Mrz_05_1816,P21,
stim_fb/ques.jpg,stim_fb/negf.jpg,stim_fb/posf.jpg,stim_03/e.jpg,stim_03/f.jpg,2,3,j,1,20,80,53,j,1,1.19965201164,03,01,60.01917025,PLT_learning_3,N,2014_Mrz_05_1816,P21,
stim_fb/ques.jpg,stim_fb/posf.jpg,stim_fb/negf.jpg,stim_03/a.jpg,stim_03/b.jpg,2,1,j,1,21,81,18,j,1,1.18298154751,03,01,60.01917025,PLT_learning_3,N,2014_Mrz_05_1816,P21,
stim_fb/ques.jpg,stim_fb/negf.jpg,stim_fb/posf.jpg,stim_03/f.jpg,stim_03/e.jpg,1,3,f,1,22,82,45,f,1,1.1663607642,03,01,60.01917025,PLT_learning_3,N,2014_Mrz_05_1816,P21,
stim_fb/ques.jpg,stim_fb/negf.jpg,stim_fb/posf.jpg,stim_03/b.jpg,stim_03/a.jpg,1,1,f,1,23,83,5,f,1,1.5161904918,03,01,60.01917025,PLT_learning_3,N,2014_Mrz_05_1816,P21,
stim_fb/ques.jpg,stim_fb/negf.jpg,stim_fb/posf.jpg,stim_03/c.jpg,stim_03/d.jpg,2,2,j,1,24,84,36,f,0,1.13297688589,03,01,60.01917025,PLT_learning_3,N,2014_Mrz_05_1816,P21,
stim_fb/ques.jpg,stim_fb/negf.jpg,stim_fb/posf.jpg,stim_03/c.jpg,stim_03/d.jpg,2,2,j,1,25,85,31,j,1,0.633175943038,03,01,60.01917025,PLT_learning_3,N,2014_Mrz_05_1816,P21,
stim_fb/ques.jpg,stim_fb/negf.jpg,stim_fb/posf.jpg,stim_03/d.jpg,stim_03/c.jpg,1,2,f,1,26,86,25,f,1,0.949784924926,03,01,60.01917025,PLT_learning_3,N,2014_Mrz_05_1816,P21,
stim_fb/ques.jpg,stim_fb/posf.jpg,stim_fb/negf.jpg,stim_03/a.jpg,stim_03/b.jpg,2,1,j,1,27,87,19,j,1,1.34960119398,03,01,60.01917025,PLT_learning_3,N,2014_Mrz_05_1816,P21,
stim_fb/ques.jpg,stim_fb/negf.jpg,stim_fb/posf.jpg,stim_03/b.jpg,stim_03/a.jpg,1,1,f,1,28,88,6,j,0,0.866411750289,03,01,60.01917025,PLT_learning_3,N,2014_Mrz_05_1816,P21,
stim_fb/ques.jpg,stim_fb/negf.jpg,stim_fb/posf.jpg,stim_03/e.jpg,stim_03/f.jpg,2,3,j,1,29,89,55,j,1,0.99981679837,03,01,60.01917025,PLT_learning_3,N,2014_Mrz_05_1816,P21,
stim_fb/ques.jpg,stim_fb/negf.jpg,stim_fb/posf.jpg,stim_03/d.jpg,stim_03/c.jpg,1,2,f,1,30,90,20,f,1,0.999720805106,03,01,60.01917025,PLT_learning_3,N,2014_Mrz_05_1816,P21,
stim_fb/ques.jpg,stim_fb/negf.jpg,stim_fb/posf.jpg,stim_03/d.jpg,stim_03/c.jpg,1,2,f,1,31,91,22,f,1,0.733145838001,03,01,60.01917025,PLT_learning_3,N,2014_Mrz_05_1816,P21,
stim_fb/ques.jpg,stim_fb/negf.jpg,stim_fb/posf.jpg,stim_03/b.jpg,stim_03/a.jpg,1,1,f,1,32,92,2,j,0,1.54952655995,03,01,60.01917025,PLT_learning_3,N,2014_Mrz_05_1816,P21,
stim_fb/ques.jpg,stim_fb/negf.jpg,stim_fb/posf.jpg,stim_03/d.jpg,stim_03/c.jpg,1,2,f,1,33,93,24,f,1,0.933093543657,03,01,60.01917025,PLT_learning_3,N,2014_Mrz_05_1816,P21,
stim_fb/ques.jpg,stim_fb/negf.jpg,stim_fb/posf.jpg,stim_03/a.jpg,stim_03/b.jpg,2,1,j,1,34,94,15,f,0,1.1330165698,03,01,60.01917025,PLT_learning_3,N,2014_Mrz_05_1816,P21,
stim_fb/ques.jpg,stim_fb/posf.jpg,stim_fb/negf.jpg,stim_03/d.jpg,stim_03/c.jpg,1,2,f,1,35,95,27,f,1,0.749803183435,03,01,60.01917025,PLT_learning_3,N,2014_Mrz_05_1816,P21,
stim_fb/ques.jpg,stim_fb/posf.jpg,stim_fb/negf.jpg,stim_03/d.jpg,stim_03/c.jpg,1,2,f,1,36,96,28,j,0,0.7331210833,03,01,60.01917025,PLT_learning_3,N,2014_Mrz_05_1816,P21,
stim_fb/ques.jpg,stim_fb/negf.jpg,stim_fb/posf.jpg,stim_03/a.jpg,stim_03/b.jpg,2,1,j,1,37,97,11,j,1,1.24964441771,03,01,60.01917025,PLT_learning_3,N,2014_Mrz_05_1816,P21,
stim_fb/ques.jpg,stim_fb/negf.jpg,stim_fb/posf.jpg,stim_03/a.jpg,stim_03/b.jpg,2,1,j,1,38,98,14,j,1,1.13302572462,03,01,60.01917025,PLT_learning_3,N,2014_Mrz_05_1816,P21,
stim_fb/ques.jpg,stim_fb/posf.jpg,stim_fb/negf.jpg,stim_03/b.jpg,stim_03/a.jpg,1,1,f,1,39,99,8,f,1,0.883064599513,03,01,60.01917025,PLT_learning_3,N,2014_Mrz_05_1816,P21,
stim_fb/ques.jpg,stim_fb/negf.jpg,stim_fb/posf.jpg,stim_03/f.jpg,stim_03/e.jpg,1,3,f,1,40,100,41,f,1,1.26626389877,03,01,60.01917025,PLT_learning_3,N,2014_Mrz_05_1816,P21,
stim_fb/ques.jpg,stim_fb/negf.jpg,stim_fb/posf.jpg,stim_03/c.jpg,stim_03/d.jpg,2,2,j,1,41,101,35,f,0,1.51622203442,03,01,60.01917025,PLT_learning_3,N,2014_Mrz_05_1816,P21,
stim_fb/ques.jpg,stim_fb/negf.jpg,stim_fb/posf.jpg,stim_03/f.jpg,stim_03/e.jpg,1,3,f,1,42,102,44,None,0,,03,01,60.01917025,PLT_learning_3,N,2014_Mrz_05_1816,P21,
stim_fb/ques.jpg,stim_fb/negf.jpg,stim_fb/posf.jpg,stim_03/c.jpg,stim_03/d.jpg,2,2,j,1,43,103,30,j,1,1.01633172683,03,01,60.01917025,PLT_learning_3,N,2014_Mrz_05_1816,P21,
stim_fb/ques.jpg,stim_fb/negf.jpg,stim_fb/posf.jpg,stim_03/a.jpg,stim_03/b.jpg,2,1,j,1,44,104,16,f,0,1.49958393095,03,01,60.01917025,PLT_learning_3,N,2014_Mrz_05_1816,P21,
stim_fb/ques.jpg,stim_fb/posf.jpg,stim_fb/negf.jpg,stim_03/c.jpg,stim_03/d.jpg,2,2,j,1,45,105,38,j,1,0.916387945956,03,01,60.01917025,PLT_learning_3,N,2014_Mrz_05_1816,P21,
stim_fb/ques.jpg,stim_fb/negf.jpg,stim_fb/posf.jpg,stim_03/e.jpg,stim_03/f.jpg,2,3,j,1,46,106,52,j,1,1.5995188367,03,01,60.01917025,PLT_learning_3,N,2014_Mrz_05_1816,P21,
stim_fb/ques.jpg,stim_fb/negf.jpg,stim_fb/posf.jpg,stim_03/d.jpg,stim_03/c.jpg,1,2,f,1,47,107,21,j,0,0.933076803934,03,01,60.01917025,PLT_learning_3,N,2014_Mrz_05_1816,P21,
stim_fb/ques.jpg,stim_fb/posf.jpg,stim_fb/negf.jpg,stim_03/e.jpg,stim_03/f.jpg,2,3,j,1,48,108,58,j,1,1.14965863415,03,01,60.01917025,PLT_learning_3,N,2014_Mrz_05_1816,P21,
stim_fb/ques.jpg,stim_fb/negf.jpg,stim_fb/posf.jpg,stim_03/e.jpg,stim_03/f.jpg,2,3,j,1,49,109,50,j,1,0.899754946204,03,01,60.01917025,PLT_learning_3,N,2014_Mrz_05_1816,P21,
stim_fb/ques.jpg,stim_fb/negf.jpg,stim_fb/posf.jpg,stim_03/a.jpg,stim_03/b.jpg,2,1,j,1,50,110,17,j,1,1.04970627589,03,01,60.01917025,PLT_learning_3,N,2014_Mrz_05_1816,P21,
stim_fb/ques.jpg,stim_fb/posf.jpg,stim_fb/negf.jpg,stim_03/e.jpg,stim_03/f.jpg,2,3,j,1,51,111,56,j,1,0.633162670958,03,01,60.01917025,PLT_learning_3,N,2014_Mrz_05_1816,P21,
stim_fb/ques.jpg,stim_fb/posf.jpg,stim_fb/negf.jpg,stim_03/f.jpg,stim_03/e.jpg,1,3,f,1,52,112,49,f,1,0.833129113314,03,01,60.01917025,PLT_learning_3,N,2014_Mrz_05_1816,P21,
stim_fb/ques.jpg,stim_fb/negf.jpg,stim_fb/posf.jpg,stim_03/b.jpg,stim_03/a.jpg,1,1,f,1,53,113,1,f,1,0.999778281366,03,01,60.01917025,PLT_learning_3,N,2014_Mrz_05_1816,P21,
stim_fb/ques.jpg,stim_fb/negf.jpg,stim_fb/posf.jpg,stim_03/a.jpg,stim_03/b.jpg,2,1,j,1,54,114,13,f,0,0.683153627417,03,01,60.01917025,PLT_learning_3,N,2014_Mrz_05_1816,P21,
stim_fb/ques.jpg,stim_fb/negf.jpg,stim_fb/posf.jpg,stim_03/d.jpg,stim_03/c.jpg,1,2,f,1,55,115,23,f,1,0.983022229908,03,01,60.01917025,PLT_learning_3,N,2014_Mrz_05_1816,P21,
stim_fb/ques.jpg,stim_fb/negf.jpg,stim_fb/posf.jpg,stim_03/e.jpg,stim_03/f.jpg,2,3,j,1,56,116,51,f,0,1.249620863,03,01,60.01917025,PLT_learning_3,N,2014_Mrz_05_1816,P21,
stim_fb/ques.jpg,stim_fb/negf.jpg,stim_fb/posf.jpg,stim_03/b.jpg,stim_03/a.jpg,1,1,f,1,57,117,0,j,0,0.999728353921,03,01,60.01917025,PLT_learning_3,N,2014_Mrz_05_1816,P21,
stim_fb/ques.jpg,stim_fb/posf.jpg,stim_fb/negf.jpg,stim_03/b.jpg,stim_03/a.jpg,1,1,f,1,58,118,9,f,1,0.749785691836,03,01,60.01917025,PLT_learning_3,N,2014_Mrz_05_1816,P21,
stim_fb/ques.jpg,stim_fb/negf.jpg,stim_fb/posf.jpg,stim_03/c.jpg,stim_03/d.jpg,2,2,j,1,59,119,33,j,1,1.01637983474,03,01,60.01917025,PLT_learning_3,N,2014_Mrz_05_1816,P21,
stim_fb/ques.jpg,stim_fb/negf.jpg,stim_fb/posf.jpg,stim_03/f.jpg,stim_03/e.jpg,1,3,f,2,0,120,42,f,1,1.03299168578,03,01,60.01917025,PLT_learning_3,N,2014_Mrz_05_1816,P21,
stim_fb/ques.jpg,stim_fb/negf.jpg,stim_fb/posf.jpg,stim_03/f.jpg,stim_03/e.jpg,1,3,f,2,1,121,43,j,0,1.31627376937,03,01,60.01917025,PLT_learning_3,N,2014_Mrz_05_1816,P21,
stim_fb/ques.jpg,stim_fb/negf.jpg,stim_fb/posf.jpg,stim_03/c.jpg,stim_03/d.jpg,2,2,j,2,2,122,30,j,1,0.849790557964,03,01,60.01917025,PLT_learning_3,N,2014_Mrz_05_1816,P21,
stim_fb/ques.jpg,stim_fb/negf.jpg,stim_fb/posf.jpg,stim_03/d.jpg,stim_03/c.jpg,1,2,f,2,3,123,23,f,1,0.966350836459,03,01,60.01917025,PLT_learning_3,N,2014_Mrz_05_1816,P21,
stim_fb/ques.jpg,stim_fb/negf.jpg,stim_fb/posf.jpg,stim_03/d.jpg,stim_03/c.jpg,1,2,f,2,4,124,24,f,1,0.799801986452,03,01,60.01917025,PLT_learning_3,N,2014_Mrz_05_1816,P21,
stim_fb/ques.jpg,stim_fb/negf.jpg,stim_fb/posf.jpg,stim_03/c.jpg,stim_03/d.jpg,2,2,j,2,5,125,35,j,1,0.899754657483,03,01,60.01917025,PLT_learning_3,N,2014_Mrz_05_1816,P21,
stim_fb/ques.jpg,stim_fb/negf.jpg,stim_fb/posf.jpg,stim_03/b.jpg,stim_03/a.jpg,1,1,f,2,6,126,5,f,1,0.883185401613,03,01,60.01917025,PLT_learning_3,N,2014_Mrz_05_1816,P21,
stim_fb/ques.jpg,stim_fb/negf.jpg,stim_fb/posf.jpg,stim_03/a.jpg,stim_03/b.jpg,2,1,j,2,7,127,15,j,1,1.03301810663,03,01,60.01917025,PLT_learning_3,N,2014_Mrz_05_1816,P21,
stim_fb/ques.jpg,stim_fb/negf.jpg,stim_fb/posf.jpg,stim_03/c.jpg,stim_03/d.jpg,2,2,j,2,8,128,34,j,1,0.766437440319,03,01,60.01917025,PLT_learning_3,N,2014_Mrz_05_1816,P21,
stim_fb/ques.jpg,stim_fb/negf.jpg,stim_fb/posf.jpg,stim_03/f.jpg,stim_03/e.jpg,1,3,f,2,9,129,45,f,1,1.2163162683,03,01,60.01917025,PLT_learning_3,N,2014_Mrz_05_1816,P21,
stim_fb/ques.jpg,stim_fb/negf.jpg,stim_fb/posf.jpg,stim_03/b.jpg,stim_03/a.jpg,1,1,f,2,10,130,0,f,1,1.03319702258,03,01,60.01917025,PLT_learning_3,N,2014_Mrz_05_1816,P21,
stim_fb/ques.jpg,stim_fb/negf.jpg,stim_fb/posf.jpg,stim_03/e.jpg,stim_03/f.jpg,2,3,j,2,11,131,54,j,1,0.966423894557,03,01,60.01917025,PLT_learning_3,N,2014_Mrz_05_1816,P21,
stim_fb/ques.jpg,stim_fb/negf.jpg,stim_fb/posf.jpg,stim_03/b.jpg,stim_03/a.jpg,1,1,f,2,12,132,1,f,1,0.966398147382,03,01,60.01917025,PLT_learning_3,N,2014_Mrz_05_1816,P21,
stim_fb/ques.jpg,stim_fb/negf.jpg,stim_fb/posf.jpg,stim_03/e.jpg,stim_03/f.jpg,2,3,j,2,13,133,52,j,1,0.88311172698,03,01,60.01917025,PLT_learning_3,N,2014_Mrz_05_1816,P21,
stim_fb/ques.jpg,stim_fb/negf.jpg,stim_fb/posf.jpg,stim_03/b.jpg,stim_03/a.jpg,1,1,f,2,14,134,4,f,1,1.34966978594,03,01,60.01917025,PLT_learning_3,N,2014_Mrz_05_1816,P21,
stim_fb/ques.jpg,stim_fb/negf.jpg,stim_fb/posf.jpg,stim_03/a.jpg,stim_03/b.jpg,2,1,j,2,15,135,12,j,1,0.699827035885,03,01,60.01917025,PLT_learning_3,N,2014_Mrz_05_1816,P21,
stim_fb/ques.jpg,stim_fb/negf.jpg,stim_fb/posf.jpg,stim_03/d.jpg,stim_03/c.jpg,1,2,f,2,16,136,20,f,1,0.883104539063,03,01,60.01917025,PLT_learning_3,N,2014_Mrz_05_1816,P21,
stim_fb/ques.jpg,stim_fb/negf.jpg,stim_fb/posf.jpg,stim_03/a.jpg,stim_03/b.jpg,2,1,j,2,17,137,14,j,1,0.716492546673,03,01,60.01917025,PLT_learning_3,N,2014_Mrz_05_1816,P21,
stim_fb/ques.jpg,stim_fb/posf.jpg,stim_fb/negf.jpg,stim_03/e.jpg,stim_03/f.jpg,2,3,j,2,18,138,58,j,1,1.24963009,03,01,60.01917025,PLT_learning_3,N,2014_Mrz_05_1816,P21,
stim_fb/ques.jpg,stim_fb/negf.jpg,stim_fb/posf.jpg,stim_03/e.jpg,stim_03/f.jpg,2,3,j,2,19,139,50,f,0,0.699814891617,03,01,60.01917025,PLT_learning_3,N,2014_Mrz_05_1816,P21,
stim_fb/ques.jpg,stim_fb/negf.jpg,stim_fb/posf.jpg,stim_03/b.jpg,stim_03/a.jpg,1,1,f,2,20,140,3,f,1,1.48289375268,03,01,60.01917025,PLT_learning_3,N,2014_Mrz_05_1816,P21,
stim_fb/ques.jpg,stim_fb/posf.jpg,stim_fb/negf.jpg,stim_03/e.jpg,stim_03/f.jpg,2,3,j,2,21,141,56,f,0,0.966320890819,03,01,60.01917025,PLT_learning_3,N,2014_Mrz_05_1816,P21,
stim_fb/ques.jpg,stim_fb/posf.jpg,stim_fb/negf.jpg,stim_03/e.jpg,stim_03/f.jpg,2,3,j,2,22,142,57,f,0,0.766473346817,03,01,60.01917025,PLT_learning_3,N,2014_Mrz_05_1816,P21,
stim_fb/ques.jpg,stim_fb/posf.jpg,stim_fb/negf.jpg,stim_03/c.jpg,stim_03/d.jpg,2,2,j,2,23,143,37,j,1,0.849768338583,03,01,60.01917025,PLT_learning_3,N,2014_Mrz_05_1816,P21,
stim_fb/ques.jpg,stim_fb/posf.jpg,stim_fb/negf.jpg,stim_03/f.jpg,stim_03/e.jpg,1,3,f,2,24,144,49,j,0,1.21632410583,03,01,60.01917025,PLT_learning_3,N,2014_Mrz_05_1816,P21,
stim_fb/ques.jpg,stim_fb/negf.jpg,stim_fb/posf.jpg,stim_03/c.jpg,stim_03/d.jpg,2,2,j,2,25,145,31,f,0,0.716456961978,03,01,60.01917025,PLT_learning_3,N,2014_Mrz_05_1816,P21,
stim_fb/ques.jpg,stim_fb/posf.jpg,stim_fb/negf.jpg,stim_03/a.jpg,stim_03/b.jpg,2,1,j,2,26,146,18,j,1,1.13303214863,03,01,60.01917025,PLT_learning_3,N,2014_Mrz_05_1816,P21,
stim_fb/ques.jpg,stim_fb/negf.jpg,stim_fb/posf.jpg,stim_03/a.jpg,stim_03/b.jpg,2,1,j,2,27,147,17,j,1,0.933055243193,03,01,60.01917025,PLT_learning_3,N,2014_Mrz_05_1816,P21,
stim_fb/ques.jpg,stim_fb/negf.jpg,stim_fb/posf.jpg,stim_03/c.jpg,stim_03/d.jpg,2,2,j,2,28,148,36,j,1,0.83310232254,03,01,60.01917025,PLT_learning_3,N,2014_Mrz_05_1816,P21,
stim_fb/ques.jpg,stim_fb/negf.jpg,stim_fb/posf.jpg,stim_03/a.jpg,stim_03/b.jpg,2,1,j,2,29,149,11,j,1,0.799781339991,03,01,60.01917025,PLT_learning_3,N,2014_Mrz_05_1816,P21,
stim_fb/ques.jpg,stim_fb/negf.jpg,stim_fb/posf.jpg,stim_03/d.jpg,stim_03/c.jpg,1,2,f,2,30,150,21,f,1,0.883063790498,03,01,60.01917025,PLT_learning_3,N,2014_Mrz_05_1816,P21,
stim_fb/ques.jpg,stim_fb/posf.jpg,stim_fb/negf.jpg,stim_03/c.jpg,stim_03/d.jpg,2,2,j,2,31,151,39,j,1,0.749837041825,03,01,60.01917025,PLT_learning_3,N,2014_Mrz_05_1816,P21,
stim_fb/ques.jpg,stim_fb/negf.jpg,stim_fb/posf.jpg,stim_03/f.jpg,stim_03/e.jpg,1,3,f,2,32,152,41,f,1,0.933073044564,03,01,60.01917025,PLT_learning_3,N,2014_Mrz_05_1816,P21,
stim_fb/ques.jpg,stim_fb/posf.jpg,stim_fb/negf.jpg,stim_03/f.jpg,stim_03/e.jpg,1,3,f,2,33,153,47,f,1,1.31625585672,03,01,60.01917025,PLT_learning_3,N,2014_Mrz_05_1816,P21,
stim_fb/ques.jpg,stim_fb/negf.jpg,stim_fb/posf.jpg,stim_03/d.jpg,stim_03/c.jpg,1,2,f,2,34,154,26,f,1,0.816433593731,03,01,60.01917025,PLT_learning_3,N,2014_Mrz_05_1816,P21,
stim_fb/ques.jpg,stim_fb/posf.jpg,stim_fb/negf.jpg,stim_03/b.jpg,stim_03/a.jpg,1,1,f,2,35,155,8,f,1,0.916429410305,03,01,60.01917025,PLT_learning_3,N,2014_Mrz_05_1816,P21,
stim_fb/ques.jpg,stim_fb/negf.jpg,stim_fb/posf.jpg,stim_03/e.jpg,stim_03/f.jpg,2,3,j,2,36,156,55,j,1,0.899741460591,03,01,60.01917025,PLT_learning_3,N,2014_Mrz_05_1816,P21,
stim_fb/ques.jpg,stim_fb/negf.jpg,stim_fb/posf.jpg,stim_03/b.jpg,stim_03/a.jpg,1,1,f,2,37,157,2,f,1,0.999756846941,03,01,60.01917025,PLT_learning_3,N,2014_Mrz_05_1816,P21,
stim_fb/ques.jpg,stim_fb/negf.jpg,stim_fb/posf.jpg,stim_03/d.jpg,stim_03/c.jpg,1,2,f,2,38,158,25,f,1,1.13299204968,03,01,60.01917025,PLT_learning_3,N,2014_Mrz_05_1816,P21,
stim_fb/ques.jpg,stim_fb/posf.jpg,stim_fb/negf.jpg,stim_03/f.jpg,stim_03/e.jpg,1,3,f,2,39,159,46,None,0,,03,01,60.01917025,PLT_learning_3,N,2014_Mrz_05_1816,P21,
stim_fb/ques.jpg,stim_fb/negf.jpg,stim_fb/posf.jpg,stim_03/f.jpg,stim_03/e.jpg,1,3,f,2,40,160,44,f,1,1.08302817573,03,01,60.01917025,PLT_learning_3,N,2014_Mrz_05_1816,P21,
stim_fb/ques.jpg,stim_fb/negf.jpg,stim_fb/posf.jpg,stim_03/e.jpg,stim_03/f.jpg,2,3,j,2,41,161,53,j,1,0.88308586552,03,01,60.01917025,PLT_learning_3,N,2014_Mrz_05_1816,P21,
stim_fb/ques.jpg,stim_fb/negf.jpg,stim_fb/posf.jpg,stim_03/b.jpg,stim_03/a.jpg,1,1,f,2,42,162,6,f,1,1.08300103308,03,01,60.01917025,PLT_learning_3,N,2014_Mrz_05_1816,P21,
stim_fb/ques.jpg,stim_fb/negf.jpg,stim_fb/posf.jpg,stim_03/f.jpg,stim_03/e.jpg,1,3,f,2,43,163,40,f,1,1.34962909753,03,01,60.01917025,PLT_learning_3,N,2014_Mrz_05_1816,P21,
stim_fb/ques.jpg,stim_fb/posf.jpg,stim_fb/negf.jpg,stim_03/e.jpg,stim_03/f.jpg,2,3,j,2,44,164,59,j,1,1.23293478696,03,01,60.01917025,PLT_learning_3,N,2014_Mrz_05_1816,P21,
stim_fb/ques.jpg,stim_fb/posf.jpg,stim_fb/negf.jpg,stim_03/a.jpg,stim_03/b.jpg,2,1,j,2,45,165,19,j,1,1.04968571966,03,01,60.01917025,PLT_learning_3,N,2014_Mrz_05_1816,P21,
stim_fb/ques.jpg,stim_fb/negf.jpg,stim_fb/posf.jpg,stim_03/d.jpg,stim_03/c.jpg,1,2,f,2,46,166,22,f,1,0.816428243395,03,01,60.01917025,PLT_learning_3,N,2014_Mrz_05_1816,P21,
stim_fb/ques.jpg,stim_fb/negf.jpg,stim_fb/posf.jpg,stim_03/a.jpg,stim_03/b.jpg,2,1,j,2,47,167,13,j,1,0.849776750551,03,01,60.01917025,PLT_learning_3,N,2014_Mrz_05_1816,P21,
stim_fb/ques.jpg,stim_fb/posf.jpg,stim_fb/negf.jpg,stim_03/f.jpg,stim_03/e.jpg,1,3,f,2,48,168,48,f,1,0.68315451162,03,01,60.01917025,PLT_learning_3,N,2014_Mrz_05_1816,P21,
stim_fb/ques.jpg,stim_fb/negf.jpg,stim_fb/posf.jpg,stim_03/a.jpg,stim_03/b.jpg,2,1,j,2,49,169,16,j,1,0.633179452785,03,01,60.01917025,PLT_learning_3,N,2014_Mrz_05_1816,P21,
stim_fb/ques.jpg,stim_fb/posf.jpg,stim_fb/negf.jpg,stim_03/c.jpg,stim_03/d.jpg,2,2,j,2,50,170,38,f,0,0.649764976204,03,01,60.01917025,PLT_learning_3,N,2014_Mrz_05_1816,P21,
stim_fb/ques.jpg,stim_fb/negf.jpg,stim_fb/posf.jpg,stim_03/e.jpg,stim_03/f.jpg,2,3,j,2,51,171,51,j,1,0.64985108082,03,01,60.01917025,PLT_learning_3,N,2014_Mrz_05_1816,P21,
stim_fb/ques.jpg,stim_fb/posf.jpg,stim_fb/negf.jpg,stim_03/d.jpg,stim_03/c.jpg,1,2,f,2,52,172,29,f,1,0.68313057195,03,01,60.01917025,PLT_learning_3,N,2014_Mrz_05_1816,P21,
stim_fb/ques.jpg,stim_fb/negf.jpg,stim_fb/posf.jpg,stim_03/c.jpg,stim_03/d.jpg,2,2,j,2,53,173,32,j,1,0.599837318518,03,01,60.01917025,PLT_learning_3,N,2014_Mrz_05_1816,P21,
stim_fb/ques.jpg,stim_fb/negf.jpg,stim_fb/posf.jpg,stim_03/a.jpg,stim_03/b.jpg,2,1,j,2,54,174,10,j,1,0.766471767882,03,01,60.01917025,PLT_learning_3,N,2014_Mrz_05_1816,P21,
stim_fb/ques.jpg,stim_fb/posf.jpg,stim_fb/negf.jpg,stim_03/d.jpg,stim_03/c.jpg,1,2,f,2,55,175,28,f,1,0.783121621642,03,01,60.01917025,PLT_learning_3,N,2014_Mrz_05_1816,P21,
stim_fb/ques.jpg,stim_fb/negf.jpg,stim_fb/posf.jpg,stim_03/b.jpg,stim_03/a.jpg,1,1,f,2,56,176,7,f,1,0.816450715407,03,01,60.01917025,PLT_learning_3,N,2014_Mrz_05_1816,P21,
stim_fb/ques.jpg,stim_fb/negf.jpg,stim_fb/posf.jpg,stim_03/c.jpg,stim_03/d.jpg,2,2,j,2,57,177,33,j,1,0.999728035127,03,01,60.01917025,PLT_learning_3,N,2014_Mrz_05_1816,P21,
stim_fb/ques.jpg,stim_fb/posf.jpg,stim_fb/negf.jpg,stim_03/d.jpg,stim_03/c.jpg,1,2,f,2,58,178,27,f,1,0.849772973135,03,01,60.01917025,PLT_learning_3,N,2014_Mrz_05_1816,P21,
stim_fb/ques.jpg,stim_fb/posf.jpg,stim_fb/negf.jpg,stim_03/b.jpg,stim_03/a.jpg,1,1,f,2,59,179,9,f,1,1.09970172254,03,01,60.01917025,PLT_learning_3,N,2014_Mrz_05_1816,P21,
stim_fb/ques.jpg,stim_fb/negf.jpg,stim_fb/posf.jpg,stim_03/d.jpg,stim_03/c.jpg,1,2,f,3,0,180,26,f,1,1.41622989,03,01,60.01917025,PLT_learning_3,N,2014_Mrz_05_1816,P21,
stim_fb/ques.jpg,stim_fb/negf.jpg,stim_fb/posf.jpg,stim_03/a.jpg,stim_03/b.jpg,2,1,j,3,1,181,10,j,1,1.28291440816,03,01,60.01917025,PLT_learning_3,N,2014_Mrz_05_1816,P21,
stim_fb/ques.jpg,stim_fb/negf.jpg,stim_fb/posf.jpg,stim_03/a.jpg,stim_03/b.jpg,2,1,j,3,2,182,11,j,1,0.966381952016,03,01,60.01917025,PLT_learning_3,N,2014_Mrz_05_1816,P21,
stim_fb/ques.jpg,stim_fb/negf.jpg,stim_fb/posf.jpg,stim_03/f.jpg,stim_03/e.jpg,1,3,f,3,3,183,44,f,1,0.866418784821,03,01,60.01917025,PLT_learning_3,N,2014_Mrz_05_1816,P21,
stim_fb/ques.jpg,stim_fb/posf.jpg,stim_fb/negf.jpg,stim_03/d.jpg,stim_03/c.jpg,1,2,f,3,4,184,29,f,1,0.833106121006,03,01,60.01917025,PLT_learning_3,N,2014_Mrz_05_1816,P21,
stim_fb/ques.jpg,stim_fb/posf.jpg,stim_fb/negf.jpg,stim_03/d.jpg,stim_03/c.jpg,1,2,f,3,5,185,28,f,1,0.633166938595,03,01,60.01917025,PLT_learning_3,N,2014_Mrz_05_1816,P21,
stim_fb/ques.jpg,stim_fb/negf.jpg,stim_fb/posf.jpg,stim_03/f.jpg,stim_03/e.jpg,1,3,f,3,6,186,40,f,1,1.08302616672,03,01,60.01917025,PLT_learning_3,N,2014_Mrz_05_1816,P21,
stim_fb/ques.jpg,stim_fb/negf.jpg,stim_fb/posf.jpg,stim_03/b.jpg,stim_03/a.jpg,1,1,f,3,7,187,0,f,1,0.916336538823,03,01,60.01917025,PLT_learning_3,N,2014_Mrz_05_1816,P21,
stim_fb/ques.jpg,stim_fb/negf.jpg,stim_fb/posf.jpg,stim_03/b.jpg,stim_03/a.jpg,1,1,f,3,8,188,5,f,1,0.783099748123,03,01,60.01917025,PLT_learning_3,N,2014_Mrz_05_1816,P21,
stim_fb/ques.jpg,stim_fb/negf.jpg,stim_fb/posf.jpg,stim_03/b.jpg,stim_03/a.jpg,1,1,f,3,9,189,7,f,1,0.616528435125,03,01,60.01917025,PLT_learning_3,N,2014_Mrz_05_1816,P21,
stim_fb/ques.jpg,stim_fb/negf.jpg,stim_fb/posf.jpg,stim_03/e.jpg,stim_03/f.jpg,2,3,j,3,10,190,50,j,1,0.766458634147,03,01,60.01917025,PLT_learning_3,N,2014_Mrz_05_1816,P21,
stim_fb/ques.jpg,stim_fb/posf.jpg,stim_fb/negf.jpg,stim_03/f.jpg,stim_03/e.jpg,1,3,f,3,11,191,48,f,1,0.883073218998,03,01,60.01917025,PLT_learning_3,N,2014_Mrz_05_1816,P21,
stim_fb/ques.jpg,stim_fb/negf.jpg,stim_fb/posf.jpg,stim_03/a.jpg,stim_03/b.jpg,2,1,j,3,12,192,12,j,1,0.799724534403,03,01,60.01917025,PLT_learning_3,N,2014_Mrz_05_1816,P21,
stim_fb/ques.jpg,stim_fb/posf.jpg,stim_fb/negf.jpg,stim_03/a.jpg,stim_03/b.jpg,2,1,j,3,13,193,18,j,1,0.999699403765,03,01,60.01917025,PLT_learning_3,N,2014_Mrz_05_1816,P21,
stim_fb/ques.jpg,stim_fb/negf.jpg,stim_fb/posf.jpg,stim_03/e.jpg,stim_03/f.jpg,2,3,j,3,14,194,54,j,1,1.0830456162,03,01,60.01917025,PLT_learning_3,N,2014_Mrz_05_1816,P21,
stim_fb/ques.jpg,stim_fb/negf.jpg,stim_fb/posf.jpg,stim_03/c.jpg,stim_03/d.jpg,2,2,j,3,15,195,32,j,1,0.749826855437,03,01,60.01917025,PLT_learning_3,N,2014_Mrz_05_1816,P21,
stim_fb/ques.jpg,stim_fb/posf.jpg,stim_fb/negf.jpg,stim_03/e.jpg,stim_03/f.jpg,2,3,j,3,16,196,57,j,1,0.916427575734,03,01,60.01917025,PLT_learning_3,N,2014_Mrz_05_1816,P21,
stim_fb/ques.jpg,stim_fb/posf.jpg,stim_fb/negf.jpg,stim_03/b.jpg,stim_03/a.jpg,1,1,f,3,17,197,8,f,1,0.749814410417,03,01,60.01917025,PLT_learning_3,N,2014_Mrz_05_1816,P21,
stim_fb/ques.jpg,stim_fb/negf.jpg,stim_fb/posf.jpg,stim_03/f.jpg,stim_03/e.jpg,1,3,f,3,18,198,43,j,0,1.31629859024,03,01,60.01917025,PLT_learning_3,N,2014_Mrz_05_1816,P21,
stim_fb/ques.jpg,stim_fb/posf.jpg,stim_fb/negf.jpg,stim_03/d.jpg,stim_03/c.jpg,1,2,f,3,19,199,27,f,1,0.916427031376,03,01,60.01917025,PLT_learning_3,N,2014_Mrz_05_1816,P21,
stim_fb/ques.jpg,stim_fb/posf.jpg,stim_fb/negf.jpg,stim_03/e.jpg,stim_03/f.jpg,2,3,j,3,20,200,59,j,1,0.783077065586,03,01,60.01917025,PLT_learning_3,N,2014_Mrz_05_1816,P21,
stim_fb/ques.jpg,stim_fb/posf.jpg,stim_fb/negf.jpg,stim_03/c.jpg,stim_03/d.jpg,2,2,j,3,21,201,39,f,0,1.23298175803,03,01,60.01917025,PLT_learning_3,N,2014_Mrz_05_1816,P21,
stim_fb/ques.jpg,stim_fb/negf.jpg,stim_fb/posf.jpg,stim_03/c.jpg,stim_03/d.jpg,2,2,j,3,22,202,35,f,0,0.66649391809,03,01,60.01917025,PLT_learning_3,N,2014_Mrz_05_1816,P21,
stim_fb/ques.jpg,stim_fb/negf.jpg,stim_fb/posf.jpg,stim_03/a.jpg,stim_03/b.jpg,2,1,j,3,23,203,13,j,1,1.03309508951,03,01,60.01917025,PLT_learning_3,N,2014_Mrz_05_1816,P21,
stim_fb/ques.jpg,stim_fb/posf.jpg,stim_fb/negf.jpg,stim_03/c.jpg,stim_03/d.jpg,2,2,j,3,24,204,37,j,1,0.866421473522,03,01,60.01917025,PLT_learning_3,N,2014_Mrz_05_1816,P21,
stim_fb/ques.jpg,stim_fb/negf.jpg,stim_fb/posf.jpg,stim_03/d.jpg,stim_03/c.jpg,1,2,f,3,25,205,24,j,0,1.48291065781,03,01,60.01917025,PLT_learning_3,N,2014_Mrz_05_1816,P21,
stim_fb/ques.jpg,stim_fb/negf.jpg,stim_fb/posf.jpg,stim_03/e.jpg,stim_03/f.jpg,2,3,j,3,26,206,53,j,1,1.04971967128,03,01,60.01917025,PLT_learning_3,N,2014_Mrz_05_1816,P21,
stim_fb/ques.jpg,stim_fb/negf.jpg,stim_fb/posf.jpg,stim_03/c.jpg,stim_03/d.jpg,2,2,j,3,27,207,33,j,1,0.799847661296,03,01,60.01917025,PLT_learning_3,N,2014_Mrz_05_1816,P21,
stim_fb/ques.jpg,stim_fb/posf.jpg,stim_fb/negf.jpg,stim_03/b.jpg,stim_03/a.jpg,1,1,f,3,28,208,9,f,1,1.11636166345,03,01,60.01917025,PLT_learning_3,N,2014_Mrz_05_1816,P21,
stim_fb/ques.jpg,stim_fb/negf.jpg,stim_fb/posf.jpg,stim_03/a.jpg,stim_03/b.jpg,2,1,j,3,29,209,14,j,1,0.599843829745,03,01,60.01917025,PLT_learning_3,N,2014_Mrz_05_1816,P21,
stim_fb/ques.jpg,stim_fb/negf.jpg,stim_fb/posf.jpg,stim_03/d.jpg,stim_03/c.jpg,1,2,f,3,30,210,21,f,1,0.749817959264,03,01,60.01917025,PLT_learning_3,N,2014_Mrz_05_1816,P21,
stim_fb/ques.jpg,stim_fb/negf.jpg,stim_fb/posf.jpg,stim_03/e.jpg,stim_03/f.jpg,2,3,j,3,31,211,55,j,1,0.733120635183,03,01,60.01917025,PLT_learning_3,N,2014_Mrz_05_1816,P21,
stim_fb/ques.jpg,stim_fb/negf.jpg,stim_fb/posf.jpg,stim_03/d.jpg,stim_03/c.jpg,1,2,f,3,32,212,20,f,1,0.666487400847,03,01,60.01917025,PLT_learning_3,N,2014_Mrz_05_1816,P21,
stim_fb/ques.jpg,stim_fb/negf.jpg,stim_fb/posf.jpg,stim_03/b.jpg,stim_03/a.jpg,1,1,f,3,33,213,1,f,1,0.833112893888,03,01,60.01917025,PLT_learning_3,N,2014_Mrz_05_1816,P21,
stim_fb/ques.jpg,stim_fb/negf.jpg,stim_fb/posf.jpg,stim_03/c.jpg,stim_03/d.jpg,2,2,j,3,34,214,30,j,1,0.716481876076,03,01,60.01917025,PLT_learning_3,N,2014_Mrz_05_1816,P21,
stim_fb/ques.jpg,stim_fb/negf.jpg,stim_fb/posf.jpg,stim_03/a.jpg,stim_03/b.jpg,2,1,j,3,35,215,17,f,0,0.666432917045,03,01,60.01917025,PLT_learning_3,N,2014_Mrz_05_1816,P21,
stim_fb/ques.jpg,stim_fb/posf.jpg,stim_fb/negf.jpg,stim_03/e.jpg,stim_03/f.jpg,2,3,j,3,36,216,56,j,1,0.983096560178,03,01,60.01917025,PLT_learning_3,N,2014_Mrz_05_1816,P21,
stim_fb/ques.jpg,stim_fb/posf.jpg,stim_fb/negf.jpg,stim_03/a.jpg,stim_03/b.jpg,2,1,j,3,37,217,19,j,1,0.849748639484,03,01,60.01917025,PLT_learning_3,N,2014_Mrz_05_1816,P21,
stim_fb/ques.jpg,stim_fb/posf.jpg,stim_fb/negf.jpg,stim_03/f.jpg,stim_03/e.jpg,1,3,f,3,38,218,47,f,1,0.583182995617,03,01,60.01917025,PLT_learning_3,N,2014_Mrz_05_1816,P21,
stim_fb/ques.jpg,stim_fb/negf.jpg,stim_fb/posf.jpg,stim_03/f.jpg,stim_03/e.jpg,1,3,f,3,39,219,41,f,1,0.816460480748,03,01,60.01917025,PLT_learning_3,N,2014_Mrz_05_1816,P21,
stim_fb/ques.jpg,stim_fb/negf.jpg,stim_fb/posf.jpg,stim_03/b.jpg,stim_03/a.jpg,1,1,f,3,40,220,4,f,1,1.04970906986,03,01,60.01917025,PLT_learning_3,N,2014_Mrz_05_1816,P21,
stim_fb/ques.jpg,stim_fb/posf.jpg,stim_fb/negf.jpg,stim_03/c.jpg,stim_03/d.jpg,2,2,j,3,41,221,38,j,1,0.666503358621,03,01,60.01917025,PLT_learning_3,N,2014_Mrz_05_1816,P21,
stim_fb/ques.jpg,stim_fb/negf.jpg,stim_fb/posf.jpg,stim_03/c.jpg,stim_03/d.jpg,2,2,j,3,42,222,31,j,1,0.74979878046,03,01,60.01917025,PLT_learning_3,N,2014_Mrz_05_1816,P21,
stim_fb/ques.jpg,stim_fb/negf.jpg,stim_fb/posf.jpg,stim_03/a.jpg,stim_03/b.jpg,2,1,j,3,43,223,16,j,1,0.799823875008,03,01,60.01917025,PLT_learning_3,N,2014_Mrz_05_1816,P21,
stim_fb/ques.jpg,stim_fb/negf.jpg,stim_fb/posf.jpg,stim_03/d.jpg,stim_03/c.jpg,1,2,f,3,44,224,23,f,1,0.766467106263,03,01,60.01917025,PLT_learning_3,N,2014_Mrz_05_1816,P21,
stim_fb/ques.jpg,stim_fb/posf.jpg,stim_fb/negf.jpg,stim_03/f.jpg,stim_03/e.jpg,1,3,f,3,45,225,46,j,0,0.933080671573,03,01,60.01917025,PLT_learning_3,N,2014_Mrz_05_1816,P21,
stim_fb/ques.jpg,stim_fb/negf.jpg,stim_fb/posf.jpg,stim_03/e.jpg,stim_03/f.jpg,2,3,j,3,46,226,52,f,0,0.61650630296,03,01,60.01917025,PLT_learning_3,N,2014_Mrz_05_1816,P21,
stim_fb/ques.jpg,stim_fb/negf.jpg,stim_fb/posf.jpg,stim_03/d.jpg,stim_03/c.jpg,1,2,f,3,47,227,22,f,1,0.716469575416,03,01,60.01917025,PLT_learning_3,N,2014_Mrz_05_1816,P21,
stim_fb/ques.jpg,stim_fb/negf.jpg,stim_fb/posf.jpg,stim_03/f.jpg,stim_03/e.jpg,1,3,f,3,48,228,45,f,1,0.933090527138,03,01,60.01917025,PLT_learning_3,N,2014_Mrz_05_1816,P21,
stim_fb/ques.jpg,stim_fb/negf.jpg,stim_fb/posf.jpg,stim_03/b.jpg,stim_03/a.jpg,1,1,f,3,49,229,2,f,1,1.46624640416,03,01,60.01917025,PLT_learning_3,N,2014_Mrz_05_1816,P21,
stim_fb/ques.jpg,stim_fb/negf.jpg,stim_fb/posf.jpg,stim_03/d.jpg,stim_03/c.jpg,1,2,f,3,50,230,25,f,1,0.883077727234,03,01,60.01917025,PLT_learning_3,N,2014_Mrz_05_1816,P21,
stim_fb/ques.jpg,stim_fb/negf.jpg,stim_fb/posf.jpg,stim_03/c.jpg,stim_03/d.jpg,2,2,j,3,51,231,34,j,1,1.11632175397,03,01,60.01917025,PLT_learning_3,N,2014_Mrz_05_1816,P21,
stim_fb/ques.jpg,stim_fb/negf.jpg,stim_fb/posf.jpg,stim_03/b.jpg,stim_03/a.jpg,1,1,f,3,52,232,3,f,1,1.14967380095,03,01,60.01917025,PLT_learning_3,N,2014_Mrz_05_1816,P21,
stim_fb/ques.jpg,stim_fb/negf.jpg,stim_fb/posf.jpg,stim_03/e.jpg,stim_03/f.jpg,2,3,j,3,53,233,51,j,1,1.14957023481,03,01,60.01917025,PLT_learning_3,N,2014_Mrz_05_1816,P21,
stim_fb/ques.jpg,stim_fb/negf.jpg,stim_fb/posf.jpg,stim_03/f.jpg,stim_03/e.jpg,1,3,f,3,54,234,42,f,1,0.9497242126,03,01,60.01917025,PLT_learning_3,N,2014_Mrz_05_1816,P21,
stim_fb/ques.jpg,stim_fb/posf.jpg,stim_fb/negf.jpg,stim_03/f.jpg,stim_03/e.jpg,1,3,f,3,55,235,49,f,1,0.966399774437,03,01,60.01917025,PLT_learning_3,N,2014_Mrz_05_1816,P21,
stim_fb/ques.jpg,stim_fb/negf.jpg,stim_fb/posf.jpg,stim_03/b.jpg,stim_03/a.jpg,1,1,f,3,56,236,6,f,1,1.08301128563,03,01,60.01917025,PLT_learning_3,N,2014_Mrz_05_1816,P21,
stim_fb/ques.jpg,stim_fb/negf.jpg,stim_fb/posf.jpg,stim_03/c.jpg,stim_03/d.jpg,2,2,j,3,57,237,36,j,1,1.18299584514,03,01,60.01917025,PLT_learning_3,N,2014_Mrz_05_1816,P21,
stim_fb/ques.jpg,stim_fb/negf.jpg,stim_fb/posf.jpg,stim_03/a.jpg,stim_03/b.jpg,2,1,j,3,58,238,15,j,1,1.149652959,03,01,60.01917025,PLT_learning_3,N,2014_Mrz_05_1816,P21,
stim_fb/ques.jpg,stim_fb/posf.jpg,stim_fb/negf.jpg,stim_03/e.jpg,stim_03/f.jpg,2,3,j,3,59,239,58,j,1,1.26629076173,03,01,60.01917025,PLT_learning_3,N,2014_Mrz_05_1816,P21,
stim_fb/ques.jpg,stim_fb/posf.jpg,stim_fb/negf.jpg,stim_03/f.jpg,stim_03/e.jpg,1,3,f,4,0,240,46,j,0,0.69983355313,03,01,60.01917025,PLT_learning_3,N,2014_Mrz_05_1816,P21,
stim_fb/ques.jpg,stim_fb/negf.jpg,stim_fb/posf.jpg,stim_03/c.jpg,stim_03/d.jpg,2,2,j,4,1,241,31,j,1,1.21630728792,03,01,60.01917025,PLT_learning_3,N,2014_Mrz_05_1816,P21,
stim_fb/ques.jpg,stim_fb/negf.jpg,stim_fb/posf.jpg,stim_03/d.jpg,stim_03/c.jpg,1,2,f,4,2,242,22,f,1,0.733132884716,03,01,60.01917025,PLT_learning_3,N,2014_Mrz_05_1816,P21,
stim_fb/ques.jpg,stim_fb/negf.jpg,stim_fb/posf.jpg,stim_03/a.jpg,stim_03/b.jpg,2,1,j,4,3,243,11,j,1,0.98306302058,03,01,60.01917025,PLT_learning_3,N,2014_Mrz_05_1816,P21,
stim_fb/ques.jpg,stim_fb/negf.jpg,stim_fb/posf.jpg,stim_03/d.jpg,stim_03/c.jpg,1,2,f,4,4,244,26,f,1,0.966389924888,03,01,60.01917025,PLT_learning_3,N,2014_Mrz_05_1816,P21,
stim_fb/ques.jpg,stim_fb/posf.jpg,stim_fb/negf.jpg,stim_03/d.jpg,stim_03/c.jpg,1,2,f,4,5,245,27,f,1,0.599852241712,03,01,60.01917025,PLT_learning_3,N,2014_Mrz_05_1816,P21,
stim_fb/ques.jpg,stim_fb/posf.jpg,stim_fb/negf.jpg,stim_03/a.jpg,stim_03/b.jpg,2,1,j,4,6,246,18,j,1,0.999720874279,03,01,60.01917025,PLT_learning_3,N,2014_Mrz_05_1816,P21,
stim_fb/ques.jpg,stim_fb/negf.jpg,stim_fb/posf.jpg,stim_03/c.jpg,stim_03/d.jpg,2,2,j,4,7,247,30,f,0,1.68282855918,03,01,60.01917025,PLT_learning_3,N,2014_Mrz_05_1816,P21,
stim_fb/ques.jpg,stim_fb/posf.jpg,stim_fb/negf.jpg,stim_03/a.jpg,stim_03/b.jpg,2,1,j,4,8,248,19,j,1,1.04971189389,03,01,60.01917025,PLT_learning_3,N,2014_Mrz_05_1816,P21,
stim_fb/ques.jpg,stim_fb/posf.jpg,stim_fb/negf.jpg,stim_03/c.jpg,stim_03/d.jpg,2,2,j,4,9,249,37,j,1,1.34959539552,03,01,60.01917025,PLT_learning_3,N,2014_Mrz_05_1816,P21,
stim_fb/ques.jpg,stim_fb/negf.jpg,stim_fb/posf.jpg,stim_03/e.jpg,stim_03/f.jpg,2,3,j,4,10,250,54,j,1,1.63284061022,03,01,60.01917025,PLT_learning_3,N,2014_Mrz_05_1816,P21,
stim_fb/ques.jpg,stim_fb/negf.jpg,stim_fb/posf.jpg,stim_03/b.jpg,stim_03/a.jpg,1,1,f,4,11,251,3,f,1,1.2995807009,03,01,60.01917025,PLT_learning_3,N,2014_Mrz_05_1816,P21,
stim_fb/ques.jpg,stim_fb/negf.jpg,stim_fb/posf.jpg,stim_03/c.jpg,stim_03/d.jpg,2,2,j,4,12,252,32,j,1,0.849809947294,03,01,60.01917025,PLT_learning_3,N,2014_Mrz_05_1816,P21,
stim_fb/ques.jpg,stim_fb/negf.jpg,stim_fb/posf.jpg,stim_03/f.jpg,stim_03/e.jpg,1,3,f,4,13,253,44,f,1,1.08300378193,03,01,60.01917025,PLT_learning_3,N,2014_Mrz_05_1816,P21,
stim_fb/ques.jpg,stim_fb/posf.jpg,stim_fb/negf.jpg,stim_03/e.jpg,stim_03/f.jpg,2,3,j,4,14,254,57,j,1,0.716491460966,03,01,60.01917025,PLT_learning_3,N,2014_Mrz_05_1816,P21,
stim_fb/ques.jpg,stim_fb/negf.jpg,stim_fb/posf.jpg,stim_03/d.jpg,stim_03/c.jpg,1,2,f,4,15,255,25,f,1,0.71646380403,03,01,60.01917025,PLT_learning_3,N,2014_Mrz_05_1816,P21,
stim_fb/ques.jpg,stim_fb/negf.jpg,stim_fb/posf.jpg,stim_03/b.jpg,stim_03/a.jpg,1,1,f,4,16,256,2,f,1,1.19964991541,03,01,60.01917025,PLT_learning_3,N,2014_Mrz_05_1816,P21,
stim_fb/ques.jpg,stim_fb/posf.jpg,stim_fb/negf.jpg,stim_03/f.jpg,stim_03/e.jpg,1,3,f,4,17,257,47,f,1,1.04970610146,03,01,60.01917025,PLT_learning_3,N,2014_Mrz_05_1816,P21,
stim_fb/ques.jpg,stim_fb/posf.jpg,stim_fb/negf.jpg,stim_03/f.jpg,stim_03/e.jpg,1,3,f,4,18,258,48,f,1,0.999723271254,03,01,60.01917025,PLT_learning_3,N,2014_Mrz_05_1816,P21,
stim_fb/ques.jpg,stim_fb/negf.jpg,stim_fb/posf.jpg,stim_03/a.jpg,stim_03/b.jpg,2,1,j,4,19,259,16,j,1,0.933073802453,03,01,60.01917025,PLT_learning_3,N,2014_Mrz_05_1816,P21,
stim_fb/ques.jpg,stim_fb/negf.jpg,stim_fb/posf.jpg,stim_03/e.jpg,stim_03/f.jpg,2,3,j,4,20,260,51,None,0,,03,01,60.01917025,PLT_learning_3,N,2014_Mrz_05_1816,P21,
stim_fb/ques.jpg,stim_fb/posf.jpg,stim_fb/negf.jpg,stim_03/f.jpg,stim_03/e.jpg,1,3,f,4,21,261,49,j,0,1.01635574469,03,01,60.01917025,PLT_learning_3,N,2014_Mrz_05_1816,P21,
stim_fb/ques.jpg,stim_fb/posf.jpg,stim_fb/negf.jpg,stim_03/d.jpg,stim_03/c.jpg,1,2,f,4,22,262,29,f,1,0.966382896369,03,01,60.01917025,PLT_learning_3,N,2014_Mrz_05_1816,P21,
stim_fb/ques.jpg,stim_fb/posf.jpg,stim_fb/negf.jpg,stim_03/b.jpg,stim_03/a.jpg,1,1,f,4,23,263,9,f,1,0.999694642898,03,01,60.01917025,PLT_learning_3,N,2014_Mrz_05_1816,P21,
stim_fb/ques.jpg,stim_fb/posf.jpg,stim_fb/negf.jpg,stim_03/b.jpg,stim_03/a.jpg,1,1,f,4,24,264,8,f,1,0.949739499703,03,01,60.01917025,PLT_learning_3,N,2014_Mrz_05_1816,P21,
stim_fb/ques.jpg,stim_fb/negf.jpg,stim_fb/posf.jpg,stim_03/b.jpg,stim_03/a.jpg,1,1,f,4,25,265,5,j,0,0.749791228636,03,01,60.01917025,PLT_learning_3,N,2014_Mrz_05_1816,P21,
stim_fb/ques.jpg,stim_fb/posf.jpg,stim_fb/negf.jpg,stim_03/c.jpg,stim_03/d.jpg,2,2,j,4,26,266,38,j,1,1.33294013128,03,01,60.01917025,PLT_learning_3,N,2014_Mrz_05_1816,P21,
stim_fb/ques.jpg,stim_fb/negf.jpg,stim_fb/posf.jpg,stim_03/b.jpg,stim_03/a.jpg,1,1,f,4,27,267,0,f,1,1.14968901587,03,01,60.01917025,PLT_learning_3,N,2014_Mrz_05_1816,P21,
stim_fb/ques.jpg,stim_fb/negf.jpg,stim_fb/posf.jpg,stim_03/e.jpg,stim_03/f.jpg,2,3,j,4,28,268,50,j,1,1.51622695468,03,01,60.01917025,PLT_learning_3,N,2014_Mrz_05_1816,P21,
stim_fb/ques.jpg,stim_fb/negf.jpg,stim_fb/posf.jpg,stim_03/c.jpg,stim_03/d.jpg,2,2,j,4,29,269,33,j,1,0.883113390124,03,01,60.01917025,PLT_learning_3,N,2014_Mrz_05_1816,P21,
stim_fb/ques.jpg,stim_fb/negf.jpg,stim_fb/posf.jpg,stim_03/a.jpg,stim_03/b.jpg,2,1,j,4,30,270,12,j,1,1.56617814603,03,01,60.01917025,PLT_learning_3,N,2014_Mrz_05_1816,P21,
stim_fb/ques.jpg,stim_fb/negf.jpg,stim_fb/posf.jpg,stim_03/e.jpg,stim_03/f.jpg,2,3,j,4,31,271,55,j,1,1.01638537455,03,01,60.01917025,PLT_learning_3,N,2014_Mrz_05_1816,P21,
stim_fb/ques.jpg,stim_fb/negf.jpg,stim_fb/posf.jpg,stim_03/f.jpg,stim_03/e.jpg,1,3,f,4,32,272,45,f,1,0.666490071502,03,01,60.01917025,PLT_learning_3,N,2014_Mrz_05_1816,P21,
stim_fb/ques.jpg,stim_fb/negf.jpg,stim_fb/posf.jpg,stim_03/a.jpg,stim_03/b.jpg,2,1,j,4,33,273,14,j,1,1.26627949865,03,01,60.01917025,PLT_learning_3,N,2014_Mrz_05_1816,P21,
stim_fb/ques.jpg,stim_fb/posf.jpg,stim_fb/negf.jpg,stim_03/d.jpg,stim_03/c.jpg,1,2,f,4,34,274,28,f,1,0.649849137977,03,01,60.01917025,PLT_learning_3,N,2014_Mrz_05_1816,P21,
stim_fb/ques.jpg,stim_fb/negf.jpg,stim_fb/posf.jpg,stim_03/b.jpg,stim_03/a.jpg,1,1,f,4,35,275,1,f,1,0.833089477523,03,01,60.01917025,PLT_learning_3,N,2014_Mrz_05_1816,P21,
stim_fb/ques.jpg,stim_fb/negf.jpg,stim_fb/posf.jpg,stim_03/b.jpg,stim_03/a.jpg,1,1,f,4,36,276,4,f,1,1.01639832182,03,01,60.01917025,PLT_learning_3,N,2014_Mrz_05_1816,P21,
stim_fb/ques.jpg,stim_fb/negf.jpg,stim_fb/posf.jpg,stim_03/f.jpg,stim_03/e.jpg,1,3,f,4,37,277,40,f,1,1.03302104195,03,01,60.01917025,PLT_learning_3,N,2014_Mrz_05_1816,P21,
stim_fb/ques.jpg,stim_fb/negf.jpg,stim_fb/posf.jpg,stim_03/d.jpg,stim_03/c.jpg,1,2,f,4,38,278,21,j,0,0.89971717506,03,01,60.01917025,PLT_learning_3,N,2014_Mrz_05_1816,P21,
stim_fb/ques.jpg,stim_fb/posf.jpg,stim_fb/negf.jpg,stim_03/e.jpg,stim_03/f.jpg,2,3,j,4,39,279,58,j,1,0.93308253923,03,01,60.01917025,PLT_learning_3,N,2014_Mrz_05_1816,P21,
stim_fb/ques.jpg,stim_fb/negf.jpg,stim_fb/posf.jpg,stim_03/d.jpg,stim_03/c.jpg,1,2,f,4,40,280,24,f,1,0.649789535417,03,01,60.01917025,PLT_learning_3,N,2014_Mrz_05_1816,P21,
stim_fb/ques.jpg,stim_fb/negf.jpg,stim_fb/posf.jpg,stim_03/b.jpg,stim_03/a.jpg,1,1,f,4,41,281,6,f,1,1.03299354742,03,01,60.01917025,PLT_learning_3,N,2014_Mrz_05_1816,P21,
stim_fb/ques.jpg,stim_fb/negf.jpg,stim_fb/posf.jpg,stim_03/d.jpg,stim_03/c.jpg,1,2,f,4,42,282,20,f,1,0.716487178292,03,01,60.01917025,PLT_learning_3,N,2014_Mrz_05_1816,P21,
stim_fb/ques.jpg,stim_fb/negf.jpg,stim_fb/posf.jpg,stim_03/a.jpg,stim_03/b.jpg,2,1,j,4,43,283,15,j,1,0.66646097097,03,01,60.01917025,PLT_learning_3,N,2014_Mrz_05_1816,P21,
stim_fb/ques.jpg,stim_fb/negf.jpg,stim_fb/posf.jpg,stim_03/f.jpg,stim_03/e.jpg,1,3,f,4,44,284,41,f,1,1.1996430493,03,01,60.01917025,PLT_learning_3,N,2014_Mrz_05_1816,P21,
stim_fb/ques.jpg,stim_fb/negf.jpg,stim_fb/posf.jpg,stim_03/f.jpg,stim_03/e.jpg,1,3,f,4,45,285,43,f,1,0.816465497252,03,01,60.01917025,PLT_learning_3,N,2014_Mrz_05_1816,P21,
stim_fb/ques.jpg,stim_fb/negf.jpg,stim_fb/posf.jpg,stim_03/c.jpg,stim_03/d.jpg,2,2,j,4,46,286,36,j,1,0.849767932572,03,01,60.01917025,PLT_learning_3,N,2014_Mrz_05_1816,P21,
stim_fb/ques.jpg,stim_fb/posf.jpg,stim_fb/negf.jpg,stim_03/e.jpg,stim_03/f.jpg,2,3,j,4,47,287,56,j,1,1.19965966873,03,01,60.01917025,PLT_learning_3,N,2014_Mrz_05_1816,P21,
stim_fb/ques.jpg,stim_fb/negf.jpg,stim_fb/posf.jpg,stim_03/e.jpg,stim_03/f.jpg,2,3,j,4,48,288,52,j,1,0.883107131525,03,01,60.01917025,PLT_learning_3,N,2014_Mrz_05_1816,P21,
stim_fb/ques.jpg,stim_fb/negf.jpg,stim_fb/posf.jpg,stim_03/b.jpg,stim_03/a.jpg,1,1,f,4,49,289,7,f,1,0.799835652362,03,01,60.01917025,PLT_learning_3,N,2014_Mrz_05_1816,P21,
stim_fb/ques.jpg,stim_fb/negf.jpg,stim_fb/posf.jpg,stim_03/f.jpg,stim_03/e.jpg,1,3,f,4,50,290,42,f,1,0.699870990444,03,01,60.01917025,PLT_learning_3,N,2014_Mrz_05_1816,P21,
stim_fb/ques.jpg,stim_fb/negf.jpg,stim_fb/posf.jpg,stim_03/a.jpg,stim_03/b.jpg,2,1,j,4,51,291,13,j,1,0.649913387117,03,01,60.01917025,PLT_learning_3,N,2014_Mrz_05_1816,P21,
stim_fb/ques.jpg,stim_fb/posf.jpg,stim_fb/negf.jpg,stim_03/c.jpg,stim_03/d.jpg,2,2,j,4,52,292,39,j,1,0.69981416681,03,01,60.01917025,PLT_learning_3,N,2014_Mrz_05_1816,P21,
stim_fb/ques.jpg,stim_fb/negf.jpg,stim_fb/posf.jpg,stim_03/d.jpg,stim_03/c.jpg,1,2,f,4,53,293,23,f,1,0.666495388756,03,01,60.01917025,PLT_learning_3,N,2014_Mrz_05_1816,P21,
stim_fb/ques.jpg,stim_fb/negf.jpg,stim_fb/posf.jpg,stim_03/c.jpg,stim_03/d.jpg,2,2,j,4,54,294,35,j,1,0.616499833835,03,01,60.01917025,PLT_learning_3,N,2014_Mrz_05_1816,P21,
stim_fb/ques.jpg,stim_fb/negf.jpg,stim_fb/posf.jpg,stim_03/e.jpg,stim_03/f.jpg,2,3,j,4,55,295,53,j,1,0.91639723912,03,01,60.01917025,PLT_learning_3,N,2014_Mrz_05_1816,P21,
stim_fb/ques.jpg,stim_fb/negf.jpg,stim_fb/posf.jpg,stim_03/a.jpg,stim_03/b.jpg,2,1,j,4,56,296,17,j,1,0.666477990391,03,01,60.01917025,PLT_learning_3,N,2014_Mrz_05_1816,P21,
stim_fb/ques.jpg,stim_fb/negf.jpg,stim_fb/posf.jpg,stim_03/a.jpg,stim_03/b.jpg,2,1,j,4,57,297,10,j,1,0.666498967676,03,01,60.01917025,PLT_learning_3,N,2014_Mrz_05_1816,P21,
stim_fb/ques.jpg,stim_fb/negf.jpg,stim_fb/posf.jpg,stim_03/c.jpg,stim_03/d.jpg,2,2,j,4,58,298,34,j,1,0.666451590589,03,01,60.01917025,PLT_learning_3,N,2014_Mrz_05_1816,P21,
stim_fb/ques.jpg,stim_fb/posf.jpg,stim_fb/negf.jpg,stim_03/e.jpg,stim_03/f.jpg,2,3,j,4,59,299,59,j,1,0.766430920068,03,01,60.01917025,PLT_learning_3,N,2014_Mrz_05_1816,P21,
stim_fb/ques.jpg,stim_fb/negf.jpg,stim_fb/posf.jpg,stim_03/d.jpg,stim_03/c.jpg,1,2,f,5,0,300,25,f,1,0.849776428749,03,01,60.01917025,PLT_learning_3,N,2014_Mrz_05_1816,P21,
stim_fb/ques.jpg,stim_fb/posf.jpg,stim_fb/negf.jpg,stim_03/e.jpg,stim_03/f.jpg,2,3,j,5,1,301,59,j,1,0.649834166661,03,01,60.01917025,PLT_learning_3,N,2014_Mrz_05_1816,P21,
stim_fb/ques.jpg,stim_fb/posf.jpg,stim_fb/negf.jpg,stim_03/f.jpg,stim_03/e.jpg,1,3,f,5,2,302,47,j,0,0.916411587883,03,01,60.01917025,PLT_learning_3,N,2014_Mrz_05_1816,P21,
stim_fb/ques.jpg,stim_fb/negf.jpg,stim_fb/posf.jpg,stim_03/c.jpg,stim_03/d.jpg,2,2,j,5,3,303,30,j,1,0.816417094609,03,01,60.01917025,PLT_learning_3,N,2014_Mrz_05_1816,P21,
stim_fb/ques.jpg,stim_fb/negf.jpg,stim_fb/posf.jpg,stim_03/a.jpg,stim_03/b.jpg,2,1,j,5,4,304,12,j,1,1.05001964496,03,01,60.01917025,PLT_learning_3,N,2014_Mrz_05_1816,P21,
stim_fb/ques.jpg,stim_fb/negf.jpg,stim_fb/posf.jpg,stim_03/b.jpg,stim_03/a.jpg,1,1,f,5,5,305,1,f,1,0.683159061962,03,01,60.01917025,PLT_learning_3,N,2014_Mrz_05_1816,P21,
stim_fb/ques.jpg,stim_fb/negf.jpg,stim_fb/posf.jpg,stim_03/f.jpg,stim_03/e.jpg,1,3,f,5,6,306,45,j,0,0.716490023384,03,01,60.01917025,PLT_learning_3,N,2014_Mrz_05_1816,P21,
stim_fb/ques.jpg,stim_fb/negf.jpg,stim_fb/posf.jpg,stim_03/d.jpg,stim_03/c.jpg,1,2,f,5,7,307,26,f,1,0.799800645107,03,01,60.01917025,PLT_learning_3,N,2014_Mrz_05_1816,P21,
stim_fb/ques.jpg,stim_fb/negf.jpg,stim_fb/posf.jpg,stim_03/d.jpg,stim_03/c.jpg,1,2,f,5,8,308,21,f,1,0.999723484787,03,01,60.01917025,PLT_learning_3,N,2014_Mrz_05_1816,P21,
stim_fb/ques.jpg,stim_fb/posf.jpg,stim_fb/negf.jpg,stim_03/d.jpg,stim_03/c.jpg,1,2,f,5,9,309,29,f,1,0.816409269104,03,01,60.01917025,PLT_learning_3,N,2014_Mrz_05_1816,P21,
stim_fb/ques.jpg,stim_fb/negf.jpg,stim_fb/posf.jpg,stim_03/a.jpg,stim_03/b.jpg,2,1,j,5,10,310,16,j,1,0.816463364938,03,01,60.01917025,PLT_learning_3,N,2014_Mrz_05_1816,P21,
stim_fb/ques.jpg,stim_fb/negf.jpg,stim_fb/posf.jpg,stim_03/c.jpg,stim_03/d.jpg,2,2,j,5,11,311,32,j,1,0.933057519869,03,01,60.01917025,PLT_learning_3,N,2014_Mrz_05_1816,P21,
stim_fb/ques.jpg,stim_fb/negf.jpg,stim_fb/posf.jpg,stim_03/c.jpg,stim_03/d.jpg,2,2,j,5,12,312,33,j,1,0.91645318757,03,01,60.01917025,PLT_learning_3,N,2014_Mrz_05_1816,P21,
stim_fb/ques.jpg,stim_fb/negf.jpg,stim_fb/posf.jpg,stim_03/a.jpg,stim_03/b.jpg,2,1,j,5,13,313,10,j,1,0.766476369352,03,01,60.01917025,PLT_learning_3,N,2014_Mrz_05_1816,P21,
stim_fb/ques.jpg,stim_fb/negf.jpg,stim_fb/posf.jpg,stim_03/b.jpg,stim_03/a.jpg,1,1,f,5,14,314,2,f,1,1.26633733882,03,01,60.01917025,PLT_learning_3,N,2014_Mrz_05_1816,P21,
stim_fb/ques.jpg,stim_fb/posf.jpg,stim_fb/negf.jpg,stim_03/c.jpg,stim_03/d.jpg,2,2,j,5,15,315,38,j,1,0.583193455688,03,01,60.01917025,PLT_learning_3,N,2014_Mrz_05_1816,P21,
stim_fb/ques.jpg,stim_fb/negf.jpg,stim_fb/posf.jpg,stim_03/d.jpg,stim_03/c.jpg,1,2,f,5,16,316,23,f,1,0.816446937992,03,01,60.01917025,PLT_learning_3,N,2014_Mrz_05_1816,P21,
stim_fb/ques.jpg,stim_fb/posf.jpg,stim_fb/negf.jpg,stim_03/a.jpg,stim_03/b.jpg,2,1,j,5,17,317,18,j,1,0.54982207051,03,01,60.01917025,PLT_learning_3,N,2014_Mrz_05_1816,P21,
stim_fb/ques.jpg,stim_fb/posf.jpg,stim_fb/negf.jpg,stim_03/f.jpg,stim_03/e.jpg,1,3,f,5,18,318,46,f,1,0.799739914737,03,01,60.01917025,PLT_learning_3,N,2014_Mrz_05_1816,P21,
stim_fb/ques.jpg,stim_fb/posf.jpg,stim_fb/negf.jpg,stim_03/c.jpg,stim_03/d.jpg,2,2,j,5,19,319,39,j,1,0.566513725462,03,01,60.01917025,PLT_learning_3,N,2014_Mrz_05_1816,P21,
stim_fb/ques.jpg,stim_fb/posf.jpg,stim_fb/negf.jpg,stim_03/d.jpg,stim_03/c.jpg,1,2,f,5,20,320,28,f,1,0.749800422554,03,01,60.01917025,PLT_learning_3,N,2014_Mrz_05_1816,P21,
stim_fb/ques.jpg,stim_fb/posf.jpg,stim_fb/negf.jpg,stim_03/b.jpg,stim_03/a.jpg,1,1,f,5,21,321,8,f,1,0.816451927429,03,01,60.01917025,PLT_learning_3,N,2014_Mrz_05_1816,P21,
stim_fb/ques.jpg,stim_fb/negf.jpg,stim_fb/posf.jpg,stim_03/b.jpg,stim_03/a.jpg,1,1,f,5,22,322,7,j,0,1.01640442704,03,01,60.01917025,PLT_learning_3,N,2014_Mrz_05_1816,P21,
stim_fb/ques.jpg,stim_fb/negf.jpg,stim_fb/posf.jpg,stim_03/a.jpg,stim_03/b.jpg,2,1,j,5,23,323,17,j,1,0.699822711107,03,01,60.01917025,PLT_learning_3,N,2014_Mrz_05_1816,P21,
stim_fb/ques.jpg,stim_fb/negf.jpg,stim_fb/posf.jpg,stim_03/b.jpg,stim_03/a.jpg,1,1,f,5,24,324,6,j,0,0.716480426461,03,01,60.01917025,PLT_learning_3,N,2014_Mrz_05_1816,P21,
stim_fb/ques.jpg,stim_fb/negf.jpg,stim_fb/posf.jpg,stim_03/c.jpg,stim_03/d.jpg,2,2,j,5,25,325,34,j,1,0.866436086946,03,01,60.01917025,PLT_learning_3,N,2014_Mrz_05_1816,P21,
stim_fb/ques.jpg,stim_fb/negf.jpg,stim_fb/posf.jpg,stim_03/b.jpg,stim_03/a.jpg,1,1,f,5,26,326,0,f,1,0.816446892881,03,01,60.01917025,PLT_learning_3,N,2014_Mrz_05_1816,P21,
stim_fb/ques.jpg,stim_fb/negf.jpg,stim_fb/posf.jpg,stim_03/f.jpg,stim_03/e.jpg,1,3,f,5,27,327,41,j,0,0.816394965452,03,01,60.01917025,PLT_learning_3,N,2014_Mrz_05_1816,P21,
stim_fb/ques.jpg,stim_fb/posf.jpg,stim_fb/negf.jpg,stim_03/c.jpg,stim_03/d.jpg,2,2,j,5,28,328,37,j,1,1.33295706649,03,01,60.01917025,PLT_learning_3,N,2014_Mrz_05_1816,P21,
stim_fb/ques.jpg,stim_fb/posf.jpg,stim_fb/negf.jpg,stim_03/a.jpg,stim_03/b.jpg,2,1,j,5,29,329,19,j,1,0.949751400365,03,01,60.01917025,PLT_learning_3,N,2014_Mrz_05_1816,P21,
stim_fb/ques.jpg,stim_fb/negf.jpg,stim_fb/posf.jpg,stim_03/e.jpg,stim_03/f.jpg,2,3,j,5,30,330,55,j,1,0.933078385877,03,01,60.01917025,PLT_learning_3,N,2014_Mrz_05_1816,P21,
stim_fb/ques.jpg,stim_fb/negf.jpg,stim_fb/posf.jpg,stim_03/f.jpg,stim_03/e.jpg,1,3,f,5,31,331,42,f,1,1.19967794829,03,01,60.01917025,PLT_learning_3,N,2014_Mrz_05_1816,P21,
stim_fb/ques.jpg,stim_fb/posf.jpg,stim_fb/negf.jpg,stim_03/e.jpg,stim_03/f.jpg,2,3,j,5,32,332,56,j,1,0.833083336216,03,01,60.01917025,PLT_learning_3,N,2014_Mrz_05_1816,P21,
stim_fb/ques.jpg,stim_fb/negf.jpg,stim_fb/posf.jpg,stim_03/a.jpg,stim_03/b.jpg,2,1,j,5,33,333,15,j,1,1.13303045842,03,01,60.01917025,PLT_learning_3,N,2014_Mrz_05_1816,P21,
stim_fb/ques.jpg,stim_fb/negf.jpg,stim_fb/posf.jpg,stim_03/d.jpg,stim_03/c.jpg,1,2,f,5,34,334,24,f,1,0.649825438906,03,01,60.01917025,PLT_learning_3,N,2014_Mrz_05_1816,P21,
stim_fb/ques.jpg,stim_fb/negf.jpg,stim_fb/posf.jpg,stim_03/b.jpg,stim_03/a.jpg,1,1,f,5,35,335,3,f,1,0.816401867656,03,01,60.01917025,PLT_learning_3,N,2014_Mrz_05_1816,P21,
stim_fb/ques.jpg,stim_fb/negf.jpg,stim_fb/posf.jpg,stim_03/f.jpg,stim_03/e.jpg,1,3,f,5,36,336,44,f,1,0.716451680815,03,01,60.01917025,PLT_learning_3,N,2014_Mrz_05_1816,P21,
stim_fb/ques.jpg,stim_fb/negf.jpg,stim_fb/posf.jpg,stim_03/f.jpg,stim_03/e.jpg,1,3,f,5,37,337,40,f,1,0.616521159991,03,01,60.01917025,PLT_learning_3,N,2014_Mrz_05_1816,P21,
stim_fb/ques.jpg,stim_fb/negf.jpg,stim_fb/posf.jpg,stim_03/c.jpg,stim_03/d.jpg,2,2,j,5,38,338,35,j,1,0.833120743453,03,01,60.01917025,PLT_learning_3,N,2014_Mrz_05_1816,P21,
stim_fb/ques.jpg,stim_fb/negf.jpg,stim_fb/posf.jpg,stim_03/c.jpg,stim_03/d.jpg,2,2,j,5,39,339,36,j,1,0.833101892467,03,01,60.01917025,PLT_learning_3,N,2014_Mrz_05_1816,P21,
stim_fb/ques.jpg,stim_fb/posf.jpg,stim_fb/negf.jpg,stim_03/e.jpg,stim_03/f.jpg,2,3,j,5,40,340,58,j,1,0.683140632025,03,01,60.01917025,PLT_learning_3,N,2014_Mrz_05_1816,P21,
stim_fb/ques.jpg,stim_fb/negf.jpg,stim_fb/posf.jpg,stim_03/e.jpg,stim_03/f.jpg,2,3,j,5,41,341,53,j,1,0.749820539695,03,01,60.01917025,PLT_learning_3,N,2014_Mrz_05_1816,P21,
stim_fb/ques.jpg,stim_fb/negf.jpg,stim_fb/posf.jpg,stim_03/f.jpg,stim_03/e.jpg,1,3,f,5,42,342,43,f,1,0.766471310742,03,01,60.01917025,PLT_learning_3,N,2014_Mrz_05_1816,P21,
stim_fb/ques.jpg,stim_fb/posf.jpg,stim_fb/negf.jpg,stim_03/f.jpg,stim_03/e.jpg,1,3,f,5,43,343,49,f,1,0.716476781377,03,01,60.01917025,PLT_learning_3,N,2014_Mrz_05_1816,P21,
stim_fb/ques.jpg,stim_fb/negf.jpg,stim_fb/posf.jpg,stim_03/e.jpg,stim_03/f.jpg,2,3,j,5,44,344,51,j,1,1.19964052,03,01,60.01917025,PLT_learning_3,N,2014_Mrz_05_1816,P21,
stim_fb/ques.jpg,stim_fb/negf.jpg,stim_fb/posf.jpg,stim_03/b.jpg,stim_03/a.jpg,1,1,f,5,45,345,4,f,1,0.866422114119,03,01,60.01917025,PLT_learning_3,N,2014_Mrz_05_1816,P21,
stim_fb/ques.jpg,stim_fb/posf.jpg,stim_fb/negf.jpg,stim_03/f.jpg,stim_03/e.jpg,1,3,f,5,46,346,48,f,1,0.816446757544,03,01,60.01917025,PLT_learning_3,N,2014_Mrz_05_1816,P21,
stim_fb/ques.jpg,stim_fb/posf.jpg,stim_fb/negf.jpg,stim_03/e.jpg,stim_03/f.jpg,2,3,j,5,47,347,57,j,1,0.799786894835,03,01,60.01917025,PLT_learning_3,N,2014_Mrz_05_1816,P21,
stim_fb/ques.jpg,stim_fb/posf.jpg,stim_fb/negf.jpg,stim_03/b.jpg,stim_03/a.jpg,1,1,f,5,48,348,9,f,1,0.799780353531,03,01,60.01917025,PLT_learning_3,N,2014_Mrz_05_1816,P21,
stim_fb/ques.jpg,stim_fb/negf.jpg,stim_fb/posf.jpg,stim_03/d.jpg,stim_03/c.jpg,1,2,f,5,49,349,20,j,0,0.816437310998,03,01,60.01917025,PLT_learning_3,N,2014_Mrz_05_1816,P21,
stim_fb/ques.jpg,stim_fb/negf.jpg,stim_fb/posf.jpg,stim_03/a.jpg,stim_03/b.jpg,2,1,j,5,50,350,13,f,0,0.849767860391,03,01,60.01917025,PLT_learning_3,N,2014_Mrz_05_1816,P21,
stim_fb/ques.jpg,stim_fb/negf.jpg,stim_fb/posf.jpg,stim_03/e.jpg,stim_03/f.jpg,2,3,j,5,51,351,50,f,0,0.816437238818,03,01,60.01917025,PLT_learning_3,N,2014_Mrz_05_1816,P21,
stim_fb/ques.jpg,stim_fb/negf.jpg,stim_fb/posf.jpg,stim_03/c.jpg,stim_03/d.jpg,2,2,j,5,52,352,31,j,1,0.549859083767,03,01,60.01917025,PLT_learning_3,N,2014_Mrz_05_1816,P21,
stim_fb/ques.jpg,stim_fb/posf.jpg,stim_fb/negf.jpg,stim_03/d.jpg,stim_03/c.jpg,1,2,f,5,53,353,27,f,1,0.883057940917,03,01,60.01917025,PLT_learning_3,N,2014_Mrz_05_1816,P21,
stim_fb/ques.jpg,stim_fb/negf.jpg,stim_fb/posf.jpg,stim_03/a.jpg,stim_03/b.jpg,2,1,j,5,54,354,14,j,1,1.23299034744,03,01,60.01917025,PLT_learning_3,N,2014_Mrz_05_1816,P21,
stim_fb/ques.jpg,stim_fb/negf.jpg,stim_fb/posf.jpg,stim_03/e.jpg,stim_03/f.jpg,2,3,j,5,55,355,52,j,1,1.14868755273,03,01,60.01917025,PLT_learning_3,N,2014_Mrz_05_1816,P21,
stim_fb/ques.jpg,stim_fb/negf.jpg,stim_fb/posf.jpg,stim_03/b.jpg,stim_03/a.jpg,1,1,f,5,56,356,5,None,0,,03,01,60.01917025,PLT_learning_3,N,2014_Mrz_05_1816,P21,
stim_fb/ques.jpg,stim_fb/negf.jpg,stim_fb/posf.jpg,stim_03/d.jpg,stim_03/c.jpg,1,2,f,5,57,357,22,f,1,0.999699593236,03,01,60.01917025,PLT_learning_3,N,2014_Mrz_05_1816,P21,
stim_fb/ques.jpg,stim_fb/negf.jpg,stim_fb/posf.jpg,stim_03/e.jpg,stim_03/f.jpg,2,3,j,5,58,358,54,j,1,0.916371010744,03,01,60.01917025,PLT_learning_3,N,2014_Mrz_05_1816,P21,
stim_fb/ques.jpg,stim_fb/negf.jpg,stim_fb/posf.jpg,stim_03/a.jpg,stim_03/b.jpg,2,1,j,5,59,359,11,j,1,0.733142595922,03,01,60.01917025,PLT_learning_3,N,2014_Mrz_05_1816,P21,
