Fb3,Fb2,Fb1,Symbol2,Symbol1,PosCond,Pair,Correct,trials.thisRepN,trials.thisTrialN,trials.thisN,trials.thisIndex,Response.keys,Response.corr,Response.rt,Version,Session Number,frameRate,expName,StimCondition,date,Participant,
stim_fb/ques.jpg,stim_fb/posf.jpg,stim_fb/negf.jpg,stim_03/e.jpg,stim_03/f.jpg,2,3,j,0,0,0,56,None,0,,03,01,60.0197317377,PLT_learning_3,N,2014_Mrz_07_1338,P22,
stim_fb/ques.jpg,stim_fb/negf.jpg,stim_fb/posf.jpg,stim_03/d.jpg,stim_03/c.jpg,1,2,f,0,1,1,23,f,1,0.866471193181,03,01,60.0197317377,PLT_learning_3,N,2014_Mrz_07_1338,P22,
stim_fb/ques.jpg,stim_fb/posf.jpg,stim_fb/negf.jpg,stim_03/f.jpg,stim_03/e.jpg,1,3,f,0,2,2,49,f,1,1.09965449713,03,01,60.0197317377,PLT_learning_3,N,2014_Mrz_07_1338,P22,
stim_fb/ques.jpg,stim_fb/negf.jpg,stim_fb/posf.jpg,stim_03/a.jpg,stim_03/b.jpg,2,1,j,0,3,3,14,j,1,1.3329343263,03,01,60.0197317377,PLT_learning_3,N,2014_Mrz_07_1338,P22,
stim_fb/ques.jpg,stim_fb/posf.jpg,stim_fb/negf.jpg,stim_03/b.jpg,stim_03/a.jpg,1,1,f,0,4,4,8,f,1,0.983067060146,03,01,60.0197317377,PLT_learning_3,N,2014_Mrz_07_1338,P22,
stim_fb/ques.jpg,stim_fb/negf.jpg,stim_fb/posf.jpg,stim_03/f.jpg,stim_03/e.jpg,1,3,f,0,5,5,45,f,1,1.36627023003,03,01,60.0197317377,PLT_learning_3,N,2014_Mrz_07_1338,P22,
stim_fb/ques.jpg,stim_fb/negf.jpg,stim_fb/posf.jpg,stim_03/b.jpg,stim_03/a.jpg,1,1,f,0,6,6,3,j,0,1.41645753168,03,01,60.0197317377,PLT_learning_3,N,2014_Mrz_07_1338,P22,
stim_fb/ques.jpg,stim_fb/posf.jpg,stim_fb/negf.jpg,stim_03/c.jpg,stim_03/d.jpg,2,2,j,0,7,7,38,j,1,1.33295163438,03,01,60.0197317377,PLT_learning_3,N,2014_Mrz_07_1338,P22,
stim_fb/ques.jpg,stim_fb/negf.jpg,stim_fb/posf.jpg,stim_03/f.jpg,stim_03/e.jpg,1,3,f,0,8,8,42,f,1,1.53287201723,03,01,60.0197317377,PLT_learning_3,N,2014_Mrz_07_1338,P22,
stim_fb/ques.jpg,stim_fb/posf.jpg,stim_fb/negf.jpg,stim_03/f.jpg,stim_03/e.jpg,1,3,f,0,9,9,46,f,1,1.44967582471,03,01,60.0197317377,PLT_learning_3,N,2014_Mrz_07_1338,P22,
stim_fb/ques.jpg,stim_fb/negf.jpg,stim_fb/posf.jpg,stim_03/d.jpg,stim_03/c.jpg,1,2,f,0,10,10,20,None,0,,03,01,60.0197317377,PLT_learning_3,N,2014_Mrz_07_1338,P22,
stim_fb/ques.jpg,stim_fb/negf.jpg,stim_fb/posf.jpg,stim_03/c.jpg,stim_03/d.jpg,2,2,j,0,11,11,35,f,0,1.28297044169,03,01,60.0197317377,PLT_learning_3,N,2014_Mrz_07_1338,P22,
stim_fb/ques.jpg,stim_fb/negf.jpg,stim_fb/posf.jpg,stim_03/c.jpg,stim_03/d.jpg,2,2,j,0,12,12,36,None,0,,03,01,60.0197317377,PLT_learning_3,N,2014_Mrz_07_1338,P22,
stim_fb/ques.jpg,stim_fb/negf.jpg,stim_fb/posf.jpg,stim_03/a.jpg,stim_03/b.jpg,2,1,j,0,13,13,11,j,1,1.21629643576,03,01,60.0197317377,PLT_learning_3,N,2014_Mrz_07_1338,P22,
stim_fb/ques.jpg,stim_fb/negf.jpg,stim_fb/posf.jpg,stim_03/e.jpg,stim_03/f.jpg,2,3,j,0,14,14,50,f,0,1.58283917399,03,01,60.0197317377,PLT_learning_3,N,2014_Mrz_07_1338,P22,
stim_fb/ques.jpg,stim_fb/negf.jpg,stim_fb/posf.jpg,stim_03/b.jpg,stim_03/a.jpg,1,1,f,0,15,15,4,f,1,0.966404953328,03,01,60.0197317377,PLT_learning_3,N,2014_Mrz_07_1338,P22,
stim_fb/ques.jpg,stim_fb/negf.jpg,stim_fb/posf.jpg,stim_03/a.jpg,stim_03/b.jpg,2,1,j,0,16,16,12,f,0,1.18299248054,03,01,60.0197317377,PLT_learning_3,N,2014_Mrz_07_1338,P22,
stim_fb/ques.jpg,stim_fb/negf.jpg,stim_fb/posf.jpg,stim_03/e.jpg,stim_03/f.jpg,2,3,j,0,17,17,53,j,1,1.1830056864,03,01,60.0197317377,PLT_learning_3,N,2014_Mrz_07_1338,P22,
stim_fb/ques.jpg,stim_fb/negf.jpg,stim_fb/posf.jpg,stim_03/c.jpg,stim_03/d.jpg,2,2,j,0,18,18,30,f,0,1.4662334906,03,01,60.0197317377,PLT_learning_3,N,2014_Mrz_07_1338,P22,
stim_fb/ques.jpg,stim_fb/posf.jpg,stim_fb/negf.jpg,stim_03/f.jpg,stim_03/e.jpg,1,3,f,0,19,19,47,None,0,,03,01,60.0197317377,PLT_learning_3,N,2014_Mrz_07_1338,P22,
stim_fb/ques.jpg,stim_fb/negf.jpg,stim_fb/posf.jpg,stim_03/f.jpg,stim_03/e.jpg,1,3,f,0,20,20,44,f,1,0.749791486562,03,01,60.0197317377,PLT_learning_3,N,2014_Mrz_07_1338,P22,
stim_fb/ques.jpg,stim_fb/negf.jpg,stim_fb/posf.jpg,stim_03/f.jpg,stim_03/e.jpg,1,3,f,0,21,21,41,f,1,0.583193600072,03,01,60.0197317377,PLT_learning_3,N,2014_Mrz_07_1338,P22,
stim_fb/ques.jpg,stim_fb/negf.jpg,stim_fb/posf.jpg,stim_03/b.jpg,stim_03/a.jpg,1,1,f,0,22,22,5,f,1,1.36624947237,03,01,60.0197317377,PLT_learning_3,N,2014_Mrz_07_1338,P22,
stim_fb/ques.jpg,stim_fb/negf.jpg,stim_fb/posf.jpg,stim_03/a.jpg,stim_03/b.jpg,2,1,j,0,23,23,13,j,1,1.34957306196,03,01,60.0197317377,PLT_learning_3,N,2014_Mrz_07_1338,P22,
stim_fb/ques.jpg,stim_fb/negf.jpg,stim_fb/posf.jpg,stim_03/e.jpg,stim_03/f.jpg,2,3,j,0,24,24,54,j,1,1.51621245174,03,01,60.0197317377,PLT_learning_3,N,2014_Mrz_07_1338,P22,
stim_fb/ques.jpg,stim_fb/negf.jpg,stim_fb/posf.jpg,stim_03/a.jpg,stim_03/b.jpg,2,1,j,0,25,25,16,j,1,0.916411390848,03,01,60.0197317377,PLT_learning_3,N,2014_Mrz_07_1338,P22,
stim_fb/ques.jpg,stim_fb/posf.jpg,stim_fb/negf.jpg,stim_03/e.jpg,stim_03/f.jpg,2,3,j,0,26,26,57,j,1,1.38289997331,03,01,60.0197317377,PLT_learning_3,N,2014_Mrz_07_1338,P22,
stim_fb/ques.jpg,stim_fb/negf.jpg,stim_fb/posf.jpg,stim_03/d.jpg,stim_03/c.jpg,1,2,f,0,27,27,21,f,1,1.51620808788,03,01,60.0197317377,PLT_learning_3,N,2014_Mrz_07_1338,P22,
stim_fb/ques.jpg,stim_fb/negf.jpg,stim_fb/posf.jpg,stim_03/f.jpg,stim_03/e.jpg,1,3,f,0,28,28,43,f,1,0.933097716943,03,01,60.0197317377,PLT_learning_3,N,2014_Mrz_07_1338,P22,
stim_fb/ques.jpg,stim_fb/negf.jpg,stim_fb/posf.jpg,stim_03/e.jpg,stim_03/f.jpg,2,3,j,0,29,29,55,j,1,0.649838409341,03,01,60.0197317377,PLT_learning_3,N,2014_Mrz_07_1338,P22,
stim_fb/ques.jpg,stim_fb/negf.jpg,stim_fb/posf.jpg,stim_03/b.jpg,stim_03/a.jpg,1,1,f,0,30,30,0,f,1,0.966375212309,03,01,60.0197317377,PLT_learning_3,N,2014_Mrz_07_1338,P22,
stim_fb/ques.jpg,stim_fb/posf.jpg,stim_fb/negf.jpg,stim_03/d.jpg,stim_03/c.jpg,1,2,f,0,31,31,28,f,1,1.31632494972,03,01,60.0197317377,PLT_learning_3,N,2014_Mrz_07_1338,P22,
stim_fb/ques.jpg,stim_fb/negf.jpg,stim_fb/posf.jpg,stim_03/a.jpg,stim_03/b.jpg,2,1,j,0,32,32,17,j,1,0.849741887121,03,01,60.0197317377,PLT_learning_3,N,2014_Mrz_07_1338,P22,
stim_fb/ques.jpg,stim_fb/posf.jpg,stim_fb/negf.jpg,stim_03/c.jpg,stim_03/d.jpg,2,2,j,0,33,33,37,f,0,1.34959148581,03,01,60.0197317377,PLT_learning_3,N,2014_Mrz_07_1338,P22,
stim_fb/ques.jpg,stim_fb/negf.jpg,stim_fb/posf.jpg,stim_03/e.jpg,stim_03/f.jpg,2,3,j,0,34,34,52,j,1,1.01635697642,03,01,60.0197317377,PLT_learning_3,N,2014_Mrz_07_1338,P22,
stim_fb/ques.jpg,stim_fb/posf.jpg,stim_fb/negf.jpg,stim_03/d.jpg,stim_03/c.jpg,1,2,f,0,35,35,27,j,0,1.29949545832,03,01,60.0197317377,PLT_learning_3,N,2014_Mrz_07_1338,P22,
stim_fb/ques.jpg,stim_fb/negf.jpg,stim_fb/posf.jpg,stim_03/a.jpg,stim_03/b.jpg,2,1,j,0,36,36,10,j,1,1.08302315688,03,01,60.0197317377,PLT_learning_3,N,2014_Mrz_07_1338,P22,
stim_fb/ques.jpg,stim_fb/negf.jpg,stim_fb/posf.jpg,stim_03/c.jpg,stim_03/d.jpg,2,2,j,0,37,37,32,f,0,1.09967443074,03,01,60.0197317377,PLT_learning_3,N,2014_Mrz_07_1338,P22,
stim_fb/ques.jpg,stim_fb/posf.jpg,stim_fb/negf.jpg,stim_03/e.jpg,stim_03/f.jpg,2,3,j,0,38,38,58,j,1,0.799678860765,03,01,60.0197317377,PLT_learning_3,N,2014_Mrz_07_1338,P22,
stim_fb/ques.jpg,stim_fb/posf.jpg,stim_fb/negf.jpg,stim_03/e.jpg,stim_03/f.jpg,2,3,j,0,39,39,59,f,0,1.23297989571,03,01,60.0197317377,PLT_learning_3,N,2014_Mrz_07_1338,P22,
stim_fb/ques.jpg,stim_fb/posf.jpg,stim_fb/negf.jpg,stim_03/c.jpg,stim_03/d.jpg,2,2,j,0,40,40,39,j,1,1.41624528445,03,01,60.0197317377,PLT_learning_3,N,2014_Mrz_07_1338,P22,
stim_fb/ques.jpg,stim_fb/posf.jpg,stim_fb/negf.jpg,stim_03/d.jpg,stim_03/c.jpg,1,2,f,0,41,41,29,None,0,,03,01,60.0197317377,PLT_learning_3,N,2014_Mrz_07_1338,P22,
stim_fb/ques.jpg,stim_fb/negf.jpg,stim_fb/posf.jpg,stim_03/c.jpg,stim_03/d.jpg,2,2,j,0,42,42,33,f,0,1.01638087691,03,01,60.0197317377,PLT_learning_3,N,2014_Mrz_07_1338,P22,
stim_fb/ques.jpg,stim_fb/negf.jpg,stim_fb/posf.jpg,stim_03/f.jpg,stim_03/e.jpg,1,3,f,0,43,43,40,f,1,0.999728078254,03,01,60.0197317377,PLT_learning_3,N,2014_Mrz_07_1338,P22,
stim_fb/ques.jpg,stim_fb/posf.jpg,stim_fb/negf.jpg,stim_03/b.jpg,stim_03/a.jpg,1,1,f,0,44,44,9,f,1,0.816442578467,03,01,60.0197317377,PLT_learning_3,N,2014_Mrz_07_1338,P22,
stim_fb/ques.jpg,stim_fb/negf.jpg,stim_fb/posf.jpg,stim_03/a.jpg,stim_03/b.jpg,2,1,j,0,45,45,15,j,1,0.916402404486,03,01,60.0197317377,PLT_learning_3,N,2014_Mrz_07_1338,P22,
stim_fb/ques.jpg,stim_fb/posf.jpg,stim_fb/negf.jpg,stim_03/a.jpg,stim_03/b.jpg,2,1,j,0,46,46,18,j,1,0.866447250595,03,01,60.0197317377,PLT_learning_3,N,2014_Mrz_07_1338,P22,
stim_fb/ques.jpg,stim_fb/negf.jpg,stim_fb/posf.jpg,stim_03/c.jpg,stim_03/d.jpg,2,2,j,0,47,47,31,f,0,1.59951950617,03,01,60.0197317377,PLT_learning_3,N,2014_Mrz_07_1338,P22,
stim_fb/ques.jpg,stim_fb/negf.jpg,stim_fb/posf.jpg,stim_03/d.jpg,stim_03/c.jpg,1,2,f,0,48,48,26,j,0,1.56619673312,03,01,60.0197317377,PLT_learning_3,N,2014_Mrz_07_1338,P22,
stim_fb/ques.jpg,stim_fb/posf.jpg,stim_fb/negf.jpg,stim_03/a.jpg,stim_03/b.jpg,2,1,j,0,49,49,19,j,1,0.933055837717,03,01,60.0197317377,PLT_learning_3,N,2014_Mrz_07_1338,P22,
stim_fb/ques.jpg,stim_fb/negf.jpg,stim_fb/posf.jpg,stim_03/b.jpg,stim_03/a.jpg,1,1,f,0,50,50,7,j,0,1.23298086713,03,01,60.0197317377,PLT_learning_3,N,2014_Mrz_07_1338,P22,
stim_fb/ques.jpg,stim_fb/negf.jpg,stim_fb/posf.jpg,stim_03/b.jpg,stim_03/a.jpg,1,1,f,0,51,51,1,f,1,1.41624782879,03,01,60.0197317377,PLT_learning_3,N,2014_Mrz_07_1338,P22,
stim_fb/ques.jpg,stim_fb/negf.jpg,stim_fb/posf.jpg,stim_03/c.jpg,stim_03/d.jpg,2,2,j,0,52,52,34,f,0,1.2163112807,03,01,60.0197317377,PLT_learning_3,N,2014_Mrz_07_1338,P22,
stim_fb/ques.jpg,stim_fb/negf.jpg,stim_fb/posf.jpg,stim_03/b.jpg,stim_03/a.jpg,1,1,f,0,53,53,6,f,1,0.916367601869,03,01,60.0197317377,PLT_learning_3,N,2014_Mrz_07_1338,P22,
stim_fb/ques.jpg,stim_fb/posf.jpg,stim_fb/negf.jpg,stim_03/f.jpg,stim_03/e.jpg,1,3,f,0,54,54,48,f,1,0.883084010331,03,01,60.0197317377,PLT_learning_3,N,2014_Mrz_07_1338,P22,
stim_fb/ques.jpg,stim_fb/negf.jpg,stim_fb/posf.jpg,stim_03/d.jpg,stim_03/c.jpg,1,2,f,0,55,55,25,None,0,,03,01,60.0197317377,PLT_learning_3,N,2014_Mrz_07_1338,P22,
stim_fb/ques.jpg,stim_fb/negf.jpg,stim_fb/posf.jpg,stim_03/e.jpg,stim_03/f.jpg,2,3,j,0,56,56,51,f,0,0.949737472134,03,01,60.0197317377,PLT_learning_3,N,2014_Mrz_07_1338,P22,
stim_fb/ques.jpg,stim_fb/negf.jpg,stim_fb/posf.jpg,stim_03/d.jpg,stim_03/c.jpg,1,2,f,0,57,57,22,j,0,1.04968627873,03,01,60.0197317377,PLT_learning_3,N,2014_Mrz_07_1338,P22,
stim_fb/ques.jpg,stim_fb/negf.jpg,stim_fb/posf.jpg,stim_03/d.jpg,stim_03/c.jpg,1,2,f,0,58,58,24,f,1,1.64951130025,03,01,60.0197317377,PLT_learning_3,N,2014_Mrz_07_1338,P22,
stim_fb/ques.jpg,stim_fb/negf.jpg,stim_fb/posf.jpg,stim_03/b.jpg,stim_03/a.jpg,1,1,f,0,59,59,2,f,1,1.08301611636,03,01,60.0197317377,PLT_learning_3,N,2014_Mrz_07_1338,P22,
stim_fb/ques.jpg,stim_fb/posf.jpg,stim_fb/negf.jpg,stim_03/d.jpg,stim_03/c.jpg,1,2,f,1,0,60,27,f,1,1.04970243494,03,01,60.0197317377,PLT_learning_3,N,2014_Mrz_07_1338,P22,
stim_fb/ques.jpg,stim_fb/posf.jpg,stim_fb/negf.jpg,stim_03/e.jpg,stim_03/f.jpg,2,3,j,1,1,61,57,j,1,0.983055243738,03,01,60.0197317377,PLT_learning_3,N,2014_Mrz_07_1338,P22,
stim_fb/ques.jpg,stim_fb/negf.jpg,stim_fb/posf.jpg,stim_03/f.jpg,stim_03/e.jpg,1,3,f,1,2,62,42,j,0,0.983063388006,03,01,60.0197317377,PLT_learning_3,N,2014_Mrz_07_1338,P22,
stim_fb/ques.jpg,stim_fb/posf.jpg,stim_fb/negf.jpg,stim_03/d.jpg,stim_03/c.jpg,1,2,f,1,3,63,28,j,0,1.16631367315,03,01,60.0197317377,PLT_learning_3,N,2014_Mrz_07_1338,P22,
stim_fb/ques.jpg,stim_fb/negf.jpg,stim_fb/posf.jpg,stim_03/c.jpg,stim_03/d.jpg,2,2,j,1,4,64,35,f,0,1.41623522141,03,01,60.0197317377,PLT_learning_3,N,2014_Mrz_07_1338,P22,
stim_fb/ques.jpg,stim_fb/negf.jpg,stim_fb/posf.jpg,stim_03/c.jpg,stim_03/d.jpg,2,2,j,1,5,65,31,j,1,0.883097661304,03,01,60.0197317377,PLT_learning_3,N,2014_Mrz_07_1338,P22,
stim_fb/ques.jpg,stim_fb/posf.jpg,stim_fb/negf.jpg,stim_03/c.jpg,stim_03/d.jpg,2,2,j,1,6,66,39,f,0,1.03304417168,03,01,60.0197317377,PLT_learning_3,N,2014_Mrz_07_1338,P22,
stim_fb/ques.jpg,stim_fb/negf.jpg,stim_fb/posf.jpg,stim_03/e.jpg,stim_03/f.jpg,2,3,j,1,7,67,50,j,1,1.19966053315,03,01,60.0197317377,PLT_learning_3,N,2014_Mrz_07_1338,P22,
stim_fb/ques.jpg,stim_fb/negf.jpg,stim_fb/posf.jpg,stim_03/a.jpg,stim_03/b.jpg,2,1,j,1,8,68,14,j,1,1.08302608316,03,01,60.0197317377,PLT_learning_3,N,2014_Mrz_07_1338,P22,
stim_fb/ques.jpg,stim_fb/negf.jpg,stim_fb/posf.jpg,stim_03/a.jpg,stim_03/b.jpg,2,1,j,1,9,69,17,j,1,1.18296086886,03,01,60.0197317377,PLT_learning_3,N,2014_Mrz_07_1338,P22,
stim_fb/ques.jpg,stim_fb/negf.jpg,stim_fb/posf.jpg,stim_03/f.jpg,stim_03/e.jpg,1,3,f,1,10,70,41,f,1,1.11633746988,03,01,60.0197317377,PLT_learning_3,N,2014_Mrz_07_1338,P22,
stim_fb/ques.jpg,stim_fb/negf.jpg,stim_fb/posf.jpg,stim_03/e.jpg,stim_03/f.jpg,2,3,j,1,11,71,52,f,0,1.43291626936,03,01,60.0197317377,PLT_learning_3,N,2014_Mrz_07_1338,P22,
stim_fb/ques.jpg,stim_fb/negf.jpg,stim_fb/posf.jpg,stim_03/e.jpg,stim_03/f.jpg,2,3,j,1,12,72,54,j,1,0.866398171449,03,01,60.0197317377,PLT_learning_3,N,2014_Mrz_07_1338,P22,
stim_fb/ques.jpg,stim_fb/negf.jpg,stim_fb/posf.jpg,stim_03/d.jpg,stim_03/c.jpg,1,2,f,1,13,73,26,j,0,1.09967332699,03,01,60.0197317377,PLT_learning_3,N,2014_Mrz_07_1338,P22,
stim_fb/ques.jpg,stim_fb/negf.jpg,stim_fb/posf.jpg,stim_03/f.jpg,stim_03/e.jpg,1,3,f,1,14,74,43,f,1,1.28294331117,03,01,60.0197317377,PLT_learning_3,N,2014_Mrz_07_1338,P22,
stim_fb/ques.jpg,stim_fb/negf.jpg,stim_fb/posf.jpg,stim_03/a.jpg,stim_03/b.jpg,2,1,j,1,15,75,11,j,1,0.916408966816,03,01,60.0197317377,PLT_learning_3,N,2014_Mrz_07_1338,P22,
stim_fb/ques.jpg,stim_fb/negf.jpg,stim_fb/posf.jpg,stim_03/d.jpg,stim_03/c.jpg,1,2,f,1,16,76,22,j,0,1.08303434773,03,01,60.0197317377,PLT_learning_3,N,2014_Mrz_07_1338,P22,
stim_fb/ques.jpg,stim_fb/posf.jpg,stim_fb/negf.jpg,stim_03/f.jpg,stim_03/e.jpg,1,3,f,1,17,77,46,f,1,0.816441098785,03,01,60.0197317377,PLT_learning_3,N,2014_Mrz_07_1338,P22,
stim_fb/ques.jpg,stim_fb/posf.jpg,stim_fb/negf.jpg,stim_03/e.jpg,stim_03/f.jpg,2,3,j,1,18,78,56,j,1,0.866423930556,03,01,60.0197317377,PLT_learning_3,N,2014_Mrz_07_1338,P22,
stim_fb/ques.jpg,stim_fb/posf.jpg,stim_fb/negf.jpg,stim_03/b.jpg,stim_03/a.jpg,1,1,f,1,19,79,8,f,1,1.11634168036,03,01,60.0197317377,PLT_learning_3,N,2014_Mrz_07_1338,P22,
stim_fb/ques.jpg,stim_fb/negf.jpg,stim_fb/posf.jpg,stim_03/e.jpg,stim_03/f.jpg,2,3,j,1,20,80,51,f,0,1.11634536152,03,01,60.0197317377,PLT_learning_3,N,2014_Mrz_07_1338,P22,
stim_fb/ques.jpg,stim_fb/negf.jpg,stim_fb/posf.jpg,stim_03/b.jpg,stim_03/a.jpg,1,1,f,1,21,81,7,f,1,0.833154865171,03,01,60.0197317377,PLT_learning_3,N,2014_Mrz_07_1338,P22,
stim_fb/ques.jpg,stim_fb/negf.jpg,stim_fb/posf.jpg,stim_03/a.jpg,stim_03/b.jpg,2,1,j,1,22,82,10,j,1,0.666495463585,03,01,60.0197317377,PLT_learning_3,N,2014_Mrz_07_1338,P22,
stim_fb/ques.jpg,stim_fb/negf.jpg,stim_fb/posf.jpg,stim_03/b.jpg,stim_03/a.jpg,1,1,f,1,23,83,0,f,1,0.716475414187,03,01,60.0197317377,PLT_learning_3,N,2014_Mrz_07_1338,P22,
stim_fb/ques.jpg,stim_fb/negf.jpg,stim_fb/posf.jpg,stim_03/d.jpg,stim_03/c.jpg,1,2,f,1,24,84,20,f,1,0.966367507133,03,01,60.0197317377,PLT_learning_3,N,2014_Mrz_07_1338,P22,
stim_fb/ques.jpg,stim_fb/negf.jpg,stim_fb/posf.jpg,stim_03/b.jpg,stim_03/a.jpg,1,1,f,1,25,85,1,f,1,0.683153462178,03,01,60.0197317377,PLT_learning_3,N,2014_Mrz_07_1338,P22,
stim_fb/ques.jpg,stim_fb/negf.jpg,stim_fb/posf.jpg,stim_03/c.jpg,stim_03/d.jpg,2,2,j,1,26,86,36,j,1,0.966370899578,03,01,60.0197317377,PLT_learning_3,N,2014_Mrz_07_1338,P22,
stim_fb/ques.jpg,stim_fb/negf.jpg,stim_fb/posf.jpg,stim_03/d.jpg,stim_03/c.jpg,1,2,f,1,27,87,24,f,1,0.783117652056,03,01,60.0197317377,PLT_learning_3,N,2014_Mrz_07_1338,P22,
stim_fb/ques.jpg,stim_fb/negf.jpg,stim_fb/posf.jpg,stim_03/f.jpg,stim_03/e.jpg,1,3,f,1,28,88,45,j,0,1.16637392511,03,01,60.0197317377,PLT_learning_3,N,2014_Mrz_07_1338,P22,
stim_fb/ques.jpg,stim_fb/negf.jpg,stim_fb/posf.jpg,stim_03/b.jpg,stim_03/a.jpg,1,1,f,1,29,89,2,f,1,0.716462214335,03,01,60.0197317377,PLT_learning_3,N,2014_Mrz_07_1338,P22,
stim_fb/ques.jpg,stim_fb/negf.jpg,stim_fb/posf.jpg,stim_03/e.jpg,stim_03/f.jpg,2,3,j,1,30,90,53,j,1,0.633169030423,03,01,60.0197317377,PLT_learning_3,N,2014_Mrz_07_1338,P22,
stim_fb/ques.jpg,stim_fb/negf.jpg,stim_fb/posf.jpg,stim_03/f.jpg,stim_03/e.jpg,1,3,f,1,31,91,44,f,1,0.649876881089,03,01,60.0197317377,PLT_learning_3,N,2014_Mrz_07_1338,P22,
stim_fb/ques.jpg,stim_fb/negf.jpg,stim_fb/posf.jpg,stim_03/a.jpg,stim_03/b.jpg,2,1,j,1,32,92,12,j,1,0.649844959644,03,01,60.0197317377,PLT_learning_3,N,2014_Mrz_07_1338,P22,
stim_fb/ques.jpg,stim_fb/negf.jpg,stim_fb/posf.jpg,stim_03/c.jpg,stim_03/d.jpg,2,2,j,1,33,93,30,j,1,0.833099903384,03,01,60.0197317377,PLT_learning_3,N,2014_Mrz_07_1338,P22,
stim_fb/ques.jpg,stim_fb/posf.jpg,stim_fb/negf.jpg,stim_03/e.jpg,stim_03/f.jpg,2,3,j,1,34,94,59,j,1,0.549864372959,03,01,60.0197317377,PLT_learning_3,N,2014_Mrz_07_1338,P22,
stim_fb/ques.jpg,stim_fb/negf.jpg,stim_fb/posf.jpg,stim_03/d.jpg,stim_03/c.jpg,1,2,f,1,35,95,25,f,1,0.966399705265,03,01,60.0197317377,PLT_learning_3,N,2014_Mrz_07_1338,P22,
stim_fb/ques.jpg,stim_fb/posf.jpg,stim_fb/negf.jpg,stim_03/f.jpg,stim_03/e.jpg,1,3,f,1,36,96,49,f,1,0.666500702624,03,01,60.0197317377,PLT_learning_3,N,2014_Mrz_07_1338,P22,
stim_fb/ques.jpg,stim_fb/negf.jpg,stim_fb/posf.jpg,stim_03/c.jpg,stim_03/d.jpg,2,2,j,1,37,97,33,j,1,1.03303991008,03,01,60.0197317377,PLT_learning_3,N,2014_Mrz_07_1338,P22,
stim_fb/ques.jpg,stim_fb/posf.jpg,stim_fb/negf.jpg,stim_03/a.jpg,stim_03/b.jpg,2,1,j,1,38,98,18,j,1,0.633155334337,03,01,60.0197317377,PLT_learning_3,N,2014_Mrz_07_1338,P22,
stim_fb/ques.jpg,stim_fb/posf.jpg,stim_fb/negf.jpg,stim_03/e.jpg,stim_03/f.jpg,2,3,j,1,39,99,58,j,1,0.716472051818,03,01,60.0197317377,PLT_learning_3,N,2014_Mrz_07_1338,P22,
stim_fb/ques.jpg,stim_fb/negf.jpg,stim_fb/posf.jpg,stim_03/a.jpg,stim_03/b.jpg,2,1,j,1,40,100,13,f,0,0.716466000758,03,01,60.0197317377,PLT_learning_3,N,2014_Mrz_07_1338,P22,
stim_fb/ques.jpg,stim_fb/posf.jpg,stim_fb/negf.jpg,stim_03/a.jpg,stim_03/b.jpg,2,1,j,1,41,101,19,j,1,0.733124396342,03,01,60.0197317377,PLT_learning_3,N,2014_Mrz_07_1338,P22,
stim_fb/ques.jpg,stim_fb/negf.jpg,stim_fb/posf.jpg,stim_03/d.jpg,stim_03/c.jpg,1,2,f,1,42,102,23,j,0,1.24973606764,03,01,60.0197317377,PLT_learning_3,N,2014_Mrz_07_1338,P22,
stim_fb/ques.jpg,stim_fb/posf.jpg,stim_fb/negf.jpg,stim_03/b.jpg,stim_03/a.jpg,1,1,f,1,43,103,9,f,1,1.34959729928,03,01,60.0197317377,PLT_learning_3,N,2014_Mrz_07_1338,P22,
stim_fb/ques.jpg,stim_fb/negf.jpg,stim_fb/posf.jpg,stim_03/a.jpg,stim_03/b.jpg,2,1,j,1,44,104,15,f,0,0.933089786206,03,01,60.0197317377,PLT_learning_3,N,2014_Mrz_07_1338,P22,
stim_fb/ques.jpg,stim_fb/negf.jpg,stim_fb/posf.jpg,stim_03/c.jpg,stim_03/d.jpg,2,2,j,1,45,105,32,j,1,1.21628528099,03,01,60.0197317377,PLT_learning_3,N,2014_Mrz_07_1338,P22,
stim_fb/ques.jpg,stim_fb/posf.jpg,stim_fb/negf.jpg,stim_03/f.jpg,stim_03/e.jpg,1,3,f,1,46,106,47,f,1,0.93308382537,03,01,60.0197317377,PLT_learning_3,N,2014_Mrz_07_1338,P22,
stim_fb/ques.jpg,stim_fb/posf.jpg,stim_fb/negf.jpg,stim_03/f.jpg,stim_03/e.jpg,1,3,f,1,47,107,48,j,0,0.949713953602,03,01,60.0197317377,PLT_learning_3,N,2014_Mrz_07_1338,P22,
stim_fb/ques.jpg,stim_fb/negf.jpg,stim_fb/posf.jpg,stim_03/b.jpg,stim_03/a.jpg,1,1,f,1,48,108,4,f,1,1.26630301463,03,01,60.0197317377,PLT_learning_3,N,2014_Mrz_07_1338,P22,
stim_fb/ques.jpg,stim_fb/negf.jpg,stim_fb/posf.jpg,stim_03/a.jpg,stim_03/b.jpg,2,1,j,1,49,109,16,j,1,0.666504759722,03,01,60.0197317377,PLT_learning_3,N,2014_Mrz_07_1338,P22,
stim_fb/ques.jpg,stim_fb/posf.jpg,stim_fb/negf.jpg,stim_03/c.jpg,stim_03/d.jpg,2,2,j,1,50,110,38,j,1,0.549873717213,03,01,60.0197317377,PLT_learning_3,N,2014_Mrz_07_1338,P22,
stim_fb/ques.jpg,stim_fb/negf.jpg,stim_fb/posf.jpg,stim_03/c.jpg,stim_03/d.jpg,2,2,j,1,51,111,34,f,0,0.633176290494,03,01,60.0197317377,PLT_learning_3,N,2014_Mrz_07_1338,P22,
stim_fb/ques.jpg,stim_fb/negf.jpg,stim_fb/posf.jpg,stim_03/d.jpg,stim_03/c.jpg,1,2,f,1,52,112,21,f,1,0.966411214911,03,01,60.0197317377,PLT_learning_3,N,2014_Mrz_07_1338,P22,
stim_fb/ques.jpg,stim_fb/negf.jpg,stim_fb/posf.jpg,stim_03/f.jpg,stim_03/e.jpg,1,3,f,1,53,113,40,f,1,0.783139916466,03,01,60.0197317377,PLT_learning_3,N,2014_Mrz_07_1338,P22,
stim_fb/ques.jpg,stim_fb/posf.jpg,stim_fb/negf.jpg,stim_03/d.jpg,stim_03/c.jpg,1,2,f,1,54,114,29,j,0,1.09964148073,03,01,60.0197317377,PLT_learning_3,N,2014_Mrz_07_1338,P22,
stim_fb/ques.jpg,stim_fb/negf.jpg,stim_fb/posf.jpg,stim_03/b.jpg,stim_03/a.jpg,1,1,f,1,55,115,3,f,1,0.699861285775,03,01,60.0197317377,PLT_learning_3,N,2014_Mrz_07_1338,P22,
stim_fb/ques.jpg,stim_fb/negf.jpg,stim_fb/posf.jpg,stim_03/b.jpg,stim_03/a.jpg,1,1,f,1,56,116,6,f,1,0.999721191114,03,01,60.0197317377,PLT_learning_3,N,2014_Mrz_07_1338,P22,
stim_fb/ques.jpg,stim_fb/negf.jpg,stim_fb/posf.jpg,stim_03/e.jpg,stim_03/f.jpg,2,3,j,1,57,117,55,j,1,0.733140155562,03,01,60.0197317377,PLT_learning_3,N,2014_Mrz_07_1338,P22,
stim_fb/ques.jpg,stim_fb/posf.jpg,stim_fb/negf.jpg,stim_03/c.jpg,stim_03/d.jpg,2,2,j,1,58,118,37,j,1,0.666486002037,03,01,60.0197317377,PLT_learning_3,N,2014_Mrz_07_1338,P22,
stim_fb/ques.jpg,stim_fb/negf.jpg,stim_fb/posf.jpg,stim_03/b.jpg,stim_03/a.jpg,1,1,f,1,59,119,5,f,1,0.816443128837,03,01,60.0197317377,PLT_learning_3,N,2014_Mrz_07_1338,P22,
stim_fb/ques.jpg,stim_fb/negf.jpg,stim_fb/posf.jpg,stim_03/f.jpg,stim_03/e.jpg,1,3,f,2,0,120,42,j,0,1.23298046714,03,01,60.0197317377,PLT_learning_3,N,2014_Mrz_07_1338,P22,
stim_fb/ques.jpg,stim_fb/posf.jpg,stim_fb/negf.jpg,stim_03/f.jpg,stim_03/e.jpg,1,3,f,2,1,121,47,f,1,0.999741614944,03,01,60.0197317377,PLT_learning_3,N,2014_Mrz_07_1338,P22,
stim_fb/ques.jpg,stim_fb/negf.jpg,stim_fb/posf.jpg,stim_03/c.jpg,stim_03/d.jpg,2,2,j,2,2,122,35,f,0,1.38293405713,03,01,60.0197317377,PLT_learning_3,N,2014_Mrz_07_1338,P22,
stim_fb/ques.jpg,stim_fb/posf.jpg,stim_fb/negf.jpg,stim_03/e.jpg,stim_03/f.jpg,2,3,j,2,3,123,56,f,0,1.38292276704,03,01,60.0197317377,PLT_learning_3,N,2014_Mrz_07_1338,P22,
stim_fb/ques.jpg,stim_fb/negf.jpg,stim_fb/posf.jpg,stim_03/c.jpg,stim_03/d.jpg,2,2,j,2,4,124,31,f,0,0.73314271794,03,01,60.0197317377,PLT_learning_3,N,2014_Mrz_07_1338,P22,
stim_fb/ques.jpg,stim_fb/negf.jpg,stim_fb/posf.jpg,stim_03/f.jpg,stim_03/e.jpg,1,3,f,2,5,125,43,j,0,1.2163025199,03,01,60.0197317377,PLT_learning_3,N,2014_Mrz_07_1338,P22,
stim_fb/ques.jpg,stim_fb/negf.jpg,stim_fb/posf.jpg,stim_03/e.jpg,stim_03/f.jpg,2,3,j,2,6,126,52,f,0,1.34958997004,03,01,60.0197317377,PLT_learning_3,N,2014_Mrz_07_1338,P22,
stim_fb/ques.jpg,stim_fb/posf.jpg,stim_fb/negf.jpg,stim_03/d.jpg,stim_03/c.jpg,1,2,f,2,7,127,28,f,1,1.2163003515,03,01,60.0197317377,PLT_learning_3,N,2014_Mrz_07_1338,P22,
stim_fb/ques.jpg,stim_fb/negf.jpg,stim_fb/posf.jpg,stim_03/b.jpg,stim_03/a.jpg,1,1,f,2,8,128,2,j,0,0.833096243276,03,01,60.0197317377,PLT_learning_3,N,2014_Mrz_07_1338,P22,
stim_fb/ques.jpg,stim_fb/negf.jpg,stim_fb/posf.jpg,stim_03/e.jpg,stim_03/f.jpg,2,3,j,2,9,129,50,j,1,1.38307765852,03,01,60.0197317377,PLT_learning_3,N,2014_Mrz_07_1338,P22,
stim_fb/ques.jpg,stim_fb/negf.jpg,stim_fb/posf.jpg,stim_03/c.jpg,stim_03/d.jpg,2,2,j,2,10,130,34,f,0,1.2498122743,03,01,60.0197317377,PLT_learning_3,N,2014_Mrz_07_1338,P22,
stim_fb/ques.jpg,stim_fb/negf.jpg,stim_fb/posf.jpg,stim_03/c.jpg,stim_03/d.jpg,2,2,j,2,11,131,36,j,1,0.516544766788,03,01,60.0197317377,PLT_learning_3,N,2014_Mrz_07_1338,P22,
stim_fb/ques.jpg,stim_fb/negf.jpg,stim_fb/posf.jpg,stim_03/a.jpg,stim_03/b.jpg,2,1,j,2,12,132,17,f,0,1.06635810273,03,01,60.0197317377,PLT_learning_3,N,2014_Mrz_07_1338,P22,
stim_fb/ques.jpg,stim_fb/posf.jpg,stim_fb/negf.jpg,stim_03/c.jpg,stim_03/d.jpg,2,2,j,2,13,133,39,f,0,1.4495867791,03,01,60.0197317377,PLT_learning_3,N,2014_Mrz_07_1338,P22,
stim_fb/ques.jpg,stim_fb/negf.jpg,stim_fb/posf.jpg,stim_03/b.jpg,stim_03/a.jpg,1,1,f,2,14,134,5,f,1,1.23296718308,03,01,60.0197317377,PLT_learning_3,N,2014_Mrz_07_1338,P22,
stim_fb/ques.jpg,stim_fb/negf.jpg,stim_fb/posf.jpg,stim_03/f.jpg,stim_03/e.jpg,1,3,f,2,15,135,40,j,0,1.26630627173,03,01,60.0197317377,PLT_learning_3,N,2014_Mrz_07_1338,P22,
stim_fb/ques.jpg,stim_fb/negf.jpg,stim_fb/posf.jpg,stim_03/d.jpg,stim_03/c.jpg,1,2,f,2,16,136,23,f,1,1.46624311154,03,01,60.0197317377,PLT_learning_3,N,2014_Mrz_07_1338,P22,
stim_fb/ques.jpg,stim_fb/negf.jpg,stim_fb/posf.jpg,stim_03/e.jpg,stim_03/f.jpg,2,3,j,2,17,137,53,j,1,1.46622611324,03,01,60.0197317377,PLT_learning_3,N,2014_Mrz_07_1338,P22,
stim_fb/ques.jpg,stim_fb/negf.jpg,stim_fb/posf.jpg,stim_03/b.jpg,stim_03/a.jpg,1,1,f,2,18,138,4,f,1,1.16636510716,03,01,60.0197317377,PLT_learning_3,N,2014_Mrz_07_1338,P22,
stim_fb/ques.jpg,stim_fb/posf.jpg,stim_fb/negf.jpg,stim_03/d.jpg,stim_03/c.jpg,1,2,f,2,19,139,29,j,0,1.29961126153,03,01,60.0197317377,PLT_learning_3,N,2014_Mrz_07_1338,P22,
stim_fb/ques.jpg,stim_fb/negf.jpg,stim_fb/posf.jpg,stim_03/d.jpg,stim_03/c.jpg,1,2,f,2,20,140,20,j,0,0.766447142327,03,01,60.0197317377,PLT_learning_3,N,2014_Mrz_07_1338,P22,
stim_fb/ques.jpg,stim_fb/posf.jpg,stim_fb/negf.jpg,stim_03/c.jpg,stim_03/d.jpg,2,2,j,2,21,141,37,j,1,1.14965344902,03,01,60.0197317377,PLT_learning_3,N,2014_Mrz_07_1338,P22,
stim_fb/ques.jpg,stim_fb/negf.jpg,stim_fb/posf.jpg,stim_03/a.jpg,stim_03/b.jpg,2,1,j,2,22,142,13,j,1,1.21629733499,03,01,60.0197317377,PLT_learning_3,N,2014_Mrz_07_1338,P22,
stim_fb/ques.jpg,stim_fb/negf.jpg,stim_fb/posf.jpg,stim_03/d.jpg,stim_03/c.jpg,1,2,f,2,23,143,24,j,0,1.1496628023,03,01,60.0197317377,PLT_learning_3,N,2014_Mrz_07_1338,P22,
stim_fb/ques.jpg,stim_fb/posf.jpg,stim_fb/negf.jpg,stim_03/a.jpg,stim_03/b.jpg,2,1,j,2,24,144,19,j,1,1.18300784578,03,01,60.0197317377,PLT_learning_3,N,2014_Mrz_07_1338,P22,
stim_fb/ques.jpg,stim_fb/negf.jpg,stim_fb/posf.jpg,stim_03/e.jpg,stim_03/f.jpg,2,3,j,2,25,145,55,j,1,1.1996330267,03,01,60.0197317377,PLT_learning_3,N,2014_Mrz_07_1338,P22,
stim_fb/ques.jpg,stim_fb/posf.jpg,stim_fb/negf.jpg,stim_03/f.jpg,stim_03/e.jpg,1,3,f,2,26,146,49,f,1,0.699822293733,03,01,60.0197317377,PLT_learning_3,N,2014_Mrz_07_1338,P22,
stim_fb/ques.jpg,stim_fb/negf.jpg,stim_fb/posf.jpg,stim_03/d.jpg,stim_03/c.jpg,1,2,f,2,27,147,22,j,0,1.13302357943,03,01,60.0197317377,PLT_learning_3,N,2014_Mrz_07_1338,P22,
stim_fb/ques.jpg,stim_fb/negf.jpg,stim_fb/posf.jpg,stim_03/b.jpg,stim_03/a.jpg,1,1,f,2,28,148,1,f,1,1.11633531351,03,01,60.0197317377,PLT_learning_3,N,2014_Mrz_07_1338,P22,
stim_fb/ques.jpg,stim_fb/negf.jpg,stim_fb/posf.jpg,stim_03/c.jpg,stim_03/d.jpg,2,2,j,2,29,149,30,j,1,0.783067018041,03,01,60.0197317377,PLT_learning_3,N,2014_Mrz_07_1338,P22,
stim_fb/ques.jpg,stim_fb/posf.jpg,stim_fb/negf.jpg,stim_03/b.jpg,stim_03/a.jpg,1,1,f,2,30,150,8,f,1,1.08303004703,03,01,60.0197317377,PLT_learning_3,N,2014_Mrz_07_1338,P22,
stim_fb/ques.jpg,stim_fb/negf.jpg,stim_fb/posf.jpg,stim_03/b.jpg,stim_03/a.jpg,1,1,f,2,31,151,7,j,0,1.59951899791,03,01,60.0197317377,PLT_learning_3,N,2014_Mrz_07_1338,P22,
stim_fb/ques.jpg,stim_fb/posf.jpg,stim_fb/negf.jpg,stim_03/e.jpg,stim_03/f.jpg,2,3,j,2,32,152,58,j,1,1.04970094322,03,01,60.0197317377,PLT_learning_3,N,2014_Mrz_07_1338,P22,
stim_fb/ques.jpg,stim_fb/negf.jpg,stim_fb/posf.jpg,stim_03/a.jpg,stim_03/b.jpg,2,1,j,2,33,153,14,f,0,1.54954516152,03,01,60.0197317377,PLT_learning_3,N,2014_Mrz_07_1338,P22,
stim_fb/ques.jpg,stim_fb/negf.jpg,stim_fb/posf.jpg,stim_03/b.jpg,stim_03/a.jpg,1,1,f,2,34,154,0,f,1,1.18300772848,03,01,60.0197317377,PLT_learning_3,N,2014_Mrz_07_1338,P22,
stim_fb/ques.jpg,stim_fb/negf.jpg,stim_fb/posf.jpg,stim_03/a.jpg,stim_03/b.jpg,2,1,j,2,35,155,10,j,1,0.616497925212,03,01,60.0197317377,PLT_learning_3,N,2014_Mrz_07_1338,P22,
stim_fb/ques.jpg,stim_fb/negf.jpg,stim_fb/posf.jpg,stim_03/e.jpg,stim_03/f.jpg,2,3,j,2,36,156,51,j,1,0.583216703571,03,01,60.0197317377,PLT_learning_3,N,2014_Mrz_07_1338,P22,
stim_fb/ques.jpg,stim_fb/negf.jpg,stim_fb/posf.jpg,stim_03/b.jpg,stim_03/a.jpg,1,1,f,2,37,157,6,f,1,0.6331635959,03,01,60.0197317377,PLT_learning_3,N,2014_Mrz_07_1338,P22,
stim_fb/ques.jpg,stim_fb/posf.jpg,stim_fb/negf.jpg,stim_03/d.jpg,stim_03/c.jpg,1,2,f,2,38,158,27,f,1,0.749805711966,03,01,60.0197317377,PLT_learning_3,N,2014_Mrz_07_1338,P22,
stim_fb/ques.jpg,stim_fb/negf.jpg,stim_fb/posf.jpg,stim_03/a.jpg,stim_03/b.jpg,2,1,j,2,39,159,16,j,1,0.633204497693,03,01,60.0197317377,PLT_learning_3,N,2014_Mrz_07_1338,P22,
stim_fb/ques.jpg,stim_fb/negf.jpg,stim_fb/posf.jpg,stim_03/f.jpg,stim_03/e.jpg,1,3,f,2,40,160,44,f,1,0.64982855983,03,01,60.0197317377,PLT_learning_3,N,2014_Mrz_07_1338,P22,
stim_fb/ques.jpg,stim_fb/negf.jpg,stim_fb/posf.jpg,stim_03/e.jpg,stim_03/f.jpg,2,3,j,2,41,161,54,j,1,0.899747816378,03,01,60.0197317377,PLT_learning_3,N,2014_Mrz_07_1338,P22,
stim_fb/ques.jpg,stim_fb/negf.jpg,stim_fb/posf.jpg,stim_03/f.jpg,stim_03/e.jpg,1,3,f,2,42,162,41,f,1,0.816511885956,03,01,60.0197317377,PLT_learning_3,N,2014_Mrz_07_1338,P22,
stim_fb/ques.jpg,stim_fb/posf.jpg,stim_fb/negf.jpg,stim_03/b.jpg,stim_03/a.jpg,1,1,f,2,43,163,9,f,1,0.76645037838,03,01,60.0197317377,PLT_learning_3,N,2014_Mrz_07_1338,P22,
stim_fb/ques.jpg,stim_fb/negf.jpg,stim_fb/posf.jpg,stim_03/f.jpg,stim_03/e.jpg,1,3,f,2,44,164,45,f,1,0.666496615451,03,01,60.0197317377,PLT_learning_3,N,2014_Mrz_07_1338,P22,
stim_fb/ques.jpg,stim_fb/posf.jpg,stim_fb/negf.jpg,stim_03/f.jpg,stim_03/e.jpg,1,3,f,2,45,165,46,f,1,0.566541691636,03,01,60.0197317377,PLT_learning_3,N,2014_Mrz_07_1338,P22,
stim_fb/ques.jpg,stim_fb/posf.jpg,stim_fb/negf.jpg,stim_03/e.jpg,stim_03/f.jpg,2,3,j,2,46,166,57,j,1,0.649811769039,03,01,60.0197317377,PLT_learning_3,N,2014_Mrz_07_1338,P22,
stim_fb/ques.jpg,stim_fb/negf.jpg,stim_fb/posf.jpg,stim_03/a.jpg,stim_03/b.jpg,2,1,j,2,47,167,12,f,0,0.916456070045,03,01,60.0197317377,PLT_learning_3,N,2014_Mrz_07_1338,P22,
stim_fb/ques.jpg,stim_fb/negf.jpg,stim_fb/posf.jpg,stim_03/d.jpg,stim_03/c.jpg,1,2,f,2,48,168,25,f,1,0.7330938824,03,01,60.0197317377,PLT_learning_3,N,2014_Mrz_07_1338,P22,
stim_fb/ques.jpg,stim_fb/negf.jpg,stim_fb/posf.jpg,stim_03/a.jpg,stim_03/b.jpg,2,1,j,2,49,169,11,j,1,0.566537947318,03,01,60.0197317377,PLT_learning_3,N,2014_Mrz_07_1338,P22,
stim_fb/ques.jpg,stim_fb/posf.jpg,stim_fb/negf.jpg,stim_03/e.jpg,stim_03/f.jpg,2,3,j,2,50,170,59,j,1,0.533260136164,03,01,60.0197317377,PLT_learning_3,N,2014_Mrz_07_1338,P22,
stim_fb/ques.jpg,stim_fb/negf.jpg,stim_fb/posf.jpg,stim_03/c.jpg,stim_03/d.jpg,2,2,j,2,51,171,33,j,1,0.516546727669,03,01,60.0197317377,PLT_learning_3,N,2014_Mrz_07_1338,P22,
stim_fb/ques.jpg,stim_fb/posf.jpg,stim_fb/negf.jpg,stim_03/a.jpg,stim_03/b.jpg,2,1,j,2,52,172,18,j,1,0.649866409025,03,01,60.0197317377,PLT_learning_3,N,2014_Mrz_07_1338,P22,
stim_fb/ques.jpg,stim_fb/negf.jpg,stim_fb/posf.jpg,stim_03/c.jpg,stim_03/d.jpg,2,2,j,2,53,173,32,j,1,1.09969847859,03,01,60.0197317377,PLT_learning_3,N,2014_Mrz_07_1338,P22,
stim_fb/ques.jpg,stim_fb/posf.jpg,stim_fb/negf.jpg,stim_03/f.jpg,stim_03/e.jpg,1,3,f,2,54,174,48,f,1,1.19966373913,03,01,60.0197317377,PLT_learning_3,N,2014_Mrz_07_1338,P22,
stim_fb/ques.jpg,stim_fb/posf.jpg,stim_fb/negf.jpg,stim_03/c.jpg,stim_03/d.jpg,2,2,j,2,55,175,38,j,1,1.566175792,03,01,60.0197317377,PLT_learning_3,N,2014_Mrz_07_1338,P22,
stim_fb/ques.jpg,stim_fb/negf.jpg,stim_fb/posf.jpg,stim_03/d.jpg,stim_03/c.jpg,1,2,f,2,56,176,21,f,1,0.999732288734,03,01,60.0197317377,PLT_learning_3,N,2014_Mrz_07_1338,P22,
stim_fb/ques.jpg,stim_fb/negf.jpg,stim_fb/posf.jpg,stim_03/a.jpg,stim_03/b.jpg,2,1,j,2,57,177,15,j,1,0.966352289259,03,01,60.0197317377,PLT_learning_3,N,2014_Mrz_07_1338,P22,
stim_fb/ques.jpg,stim_fb/negf.jpg,stim_fb/posf.jpg,stim_03/d.jpg,stim_03/c.jpg,1,2,f,2,58,178,26,f,1,1.14966891351,03,01,60.0197317377,PLT_learning_3,N,2014_Mrz_07_1338,P22,
stim_fb/ques.jpg,stim_fb/negf.jpg,stim_fb/posf.jpg,stim_03/b.jpg,stim_03/a.jpg,1,1,f,2,59,179,3,None,0,,03,01,60.0197317377,PLT_learning_3,N,2014_Mrz_07_1338,P22,
stim_fb/ques.jpg,stim_fb/negf.jpg,stim_fb/posf.jpg,stim_03/e.jpg,stim_03/f.jpg,2,3,j,3,0,180,52,j,1,0.9164241486,03,01,60.0197317377,PLT_learning_3,N,2014_Mrz_07_1338,P22,
stim_fb/ques.jpg,stim_fb/posf.jpg,stim_fb/negf.jpg,stim_03/d.jpg,stim_03/c.jpg,1,2,f,3,1,181,29,f,1,0.76644742202,03,01,60.0197317377,PLT_learning_3,N,2014_Mrz_07_1338,P22,
stim_fb/ques.jpg,stim_fb/negf.jpg,stim_fb/posf.jpg,stim_03/f.jpg,stim_03/e.jpg,1,3,f,3,2,182,40,f,1,1.09965634974,03,01,60.0197317377,PLT_learning_3,N,2014_Mrz_07_1338,P22,
stim_fb/ques.jpg,stim_fb/posf.jpg,stim_fb/negf.jpg,stim_03/e.jpg,stim_03/f.jpg,2,3,j,3,3,183,59,j,1,1.01636741841,03,01,60.0197317377,PLT_learning_3,N,2014_Mrz_07_1338,P22,
stim_fb/ques.jpg,stim_fb/negf.jpg,stim_fb/posf.jpg,stim_03/f.jpg,stim_03/e.jpg,1,3,f,3,4,184,41,f,1,1.39959293993,03,01,60.0197317377,PLT_learning_3,N,2014_Mrz_07_1338,P22,
stim_fb/ques.jpg,stim_fb/negf.jpg,stim_fb/posf.jpg,stim_03/c.jpg,stim_03/d.jpg,2,2,j,3,5,185,31,j,1,1.21630605971,03,01,60.0197317377,PLT_learning_3,N,2014_Mrz_07_1338,P22,
stim_fb/ques.jpg,stim_fb/negf.jpg,stim_fb/posf.jpg,stim_03/d.jpg,stim_03/c.jpg,1,2,f,3,6,186,22,f,1,1.14962242681,03,01,60.0197317377,PLT_learning_3,N,2014_Mrz_07_1338,P22,
stim_fb/ques.jpg,stim_fb/negf.jpg,stim_fb/posf.jpg,stim_03/b.jpg,stim_03/a.jpg,1,1,f,3,7,187,0,f,1,1.06636757029,03,01,60.0197317377,PLT_learning_3,N,2014_Mrz_07_1338,P22,
stim_fb/ques.jpg,stim_fb/negf.jpg,stim_fb/posf.jpg,stim_03/b.jpg,stim_03/a.jpg,1,1,f,3,8,188,1,f,1,1.06636989207,03,01,60.0197317377,PLT_learning_3,N,2014_Mrz_07_1338,P22,
stim_fb/ques.jpg,stim_fb/negf.jpg,stim_fb/posf.jpg,stim_03/a.jpg,stim_03/b.jpg,2,1,j,3,9,189,15,j,1,0.61656121773,03,01,60.0197317377,PLT_learning_3,N,2014_Mrz_07_1338,P22,
stim_fb/ques.jpg,stim_fb/posf.jpg,stim_fb/negf.jpg,stim_03/a.jpg,stim_03/b.jpg,2,1,j,3,10,190,18,j,1,0.56654817878,03,01,60.0197317377,PLT_learning_3,N,2014_Mrz_07_1338,P22,
stim_fb/ques.jpg,stim_fb/posf.jpg,stim_fb/negf.jpg,stim_03/f.jpg,stim_03/e.jpg,1,3,f,3,11,191,48,f,1,1.03302794329,03,01,60.0197317377,PLT_learning_3,N,2014_Mrz_07_1338,P22,
stim_fb/ques.jpg,stim_fb/posf.jpg,stim_fb/negf.jpg,stim_03/e.jpg,stim_03/f.jpg,2,3,j,3,12,192,56,j,1,1.24964766863,03,01,60.0197317377,PLT_learning_3,N,2014_Mrz_07_1338,P22,
stim_fb/ques.jpg,stim_fb/negf.jpg,stim_fb/posf.jpg,stim_03/c.jpg,stim_03/d.jpg,2,2,j,3,13,193,34,j,1,1.43288639,03,01,60.0197317377,PLT_learning_3,N,2014_Mrz_07_1338,P22,
stim_fb/ques.jpg,stim_fb/negf.jpg,stim_fb/posf.jpg,stim_03/f.jpg,stim_03/e.jpg,1,3,f,3,14,194,45,j,0,0.783131378219,03,01,60.0197317377,PLT_learning_3,N,2014_Mrz_07_1338,P22,
stim_fb/ques.jpg,stim_fb/negf.jpg,stim_fb/posf.jpg,stim_03/f.jpg,stim_03/e.jpg,1,3,f,3,15,195,43,f,1,1.31627429164,03,01,60.0197317377,PLT_learning_3,N,2014_Mrz_07_1338,P22,
stim_fb/ques.jpg,stim_fb/negf.jpg,stim_fb/posf.jpg,stim_03/b.jpg,stim_03/a.jpg,1,1,f,3,16,196,2,f,1,0.999713660372,03,01,60.0197317377,PLT_learning_3,N,2014_Mrz_07_1338,P22,
stim_fb/ques.jpg,stim_fb/posf.jpg,stim_fb/negf.jpg,stim_03/c.jpg,stim_03/d.jpg,2,2,j,3,17,197,38,j,1,0.983053195641,03,01,60.0197317377,PLT_learning_3,N,2014_Mrz_07_1338,P22,
stim_fb/ques.jpg,stim_fb/negf.jpg,stim_fb/posf.jpg,stim_03/a.jpg,stim_03/b.jpg,2,1,j,3,18,198,14,j,1,0.899725915873,03,01,60.0197317377,PLT_learning_3,N,2014_Mrz_07_1338,P22,
stim_fb/ques.jpg,stim_fb/negf.jpg,stim_fb/posf.jpg,stim_03/e.jpg,stim_03/f.jpg,2,3,j,3,19,199,50,j,1,1.21629772296,03,01,60.0197317377,PLT_learning_3,N,2014_Mrz_07_1338,P22,
stim_fb/ques.jpg,stim_fb/posf.jpg,stim_fb/negf.jpg,stim_03/d.jpg,stim_03/c.jpg,1,2,f,3,20,200,28,f,1,0.833153734357,03,01,60.0197317377,PLT_learning_3,N,2014_Mrz_07_1338,P22,
stim_fb/ques.jpg,stim_fb/negf.jpg,stim_fb/posf.jpg,stim_03/c.jpg,stim_03/d.jpg,2,2,j,3,21,201,35,f,0,0.983052043774,03,01,60.0197317377,PLT_learning_3,N,2014_Mrz_07_1338,P22,
stim_fb/ques.jpg,stim_fb/posf.jpg,stim_fb/negf.jpg,stim_03/c.jpg,stim_03/d.jpg,2,2,j,3,22,202,37,j,1,1.21635504863,03,01,60.0197317377,PLT_learning_3,N,2014_Mrz_07_1338,P22,
stim_fb/ques.jpg,stim_fb/negf.jpg,stim_fb/posf.jpg,stim_03/c.jpg,stim_03/d.jpg,2,2,j,3,23,203,33,j,1,1.29963076808,03,01,60.0197317377,PLT_learning_3,N,2014_Mrz_07_1338,P22,
stim_fb/ques.jpg,stim_fb/negf.jpg,stim_fb/posf.jpg,stim_03/b.jpg,stim_03/a.jpg,1,1,f,3,24,204,4,f,1,1.01638749037,03,01,60.0197317377,PLT_learning_3,N,2014_Mrz_07_1338,P22,
stim_fb/ques.jpg,stim_fb/negf.jpg,stim_fb/posf.jpg,stim_03/a.jpg,stim_03/b.jpg,2,1,j,3,25,205,12,j,1,0.966359362865,03,01,60.0197317377,PLT_learning_3,N,2014_Mrz_07_1338,P22,
stim_fb/ques.jpg,stim_fb/negf.jpg,stim_fb/posf.jpg,stim_03/d.jpg,stim_03/c.jpg,1,2,f,3,26,206,26,f,1,1.01640295485,03,01,60.0197317377,PLT_learning_3,N,2014_Mrz_07_1338,P22,
stim_fb/ques.jpg,stim_fb/negf.jpg,stim_fb/posf.jpg,stim_03/d.jpg,stim_03/c.jpg,1,2,f,3,27,207,25,f,1,0.88309478615,03,01,60.0197317377,PLT_learning_3,N,2014_Mrz_07_1338,P22,
stim_fb/ques.jpg,stim_fb/posf.jpg,stim_fb/negf.jpg,stim_03/c.jpg,stim_03/d.jpg,2,2,j,3,28,208,39,j,1,0.68316022902,03,01,60.0197317377,PLT_learning_3,N,2014_Mrz_07_1338,P22,
stim_fb/ques.jpg,stim_fb/posf.jpg,stim_fb/negf.jpg,stim_03/f.jpg,stim_03/e.jpg,1,3,f,3,29,209,47,f,1,1.14966772856,03,01,60.0197317377,PLT_learning_3,N,2014_Mrz_07_1338,P22,
stim_fb/ques.jpg,stim_fb/negf.jpg,stim_fb/posf.jpg,stim_03/e.jpg,stim_03/f.jpg,2,3,j,3,30,210,53,f,0,1.26628936967,03,01,60.0197317377,PLT_learning_3,N,2014_Mrz_07_1338,P22,
stim_fb/ques.jpg,stim_fb/negf.jpg,stim_fb/posf.jpg,stim_03/e.jpg,stim_03/f.jpg,2,3,j,3,31,211,55,f,0,0.516533206017,03,01,60.0197317377,PLT_learning_3,N,2014_Mrz_07_1338,P22,
stim_fb/ques.jpg,stim_fb/negf.jpg,stim_fb/posf.jpg,stim_03/a.jpg,stim_03/b.jpg,2,1,j,3,32,212,11,j,1,0.949728046677,03,01,60.0197317377,PLT_learning_3,N,2014_Mrz_07_1338,P22,
stim_fb/ques.jpg,stim_fb/negf.jpg,stim_fb/posf.jpg,stim_03/f.jpg,stim_03/e.jpg,1,3,f,3,33,213,42,f,1,0.916402771398,03,01,60.0197317377,PLT_learning_3,N,2014_Mrz_07_1338,P22,
stim_fb/ques.jpg,stim_fb/negf.jpg,stim_fb/posf.jpg,stim_03/b.jpg,stim_03/a.jpg,1,1,f,3,34,214,3,f,1,0.81644979643,03,01,60.0197317377,PLT_learning_3,N,2014_Mrz_07_1338,P22,
stim_fb/ques.jpg,stim_fb/negf.jpg,stim_fb/posf.jpg,stim_03/a.jpg,stim_03/b.jpg,2,1,j,3,35,215,13,j,1,0.699822365914,03,01,60.0197317377,PLT_learning_3,N,2014_Mrz_07_1338,P22,
stim_fb/ques.jpg,stim_fb/posf.jpg,stim_fb/negf.jpg,stim_03/b.jpg,stim_03/a.jpg,1,1,f,3,36,216,9,f,1,0.716495278624,03,01,60.0197317377,PLT_learning_3,N,2014_Mrz_07_1338,P22,
stim_fb/ques.jpg,stim_fb/negf.jpg,stim_fb/posf.jpg,stim_03/c.jpg,stim_03/d.jpg,2,2,j,3,37,217,36,j,1,0.799786369327,03,01,60.0197317377,PLT_learning_3,N,2014_Mrz_07_1338,P22,
stim_fb/ques.jpg,stim_fb/posf.jpg,stim_fb/negf.jpg,stim_03/e.jpg,stim_03/f.jpg,2,3,j,3,38,218,57,j,1,0.94973482254,03,01,60.0197317377,PLT_learning_3,N,2014_Mrz_07_1338,P22,
stim_fb/ques.jpg,stim_fb/negf.jpg,stim_fb/posf.jpg,stim_03/a.jpg,stim_03/b.jpg,2,1,j,3,39,219,17,j,1,0.866440008571,03,01,60.0197317377,PLT_learning_3,N,2014_Mrz_07_1338,P22,
stim_fb/ques.jpg,stim_fb/negf.jpg,stim_fb/posf.jpg,stim_03/b.jpg,stim_03/a.jpg,1,1,f,3,40,220,7,f,1,0.766450441535,03,01,60.0197317377,PLT_learning_3,N,2014_Mrz_07_1338,P22,
stim_fb/ques.jpg,stim_fb/negf.jpg,stim_fb/posf.jpg,stim_03/a.jpg,stim_03/b.jpg,2,1,j,3,41,221,10,j,1,0.799658845954,03,01,60.0197317377,PLT_learning_3,N,2014_Mrz_07_1338,P22,
stim_fb/ques.jpg,stim_fb/negf.jpg,stim_fb/posf.jpg,stim_03/b.jpg,stim_03/a.jpg,1,1,f,3,42,222,5,f,1,0.683153242631,03,01,60.0197317377,PLT_learning_3,N,2014_Mrz_07_1338,P22,
stim_fb/ques.jpg,stim_fb/posf.jpg,stim_fb/negf.jpg,stim_03/b.jpg,stim_03/a.jpg,1,1,f,3,43,223,8,f,1,0.549742067571,03,01,60.0197317377,PLT_learning_3,N,2014_Mrz_07_1338,P22,
stim_fb/ques.jpg,stim_fb/negf.jpg,stim_fb/posf.jpg,stim_03/b.jpg,stim_03/a.jpg,1,1,f,3,44,224,6,f,1,0.64984349199,03,01,60.0197317377,PLT_learning_3,N,2014_Mrz_07_1338,P22,
stim_fb/ques.jpg,stim_fb/negf.jpg,stim_fb/posf.jpg,stim_03/e.jpg,stim_03/f.jpg,2,3,j,3,45,225,51,j,1,0.766462110578,03,01,60.0197317377,PLT_learning_3,N,2014_Mrz_07_1338,P22,
stim_fb/ques.jpg,stim_fb/posf.jpg,stim_fb/negf.jpg,stim_03/a.jpg,stim_03/b.jpg,2,1,j,3,46,226,19,j,1,0.666491463629,03,01,60.0197317377,PLT_learning_3,N,2014_Mrz_07_1338,P22,
stim_fb/ques.jpg,stim_fb/posf.jpg,stim_fb/negf.jpg,stim_03/f.jpg,stim_03/e.jpg,1,3,f,3,47,227,49,f,1,0.783102190577,03,01,60.0197317377,PLT_learning_3,N,2014_Mrz_07_1338,P22,
stim_fb/ques.jpg,stim_fb/negf.jpg,stim_fb/posf.jpg,stim_03/d.jpg,stim_03/c.jpg,1,2,f,3,48,228,23,f,1,1.09970393116,03,01,60.0197317377,PLT_learning_3,N,2014_Mrz_07_1338,P22,
stim_fb/ques.jpg,stim_fb/negf.jpg,stim_fb/posf.jpg,stim_03/c.jpg,stim_03/d.jpg,2,2,j,3,49,229,32,j,1,0.616510827322,03,01,60.0197317377,PLT_learning_3,N,2014_Mrz_07_1338,P22,
stim_fb/ques.jpg,stim_fb/negf.jpg,stim_fb/posf.jpg,stim_03/d.jpg,stim_03/c.jpg,1,2,f,3,50,230,21,f,1,0.516546123165,03,01,60.0197317377,PLT_learning_3,N,2014_Mrz_07_1338,P22,
stim_fb/ques.jpg,stim_fb/negf.jpg,stim_fb/posf.jpg,stim_03/e.jpg,stim_03/f.jpg,2,3,j,3,51,231,54,f,0,0.966388709903,03,01,60.0197317377,PLT_learning_3,N,2014_Mrz_07_1338,P22,
stim_fb/ques.jpg,stim_fb/negf.jpg,stim_fb/posf.jpg,stim_03/d.jpg,stim_03/c.jpg,1,2,f,3,52,232,20,f,1,0.699744517167,03,01,60.0197317377,PLT_learning_3,N,2014_Mrz_07_1338,P22,
stim_fb/ques.jpg,stim_fb/negf.jpg,stim_fb/posf.jpg,stim_03/d.jpg,stim_03/c.jpg,1,2,f,3,53,233,24,f,1,0.63318221223,03,01,60.0197317377,PLT_learning_3,N,2014_Mrz_07_1338,P22,
stim_fb/ques.jpg,stim_fb/posf.jpg,stim_fb/negf.jpg,stim_03/f.jpg,stim_03/e.jpg,1,3,f,3,54,234,46,j,0,0.86638672797,03,01,60.0197317377,PLT_learning_3,N,2014_Mrz_07_1338,P22,
stim_fb/ques.jpg,stim_fb/negf.jpg,stim_fb/posf.jpg,stim_03/c.jpg,stim_03/d.jpg,2,2,j,3,55,235,30,j,1,0.599842134112,03,01,60.0197317377,PLT_learning_3,N,2014_Mrz_07_1338,P22,
stim_fb/ques.jpg,stim_fb/negf.jpg,stim_fb/posf.jpg,stim_03/f.jpg,stim_03/e.jpg,1,3,f,3,56,236,44,j,0,0.899744829947,03,01,60.0197317377,PLT_learning_3,N,2014_Mrz_07_1338,P22,
stim_fb/ques.jpg,stim_fb/posf.jpg,stim_fb/negf.jpg,stim_03/e.jpg,stim_03/f.jpg,2,3,j,3,57,237,58,f,0,0.999734234578,03,01,60.0197317377,PLT_learning_3,N,2014_Mrz_07_1338,P22,
stim_fb/ques.jpg,stim_fb/posf.jpg,stim_fb/negf.jpg,stim_03/d.jpg,stim_03/c.jpg,1,2,f,3,58,238,27,f,1,0.883100689842,03,01,60.0197317377,PLT_learning_3,N,2014_Mrz_07_1338,P22,
stim_fb/ques.jpg,stim_fb/negf.jpg,stim_fb/posf.jpg,stim_03/a.jpg,stim_03/b.jpg,2,1,j,3,59,239,16,j,1,0.98306813081,03,01,60.0197317377,PLT_learning_3,N,2014_Mrz_07_1338,P22,
stim_fb/ques.jpg,stim_fb/negf.jpg,stim_fb/posf.jpg,stim_03/b.jpg,stim_03/a.jpg,1,1,f,4,0,240,4,f,1,0.949727532397,03,01,60.0197317377,PLT_learning_3,N,2014_Mrz_07_1338,P22,
stim_fb/ques.jpg,stim_fb/posf.jpg,stim_fb/negf.jpg,stim_03/b.jpg,stim_03/a.jpg,1,1,f,4,1,241,8,f,1,0.966380713,03,01,60.0197317377,PLT_learning_3,N,2014_Mrz_07_1338,P22,
stim_fb/ques.jpg,stim_fb/posf.jpg,stim_fb/negf.jpg,stim_03/a.jpg,stim_03/b.jpg,2,1,j,4,2,242,19,j,1,0.633189655755,03,01,60.0197317377,PLT_learning_3,N,2014_Mrz_07_1338,P22,
stim_fb/ques.jpg,stim_fb/negf.jpg,stim_fb/posf.jpg,stim_03/e.jpg,stim_03/f.jpg,2,3,j,4,3,243,53,f,0,0.999535268398,03,01,60.0197317377,PLT_learning_3,N,2014_Mrz_07_1338,P22,
stim_fb/ques.jpg,stim_fb/negf.jpg,stim_fb/posf.jpg,stim_03/b.jpg,stim_03/a.jpg,1,1,f,4,4,244,3,j,0,0.949746509626,03,01,60.0197317377,PLT_learning_3,N,2014_Mrz_07_1338,P22,
stim_fb/ques.jpg,stim_fb/negf.jpg,stim_fb/posf.jpg,stim_03/a.jpg,stim_03/b.jpg,2,1,j,4,5,245,11,f,0,0.949931163183,03,01,60.0197317377,PLT_learning_3,N,2014_Mrz_07_1338,P22,
stim_fb/ques.jpg,stim_fb/posf.jpg,stim_fb/negf.jpg,stim_03/f.jpg,stim_03/e.jpg,1,3,f,4,6,246,47,f,1,1.03304738669,03,01,60.0197317377,PLT_learning_3,N,2014_Mrz_07_1338,P22,
stim_fb/ques.jpg,stim_fb/negf.jpg,stim_fb/posf.jpg,stim_03/b.jpg,stim_03/a.jpg,1,1,f,4,7,247,6,f,1,0.833104730398,03,01,60.0197317377,PLT_learning_3,N,2014_Mrz_07_1338,P22,
stim_fb/ques.jpg,stim_fb/negf.jpg,stim_fb/posf.jpg,stim_03/e.jpg,stim_03/f.jpg,2,3,j,4,8,248,54,j,1,1.01637506645,03,01,60.0197317377,PLT_learning_3,N,2014_Mrz_07_1338,P22,
stim_fb/ques.jpg,stim_fb/negf.jpg,stim_fb/posf.jpg,stim_03/c.jpg,stim_03/d.jpg,2,2,j,4,9,249,31,j,1,0.683161263594,03,01,60.0197317377,PLT_learning_3,N,2014_Mrz_07_1338,P22,
stim_fb/ques.jpg,stim_fb/negf.jpg,stim_fb/posf.jpg,stim_03/e.jpg,stim_03/f.jpg,2,3,j,4,10,250,52,f,0,0.566514834796,03,01,60.0197317377,PLT_learning_3,N,2014_Mrz_07_1338,P22,
stim_fb/ques.jpg,stim_fb/negf.jpg,stim_fb/posf.jpg,stim_03/a.jpg,stim_03/b.jpg,2,1,j,4,11,251,10,j,1,0.966344599121,03,01,60.0197317377,PLT_learning_3,N,2014_Mrz_07_1338,P22,
stim_fb/ques.jpg,stim_fb/negf.jpg,stim_fb/posf.jpg,stim_03/d.jpg,stim_03/c.jpg,1,2,f,4,12,252,23,f,1,0.566509685981,03,01,60.0197317377,PLT_learning_3,N,2014_Mrz_07_1338,P22,
stim_fb/ques.jpg,stim_fb/posf.jpg,stim_fb/negf.jpg,stim_03/e.jpg,stim_03/f.jpg,2,3,j,4,13,253,56,f,0,0.583179404743,03,01,60.0197317377,PLT_learning_3,N,2014_Mrz_07_1338,P22,
stim_fb/ques.jpg,stim_fb/posf.jpg,stim_fb/negf.jpg,stim_03/c.jpg,stim_03/d.jpg,2,2,j,4,14,254,39,j,1,0.83312984891,03,01,60.0197317377,PLT_learning_3,N,2014_Mrz_07_1338,P22,
stim_fb/ques.jpg,stim_fb/posf.jpg,stim_fb/negf.jpg,stim_03/d.jpg,stim_03/c.jpg,1,2,f,4,15,255,29,f,1,0.716462620347,03,01,60.0197317377,PLT_learning_3,N,2014_Mrz_07_1338,P22,
stim_fb/ques.jpg,stim_fb/negf.jpg,stim_fb/posf.jpg,stim_03/b.jpg,stim_03/a.jpg,1,1,f,4,16,256,7,f,1,1.01638791442,03,01,60.0197317377,PLT_learning_3,N,2014_Mrz_07_1338,P22,
stim_fb/ques.jpg,stim_fb/posf.jpg,stim_fb/negf.jpg,stim_03/c.jpg,stim_03/d.jpg,2,2,j,4,17,257,38,f,0,0.666535466142,03,01,60.0197317377,PLT_learning_3,N,2014_Mrz_07_1338,P22,
stim_fb/ques.jpg,stim_fb/negf.jpg,stim_fb/posf.jpg,stim_03/a.jpg,stim_03/b.jpg,2,1,j,4,18,258,13,j,1,1.36628189306,03,01,60.0197317377,PLT_learning_3,N,2014_Mrz_07_1338,P22,
stim_fb/ques.jpg,stim_fb/negf.jpg,stim_fb/posf.jpg,stim_03/d.jpg,stim_03/c.jpg,1,2,f,4,19,259,26,j,0,0.966374607806,03,01,60.0197317377,PLT_learning_3,N,2014_Mrz_07_1338,P22,
stim_fb/ques.jpg,stim_fb/negf.jpg,stim_fb/posf.jpg,stim_03/d.jpg,stim_03/c.jpg,1,2,f,4,20,260,21,j,0,0.649839146174,03,01,60.0197317377,PLT_learning_3,N,2014_Mrz_07_1338,P22,
stim_fb/ques.jpg,stim_fb/negf.jpg,stim_fb/posf.jpg,stim_03/d.jpg,stim_03/c.jpg,1,2,f,4,21,261,24,f,1,0.566545562267,03,01,60.0197317377,PLT_learning_3,N,2014_Mrz_07_1338,P22,
stim_fb/ques.jpg,stim_fb/negf.jpg,stim_fb/posf.jpg,stim_03/f.jpg,stim_03/e.jpg,1,3,f,4,22,262,44,j,0,0.949758133554,03,01,60.0197317377,PLT_learning_3,N,2014_Mrz_07_1338,P22,
stim_fb/ques.jpg,stim_fb/negf.jpg,stim_fb/posf.jpg,stim_03/c.jpg,stim_03/d.jpg,2,2,j,4,23,263,33,j,1,0.716488030585,03,01,60.0197317377,PLT_learning_3,N,2014_Mrz_07_1338,P22,
stim_fb/ques.jpg,stim_fb/negf.jpg,stim_fb/posf.jpg,stim_03/e.jpg,stim_03/f.jpg,2,3,j,4,24,264,50,f,0,1.04973468419,03,01,60.0197317377,PLT_learning_3,N,2014_Mrz_07_1338,P22,
stim_fb/ques.jpg,stim_fb/posf.jpg,stim_fb/negf.jpg,stim_03/e.jpg,stim_03/f.jpg,2,3,j,4,25,265,57,f,0,0.549889861393,03,01,60.0197317377,PLT_learning_3,N,2014_Mrz_07_1338,P22,
stim_fb/ques.jpg,stim_fb/posf.jpg,stim_fb/negf.jpg,stim_03/d.jpg,stim_03/c.jpg,1,2,f,4,26,266,27,f,1,0.649845931061,03,01,60.0197317377,PLT_learning_3,N,2014_Mrz_07_1338,P22,
stim_fb/ques.jpg,stim_fb/posf.jpg,stim_fb/negf.jpg,stim_03/d.jpg,stim_03/c.jpg,1,2,f,4,27,267,28,j,0,0.583177362661,03,01,60.0197317377,PLT_learning_3,N,2014_Mrz_07_1338,P22,
stim_fb/ques.jpg,stim_fb/posf.jpg,stim_fb/negf.jpg,stim_03/f.jpg,stim_03/e.jpg,1,3,f,4,28,268,46,j,0,1.03307076086,03,01,60.0197317377,PLT_learning_3,N,2014_Mrz_07_1338,P22,
stim_fb/ques.jpg,stim_fb/negf.jpg,stim_fb/posf.jpg,stim_03/c.jpg,stim_03/d.jpg,2,2,j,4,29,269,35,f,0,0.616496030496,03,01,60.0197317377,PLT_learning_3,N,2014_Mrz_07_1338,P22,
stim_fb/ques.jpg,stim_fb/posf.jpg,stim_fb/negf.jpg,stim_03/a.jpg,stim_03/b.jpg,2,1,j,4,30,270,18,j,1,1.1496552896,03,01,60.0197317377,PLT_learning_3,N,2014_Mrz_07_1338,P22,
stim_fb/ques.jpg,stim_fb/negf.jpg,stim_fb/posf.jpg,stim_03/b.jpg,stim_03/a.jpg,1,1,f,4,31,271,2,f,1,1.09970465296,03,01,60.0197317377,PLT_learning_3,N,2014_Mrz_07_1338,P22,
stim_fb/ques.jpg,stim_fb/negf.jpg,stim_fb/posf.jpg,stim_03/c.jpg,stim_03/d.jpg,2,2,j,4,32,272,36,f,0,1.16632394973,03,01,60.0197317377,PLT_learning_3,N,2014_Mrz_07_1338,P22,
stim_fb/ques.jpg,stim_fb/negf.jpg,stim_fb/posf.jpg,stim_03/f.jpg,stim_03/e.jpg,1,3,f,4,33,273,41,j,0,0.983023532817,03,01,60.0197317377,PLT_learning_3,N,2014_Mrz_07_1338,P22,
stim_fb/ques.jpg,stim_fb/negf.jpg,stim_fb/posf.jpg,stim_03/c.jpg,stim_03/d.jpg,2,2,j,4,34,274,30,f,0,1.21628335921,03,01,60.0197317377,PLT_learning_3,N,2014_Mrz_07_1338,P22,
stim_fb/ques.jpg,stim_fb/negf.jpg,stim_fb/posf.jpg,stim_03/f.jpg,stim_03/e.jpg,1,3,f,4,35,275,43,j,0,1.36626332485,03,01,60.0197317377,PLT_learning_3,N,2014_Mrz_07_1338,P22,
stim_fb/ques.jpg,stim_fb/negf.jpg,stim_fb/posf.jpg,stim_03/f.jpg,stim_03/e.jpg,1,3,f,4,36,276,42,f,1,1.06638777157,03,01,60.0197317377,PLT_learning_3,N,2014_Mrz_07_1338,P22,
stim_fb/ques.jpg,stim_fb/negf.jpg,stim_fb/posf.jpg,stim_03/b.jpg,stim_03/a.jpg,1,1,f,4,37,277,1,f,1,1.16633747439,03,01,60.0197317377,PLT_learning_3,N,2014_Mrz_07_1338,P22,
stim_fb/ques.jpg,stim_fb/posf.jpg,stim_fb/negf.jpg,stim_03/e.jpg,stim_03/f.jpg,2,3,j,4,38,278,59,j,1,1.24958208141,03,01,60.0197317377,PLT_learning_3,N,2014_Mrz_07_1338,P22,
stim_fb/ques.jpg,stim_fb/posf.jpg,stim_fb/negf.jpg,stim_03/b.jpg,stim_03/a.jpg,1,1,f,4,39,279,9,f,1,1.11619417525,03,01,60.0197317377,PLT_learning_3,N,2014_Mrz_07_1338,P22,
stim_fb/ques.jpg,stim_fb/posf.jpg,stim_fb/negf.jpg,stim_03/e.jpg,stim_03/f.jpg,2,3,j,4,40,280,58,j,1,1.13301909227,03,01,60.0197317377,PLT_learning_3,N,2014_Mrz_07_1338,P22,
stim_fb/ques.jpg,stim_fb/negf.jpg,stim_fb/posf.jpg,stim_03/a.jpg,stim_03/b.jpg,2,1,j,4,41,281,14,j,1,0.766455229452,03,01,60.0197317377,PLT_learning_3,N,2014_Mrz_07_1338,P22,
stim_fb/ques.jpg,stim_fb/negf.jpg,stim_fb/posf.jpg,stim_03/f.jpg,stim_03/e.jpg,1,3,f,4,42,282,45,f,1,0.849820301275,03,01,60.0197317377,PLT_learning_3,N,2014_Mrz_07_1338,P22,
stim_fb/ques.jpg,stim_fb/negf.jpg,stim_fb/posf.jpg,stim_03/a.jpg,stim_03/b.jpg,2,1,j,4,43,283,16,j,1,0.966399780453,03,01,60.0197317377,PLT_learning_3,N,2014_Mrz_07_1338,P22,
stim_fb/ques.jpg,stim_fb/negf.jpg,stim_fb/posf.jpg,stim_03/f.jpg,stim_03/e.jpg,1,3,f,4,44,284,40,f,1,0.783127044431,03,01,60.0197317377,PLT_learning_3,N,2014_Mrz_07_1338,P22,
stim_fb/ques.jpg,stim_fb/negf.jpg,stim_fb/posf.jpg,stim_03/b.jpg,stim_03/a.jpg,1,1,f,4,45,285,5,f,1,0.69983736424,03,01,60.0197317377,PLT_learning_3,N,2014_Mrz_07_1338,P22,
stim_fb/ques.jpg,stim_fb/negf.jpg,stim_fb/posf.jpg,stim_03/d.jpg,stim_03/c.jpg,1,2,f,4,46,286,20,j,0,1.16629804927,03,01,60.0197317377,PLT_learning_3,N,2014_Mrz_07_1338,P22,
stim_fb/ques.jpg,stim_fb/negf.jpg,stim_fb/posf.jpg,stim_03/e.jpg,stim_03/f.jpg,2,3,j,4,47,287,51,j,1,1.13296779961,03,01,60.0197317377,PLT_learning_3,N,2014_Mrz_07_1338,P22,
stim_fb/ques.jpg,stim_fb/negf.jpg,stim_fb/posf.jpg,stim_03/a.jpg,stim_03/b.jpg,2,1,j,4,48,288,15,j,1,0.816443342368,03,01,60.0197317377,PLT_learning_3,N,2014_Mrz_07_1338,P22,
stim_fb/ques.jpg,stim_fb/posf.jpg,stim_fb/negf.jpg,stim_03/c.jpg,stim_03/d.jpg,2,2,j,4,49,289,37,j,1,0.899750523115,03,01,60.0197317377,PLT_learning_3,N,2014_Mrz_07_1338,P22,
stim_fb/ques.jpg,stim_fb/negf.jpg,stim_fb/posf.jpg,stim_03/a.jpg,stim_03/b.jpg,2,1,j,4,50,290,12,j,1,0.733131981218,03,01,60.0197317377,PLT_learning_3,N,2014_Mrz_07_1338,P22,
stim_fb/ques.jpg,stim_fb/negf.jpg,stim_fb/posf.jpg,stim_03/c.jpg,stim_03/d.jpg,2,2,j,4,51,291,32,j,1,1.0664435574,03,01,60.0197317377,PLT_learning_3,N,2014_Mrz_07_1338,P22,
stim_fb/ques.jpg,stim_fb/negf.jpg,stim_fb/posf.jpg,stim_03/a.jpg,stim_03/b.jpg,2,1,j,4,52,292,17,j,1,0.749812277305,03,01,60.0197317377,PLT_learning_3,N,2014_Mrz_07_1338,P22,
stim_fb/ques.jpg,stim_fb/posf.jpg,stim_fb/negf.jpg,stim_03/f.jpg,stim_03/e.jpg,1,3,f,4,53,293,48,f,1,0.949620126088,03,01,60.0197317377,PLT_learning_3,N,2014_Mrz_07_1338,P22,
stim_fb/ques.jpg,stim_fb/negf.jpg,stim_fb/posf.jpg,stim_03/d.jpg,stim_03/c.jpg,1,2,f,4,54,294,22,f,1,1.14961865844,03,01,60.0197317377,PLT_learning_3,N,2014_Mrz_07_1338,P22,
stim_fb/ques.jpg,stim_fb/negf.jpg,stim_fb/posf.jpg,stim_03/b.jpg,stim_03/a.jpg,1,1,f,4,55,295,0,f,1,0.883072022496,03,01,60.0197317377,PLT_learning_3,N,2014_Mrz_07_1338,P22,
stim_fb/ques.jpg,stim_fb/posf.jpg,stim_fb/negf.jpg,stim_03/f.jpg,stim_03/e.jpg,1,3,f,4,56,296,49,f,1,0.949691719266,03,01,60.0197317377,PLT_learning_3,N,2014_Mrz_07_1338,P22,
stim_fb/ques.jpg,stim_fb/negf.jpg,stim_fb/posf.jpg,stim_03/c.jpg,stim_03/d.jpg,2,2,j,4,57,297,34,j,1,0.88313188949,03,01,60.0197317377,PLT_learning_3,N,2014_Mrz_07_1338,P22,
stim_fb/ques.jpg,stim_fb/negf.jpg,stim_fb/posf.jpg,stim_03/d.jpg,stim_03/c.jpg,1,2,f,4,58,298,25,f,1,0.933080511122,03,01,60.0197317377,PLT_learning_3,N,2014_Mrz_07_1338,P22,
stim_fb/ques.jpg,stim_fb/negf.jpg,stim_fb/posf.jpg,stim_03/e.jpg,stim_03/f.jpg,2,3,j,4,59,299,55,j,1,0.883086984733,03,01,60.0197317377,PLT_learning_3,N,2014_Mrz_07_1338,P22,
stim_fb/ques.jpg,stim_fb/negf.jpg,stim_fb/posf.jpg,stim_03/e.jpg,stim_03/f.jpg,2,3,j,5,0,300,55,j,1,0.733166555265,03,01,60.0197317377,PLT_learning_3,N,2014_Mrz_07_1338,P22,
stim_fb/ques.jpg,stim_fb/negf.jpg,stim_fb/posf.jpg,stim_03/d.jpg,stim_03/c.jpg,1,2,f,5,1,301,21,f,1,0.649847131048,03,01,60.0197317377,PLT_learning_3,N,2014_Mrz_07_1338,P22,
stim_fb/ques.jpg,stim_fb/negf.jpg,stim_fb/posf.jpg,stim_03/d.jpg,stim_03/c.jpg,1,2,f,5,2,302,23,f,1,0.616528580505,03,01,60.0197317377,PLT_learning_3,N,2014_Mrz_07_1338,P22,
stim_fb/ques.jpg,stim_fb/posf.jpg,stim_fb/negf.jpg,stim_03/b.jpg,stim_03/a.jpg,1,1,f,5,3,303,9,f,1,0.816479579555,03,01,60.0197317377,PLT_learning_3,N,2014_Mrz_07_1338,P22,
stim_fb/ques.jpg,stim_fb/posf.jpg,stim_fb/negf.jpg,stim_03/a.jpg,stim_03/b.jpg,2,1,j,5,4,304,19,j,1,1.03331231603,03,01,60.0197317377,PLT_learning_3,N,2014_Mrz_07_1338,P22,
stim_fb/ques.jpg,stim_fb/negf.jpg,stim_fb/posf.jpg,stim_03/c.jpg,stim_03/d.jpg,2,2,j,5,5,305,30,j,1,0.933109425081,03,01,60.0197317377,PLT_learning_3,N,2014_Mrz_07_1338,P22,
stim_fb/ques.jpg,stim_fb/negf.jpg,stim_fb/posf.jpg,stim_03/d.jpg,stim_03/c.jpg,1,2,f,5,6,306,24,f,1,0.683152941885,03,01,60.0197317377,PLT_learning_3,N,2014_Mrz_07_1338,P22,
stim_fb/ques.jpg,stim_fb/negf.jpg,stim_fb/posf.jpg,stim_03/f.jpg,stim_03/e.jpg,1,3,f,5,7,307,44,f,1,0.98307173077,03,01,60.0197317377,PLT_learning_3,N,2014_Mrz_07_1338,P22,
stim_fb/ques.jpg,stim_fb/negf.jpg,stim_fb/posf.jpg,stim_03/e.jpg,stim_03/f.jpg,2,3,j,5,8,308,51,j,1,1.06639053845,03,01,60.0197317377,PLT_learning_3,N,2014_Mrz_07_1338,P22,
stim_fb/ques.jpg,stim_fb/negf.jpg,stim_fb/posf.jpg,stim_03/f.jpg,stim_03/e.jpg,1,3,f,5,9,309,42,f,1,0.683136418762,03,01,60.0197317377,PLT_learning_3,N,2014_Mrz_07_1338,P22,
stim_fb/ques.jpg,stim_fb/negf.jpg,stim_fb/posf.jpg,stim_03/e.jpg,stim_03/f.jpg,2,3,j,5,10,310,54,j,1,0.699807081875,03,01,60.0197317377,PLT_learning_3,N,2014_Mrz_07_1338,P22,
stim_fb/ques.jpg,stim_fb/posf.jpg,stim_fb/negf.jpg,stim_03/f.jpg,stim_03/e.jpg,1,3,f,5,11,311,48,f,1,0.516571139424,03,01,60.0197317377,PLT_learning_3,N,2014_Mrz_07_1338,P22,
stim_fb/ques.jpg,stim_fb/negf.jpg,stim_fb/posf.jpg,stim_03/e.jpg,stim_03/f.jpg,2,3,j,5,12,312,52,j,1,0.499888723059,03,01,60.0197317377,PLT_learning_3,N,2014_Mrz_07_1338,P22,
stim_fb/ques.jpg,stim_fb/posf.jpg,stim_fb/negf.jpg,stim_03/d.jpg,stim_03/c.jpg,1,2,f,5,13,313,28,f,1,0.833101623666,03,01,60.0197317377,PLT_learning_3,N,2014_Mrz_07_1338,P22,
stim_fb/ques.jpg,stim_fb/negf.jpg,stim_fb/posf.jpg,stim_03/a.jpg,stim_03/b.jpg,2,1,j,5,14,314,10,f,0,1.01645072274,03,01,60.0197317377,PLT_learning_3,N,2014_Mrz_07_1338,P22,
stim_fb/ques.jpg,stim_fb/negf.jpg,stim_fb/posf.jpg,stim_03/a.jpg,stim_03/b.jpg,2,1,j,5,15,315,12,j,1,0.699847198715,03,01,60.0197317377,PLT_learning_3,N,2014_Mrz_07_1338,P22,
stim_fb/ques.jpg,stim_fb/posf.jpg,stim_fb/negf.jpg,stim_03/d.jpg,stim_03/c.jpg,1,2,f,5,16,316,27,f,1,0.8664220599,03,01,60.0197317377,PLT_learning_3,N,2014_Mrz_07_1338,P22,
stim_fb/ques.jpg,stim_fb/negf.jpg,stim_fb/posf.jpg,stim_03/a.jpg,stim_03/b.jpg,2,1,j,5,17,317,13,j,1,0.683154352395,03,01,60.0197317377,PLT_learning_3,N,2014_Mrz_07_1338,P22,
stim_fb/ques.jpg,stim_fb/negf.jpg,stim_fb/posf.jpg,stim_03/f.jpg,stim_03/e.jpg,1,3,f,5,18,318,43,f,1,0.66649164408,03,01,60.0197317377,PLT_learning_3,N,2014_Mrz_07_1338,P22,
stim_fb/ques.jpg,stim_fb/negf.jpg,stim_fb/posf.jpg,stim_03/c.jpg,stim_03/d.jpg,2,2,j,5,19,319,34,j,1,0.616507119094,03,01,60.0197317377,PLT_learning_3,N,2014_Mrz_07_1338,P22,
stim_fb/ques.jpg,stim_fb/negf.jpg,stim_fb/posf.jpg,stim_03/b.jpg,stim_03/a.jpg,1,1,f,5,20,320,1,f,1,0.6165115822,03,01,60.0197317377,PLT_learning_3,N,2014_Mrz_07_1338,P22,
stim_fb/ques.jpg,stim_fb/posf.jpg,stim_fb/negf.jpg,stim_03/c.jpg,stim_03/d.jpg,2,2,j,5,21,321,38,j,1,0.516544628443,03,01,60.0197317377,PLT_learning_3,N,2014_Mrz_07_1338,P22,
stim_fb/ques.jpg,stim_fb/negf.jpg,stim_fb/posf.jpg,stim_03/c.jpg,stim_03/d.jpg,2,2,j,5,22,322,33,j,1,0.483258955726,03,01,60.0197317377,PLT_learning_3,N,2014_Mrz_07_1338,P22,
stim_fb/ques.jpg,stim_fb/posf.jpg,stim_fb/negf.jpg,stim_03/c.jpg,stim_03/d.jpg,2,2,j,5,23,323,39,j,1,0.766452976846,03,01,60.0197317377,PLT_learning_3,N,2014_Mrz_07_1338,P22,
stim_fb/ques.jpg,stim_fb/negf.jpg,stim_fb/posf.jpg,stim_03/f.jpg,stim_03/e.jpg,1,3,f,5,24,324,45,f,1,0.699890139585,03,01,60.0197317377,PLT_learning_3,N,2014_Mrz_07_1338,P22,
stim_fb/ques.jpg,stim_fb/negf.jpg,stim_fb/posf.jpg,stim_03/b.jpg,stim_03/a.jpg,1,1,f,5,25,325,5,f,1,0.73315102762,03,01,60.0197317377,PLT_learning_3,N,2014_Mrz_07_1338,P22,
stim_fb/ques.jpg,stim_fb/negf.jpg,stim_fb/posf.jpg,stim_03/b.jpg,stim_03/a.jpg,1,1,f,5,26,326,7,f,1,0.666472083398,03,01,60.0197317377,PLT_learning_3,N,2014_Mrz_07_1338,P22,
stim_fb/ques.jpg,stim_fb/posf.jpg,stim_fb/negf.jpg,stim_03/a.jpg,stim_03/b.jpg,2,1,j,5,27,327,18,j,1,0.816428921478,03,01,60.0197317377,PLT_learning_3,N,2014_Mrz_07_1338,P22,
stim_fb/ques.jpg,stim_fb/negf.jpg,stim_fb/posf.jpg,stim_03/f.jpg,stim_03/e.jpg,1,3,f,5,28,328,41,f,1,0.799791190324,03,01,60.0197317377,PLT_learning_3,N,2014_Mrz_07_1338,P22,
stim_fb/ques.jpg,stim_fb/negf.jpg,stim_fb/posf.jpg,stim_03/b.jpg,stim_03/a.jpg,1,1,f,5,29,329,2,f,1,0.633049918986,03,01,60.0197317377,PLT_learning_3,N,2014_Mrz_07_1338,P22,
stim_fb/ques.jpg,stim_fb/posf.jpg,stim_fb/negf.jpg,stim_03/d.jpg,stim_03/c.jpg,1,2,f,5,30,330,29,f,1,0.683147808108,03,01,60.0197317377,PLT_learning_3,N,2014_Mrz_07_1338,P22,
stim_fb/ques.jpg,stim_fb/negf.jpg,stim_fb/posf.jpg,stim_03/a.jpg,stim_03/b.jpg,2,1,j,5,31,331,14,j,1,0.74978960989,03,01,60.0197317377,PLT_learning_3,N,2014_Mrz_07_1338,P22,
stim_fb/ques.jpg,stim_fb/negf.jpg,stim_fb/posf.jpg,stim_03/a.jpg,stim_03/b.jpg,2,1,j,5,32,332,16,j,1,0.766464937615,03,01,60.0197317377,PLT_learning_3,N,2014_Mrz_07_1338,P22,
stim_fb/ques.jpg,stim_fb/posf.jpg,stim_fb/negf.jpg,stim_03/f.jpg,stim_03/e.jpg,1,3,f,5,33,333,49,f,1,0.833086947141,03,01,60.0197317377,PLT_learning_3,N,2014_Mrz_07_1338,P22,
stim_fb/ques.jpg,stim_fb/posf.jpg,stim_fb/negf.jpg,stim_03/b.jpg,stim_03/a.jpg,1,1,f,5,34,334,8,f,1,0.766460811345,03,01,60.0197317377,PLT_learning_3,N,2014_Mrz_07_1338,P22,
stim_fb/ques.jpg,stim_fb/negf.jpg,stim_fb/posf.jpg,stim_03/f.jpg,stim_03/e.jpg,1,3,f,5,35,335,40,f,1,0.783121519682,03,01,60.0197317377,PLT_learning_3,N,2014_Mrz_07_1338,P22,
stim_fb/ques.jpg,stim_fb/posf.jpg,stim_fb/negf.jpg,stim_03/c.jpg,stim_03/d.jpg,2,2,j,5,36,336,37,j,1,0.683158322276,03,01,60.0197317377,PLT_learning_3,N,2014_Mrz_07_1338,P22,
stim_fb/ques.jpg,stim_fb/negf.jpg,stim_fb/posf.jpg,stim_03/c.jpg,stim_03/d.jpg,2,2,j,5,37,337,32,j,1,0.549878270545,03,01,60.0197317377,PLT_learning_3,N,2014_Mrz_07_1338,P22,
stim_fb/ques.jpg,stim_fb/negf.jpg,stim_fb/posf.jpg,stim_03/b.jpg,stim_03/a.jpg,1,1,f,5,38,338,3,f,1,0.599813042711,03,01,60.0197317377,PLT_learning_3,N,2014_Mrz_07_1338,P22,
stim_fb/ques.jpg,stim_fb/posf.jpg,stim_fb/negf.jpg,stim_03/e.jpg,stim_03/f.jpg,2,3,j,5,39,339,56,j,1,1.0663763341,03,01,60.0197317377,PLT_learning_3,N,2014_Mrz_07_1338,P22,
stim_fb/ques.jpg,stim_fb/posf.jpg,stim_fb/negf.jpg,stim_03/f.jpg,stim_03/e.jpg,1,3,f,5,40,340,46,f,1,0.616503338684,03,01,60.0197317377,PLT_learning_3,N,2014_Mrz_07_1338,P22,
stim_fb/ques.jpg,stim_fb/negf.jpg,stim_fb/posf.jpg,stim_03/d.jpg,stim_03/c.jpg,1,2,f,5,41,341,22,f,1,0.833176636354,03,01,60.0197317377,PLT_learning_3,N,2014_Mrz_07_1338,P22,
stim_fb/ques.jpg,stim_fb/posf.jpg,stim_fb/negf.jpg,stim_03/f.jpg,stim_03/e.jpg,1,3,f,5,42,342,47,j,0,0.683173452931,03,01,60.0197317377,PLT_learning_3,N,2014_Mrz_07_1338,P22,
stim_fb/ques.jpg,stim_fb/posf.jpg,stim_fb/negf.jpg,stim_03/e.jpg,stim_03/f.jpg,2,3,j,5,43,343,57,f,0,0.816441992009,03,01,60.0197317377,PLT_learning_3,N,2014_Mrz_07_1338,P22,
stim_fb/ques.jpg,stim_fb/negf.jpg,stim_fb/posf.jpg,stim_03/b.jpg,stim_03/a.jpg,1,1,f,5,44,344,6,f,1,0.783133525561,03,01,60.0197317377,PLT_learning_3,N,2014_Mrz_07_1338,P22,
stim_fb/ques.jpg,stim_fb/negf.jpg,stim_fb/posf.jpg,stim_03/e.jpg,stim_03/f.jpg,2,3,j,5,45,345,50,f,0,0.583178027315,03,01,60.0197317377,PLT_learning_3,N,2014_Mrz_07_1338,P22,
stim_fb/ques.jpg,stim_fb/posf.jpg,stim_fb/negf.jpg,stim_03/e.jpg,stim_03/f.jpg,2,3,j,5,46,346,59,f,0,0.633188693362,03,01,60.0197317377,PLT_learning_3,N,2014_Mrz_07_1338,P22,
stim_fb/ques.jpg,stim_fb/negf.jpg,stim_fb/posf.jpg,stim_03/c.jpg,stim_03/d.jpg,2,2,j,5,47,347,36,j,1,0.983042233358,03,01,60.0197317377,PLT_learning_3,N,2014_Mrz_07_1338,P22,
stim_fb/ques.jpg,stim_fb/negf.jpg,stim_fb/posf.jpg,stim_03/a.jpg,stim_03/b.jpg,2,1,j,5,48,348,11,j,1,0.899767055258,03,01,60.0197317377,PLT_learning_3,N,2014_Mrz_07_1338,P22,
stim_fb/ques.jpg,stim_fb/negf.jpg,stim_fb/posf.jpg,stim_03/c.jpg,stim_03/d.jpg,2,2,j,5,49,349,31,j,1,0.949714305478,03,01,60.0197317377,PLT_learning_3,N,2014_Mrz_07_1338,P22,
stim_fb/ques.jpg,stim_fb/posf.jpg,stim_fb/negf.jpg,stim_03/e.jpg,stim_03/f.jpg,2,3,j,5,50,350,58,j,1,0.466547029921,03,01,60.0197317377,PLT_learning_3,N,2014_Mrz_07_1338,P22,
stim_fb/ques.jpg,stim_fb/negf.jpg,stim_fb/posf.jpg,stim_03/a.jpg,stim_03/b.jpg,2,1,j,5,51,351,15,j,1,0.799813310377,03,01,60.0197317377,PLT_learning_3,N,2014_Mrz_07_1338,P22,
stim_fb/ques.jpg,stim_fb/negf.jpg,stim_fb/posf.jpg,stim_03/d.jpg,stim_03/c.jpg,1,2,f,5,52,352,25,f,1,0.866437506344,03,01,60.0197317377,PLT_learning_3,N,2014_Mrz_07_1338,P22,
stim_fb/ques.jpg,stim_fb/negf.jpg,stim_fb/posf.jpg,stim_03/c.jpg,stim_03/d.jpg,2,2,j,5,53,353,35,j,1,0.799739350308,03,01,60.0197317377,PLT_learning_3,N,2014_Mrz_07_1338,P22,
stim_fb/ques.jpg,stim_fb/negf.jpg,stim_fb/posf.jpg,stim_03/a.jpg,stim_03/b.jpg,2,1,j,5,54,354,17,j,1,0.833108880726,03,01,60.0197317377,PLT_learning_3,N,2014_Mrz_07_1338,P22,
stim_fb/ques.jpg,stim_fb/negf.jpg,stim_fb/posf.jpg,stim_03/e.jpg,stim_03/f.jpg,2,3,j,5,55,355,53,f,0,1.03304081232,03,01,60.0197317377,PLT_learning_3,N,2014_Mrz_07_1338,P22,
stim_fb/ques.jpg,stim_fb/negf.jpg,stim_fb/posf.jpg,stim_03/d.jpg,stim_03/c.jpg,1,2,f,5,56,356,20,f,1,0.883120343755,03,01,60.0197317377,PLT_learning_3,N,2014_Mrz_07_1338,P22,
stim_fb/ques.jpg,stim_fb/negf.jpg,stim_fb/posf.jpg,stim_03/b.jpg,stim_03/a.jpg,1,1,f,5,57,357,0,f,1,0.916413312632,03,01,60.0197317377,PLT_learning_3,N,2014_Mrz_07_1338,P22,
stim_fb/ques.jpg,stim_fb/negf.jpg,stim_fb/posf.jpg,stim_03/d.jpg,stim_03/c.jpg,1,2,f,5,58,358,26,f,1,0.616521558028,03,01,60.0197317377,PLT_learning_3,N,2014_Mrz_07_1338,P22,
stim_fb/ques.jpg,stim_fb/negf.jpg,stim_fb/posf.jpg,stim_03/b.jpg,stim_03/a.jpg,1,1,f,5,59,359,4,f,1,0.549832240989,03,01,60.0197317377,PLT_learning_3,N,2014_Mrz_07_1338,P22,
