Fb3,Fb2,Fb1,Symbol2,Symbol1,PosCond,Pair,Correct,trials.thisRepN,trials.thisTrialN,trials.thisN,trials.thisIndex,Response.keys,Response.corr,Response.rt,Version,Session Number,frameRate,expName,StimCondition,date,Participant,
stim_fb/ques.jpg,stim_fb/negf.jpg,stim_fb/posf.jpg,stim_03/d.jpg,stim_03/c.jpg,1,2,f,0,0,0,26,f,1,0.833090995214,03,01,60.0191282866,PLT_learning_3,N,2014_Mrz_11_1416,P23,
stim_fb/ques.jpg,stim_fb/negf.jpg,stim_fb/posf.jpg,stim_03/a.jpg,stim_03/b.jpg,2,1,j,0,1,1,17,f,0,1.64950151389,03,01,60.0191282866,PLT_learning_3,N,2014_Mrz_11_1416,P23,
stim_fb/ques.jpg,stim_fb/posf.jpg,stim_fb/negf.jpg,stim_03/c.jpg,stim_03/d.jpg,2,2,j,0,2,2,38,j,1,1.18305109341,03,01,60.0191282866,PLT_learning_3,N,2014_Mrz_11_1416,P23,
stim_fb/ques.jpg,stim_fb/posf.jpg,stim_fb/negf.jpg,stim_03/f.jpg,stim_03/e.jpg,1,3,f,0,3,3,48,j,0,1.08303707853,03,01,60.0191282866,PLT_learning_3,N,2014_Mrz_11_1416,P23,
stim_fb/ques.jpg,stim_fb/negf.jpg,stim_fb/posf.jpg,stim_03/a.jpg,stim_03/b.jpg,2,1,j,0,4,4,13,j,1,1.38293373533,03,01,60.0191282866,PLT_learning_3,N,2014_Mrz_11_1416,P23,
stim_fb/ques.jpg,stim_fb/negf.jpg,stim_fb/posf.jpg,stim_03/a.jpg,stim_03/b.jpg,2,1,j,0,5,5,14,f,0,1.11632284749,03,01,60.0191282866,PLT_learning_3,N,2014_Mrz_11_1416,P23,
stim_fb/ques.jpg,stim_fb/negf.jpg,stim_fb/posf.jpg,stim_03/b.jpg,stim_03/a.jpg,1,1,f,0,6,6,7,j,0,1.29960629316,03,01,60.0191282866,PLT_learning_3,N,2014_Mrz_11_1416,P23,
stim_fb/ques.jpg,stim_fb/posf.jpg,stim_fb/negf.jpg,stim_03/d.jpg,stim_03/c.jpg,1,2,f,0,7,7,27,f,1,0.899800357139,03,01,60.0191282866,PLT_learning_3,N,2014_Mrz_11_1416,P23,
stim_fb/ques.jpg,stim_fb/negf.jpg,stim_fb/posf.jpg,stim_03/f.jpg,stim_03/e.jpg,1,3,f,0,8,8,43,j,0,1.33293994429,03,01,60.0191282866,PLT_learning_3,N,2014_Mrz_11_1416,P23,
stim_fb/ques.jpg,stim_fb/negf.jpg,stim_fb/posf.jpg,stim_03/a.jpg,stim_03/b.jpg,2,1,j,0,9,9,11,j,1,1.44959509178,03,01,60.0191282866,PLT_learning_3,N,2014_Mrz_11_1416,P23,
stim_fb/ques.jpg,stim_fb/posf.jpg,stim_fb/negf.jpg,stim_03/e.jpg,stim_03/f.jpg,2,3,j,0,10,10,58,f,0,1.13299629252,03,01,60.0191282866,PLT_learning_3,N,2014_Mrz_11_1416,P23,
stim_fb/ques.jpg,stim_fb/negf.jpg,stim_fb/posf.jpg,stim_03/c.jpg,stim_03/d.jpg,2,2,j,0,11,11,33,f,0,1.49953670898,03,01,60.0191282866,PLT_learning_3,N,2014_Mrz_11_1416,P23,
stim_fb/ques.jpg,stim_fb/negf.jpg,stim_fb/posf.jpg,stim_03/b.jpg,stim_03/a.jpg,1,1,f,0,12,12,2,None,0,,03,01,60.0191282866,PLT_learning_3,N,2014_Mrz_11_1416,P23,
stim_fb/ques.jpg,stim_fb/posf.jpg,stim_fb/negf.jpg,stim_03/f.jpg,stim_03/e.jpg,1,3,f,0,13,13,47,j,0,0.949753992248,03,01,60.0191282866,PLT_learning_3,N,2014_Mrz_11_1416,P23,
stim_fb/ques.jpg,stim_fb/negf.jpg,stim_fb/posf.jpg,stim_03/e.jpg,stim_03/f.jpg,2,3,j,0,14,14,55,j,1,1.43292037157,03,01,60.0191282866,PLT_learning_3,N,2014_Mrz_11_1416,P23,
stim_fb/ques.jpg,stim_fb/posf.jpg,stim_fb/negf.jpg,stim_03/e.jpg,stim_03/f.jpg,2,3,j,0,15,15,56,j,1,1.19964863253,03,01,60.0191282866,PLT_learning_3,N,2014_Mrz_11_1416,P23,
stim_fb/ques.jpg,stim_fb/negf.jpg,stim_fb/posf.jpg,stim_03/f.jpg,stim_03/e.jpg,1,3,f,0,16,16,45,f,1,1.59952141592,03,01,60.0191282866,PLT_learning_3,N,2014_Mrz_11_1416,P23,
stim_fb/ques.jpg,stim_fb/negf.jpg,stim_fb/posf.jpg,stim_03/d.jpg,stim_03/c.jpg,1,2,f,0,17,17,22,f,1,1.41625740161,03,01,60.0191282866,PLT_learning_3,N,2014_Mrz_11_1416,P23,
stim_fb/ques.jpg,stim_fb/negf.jpg,stim_fb/posf.jpg,stim_03/c.jpg,stim_03/d.jpg,2,2,j,0,18,18,34,j,1,1.09967536005,03,01,60.0191282866,PLT_learning_3,N,2014_Mrz_11_1416,P23,
stim_fb/ques.jpg,stim_fb/negf.jpg,stim_fb/posf.jpg,stim_03/d.jpg,stim_03/c.jpg,1,2,f,0,19,19,25,f,1,0.816405947301,03,01,60.0191282866,PLT_learning_3,N,2014_Mrz_11_1416,P23,
stim_fb/ques.jpg,stim_fb/negf.jpg,stim_fb/posf.jpg,stim_03/e.jpg,stim_03/f.jpg,2,3,j,0,20,20,54,f,0,1.06636949809,03,01,60.0191282866,PLT_learning_3,N,2014_Mrz_11_1416,P23,
stim_fb/ques.jpg,stim_fb/negf.jpg,stim_fb/posf.jpg,stim_03/d.jpg,stim_03/c.jpg,1,2,f,0,21,21,24,f,1,1.54953874656,03,01,60.0191282866,PLT_learning_3,N,2014_Mrz_11_1416,P23,
stim_fb/ques.jpg,stim_fb/negf.jpg,stim_fb/posf.jpg,stim_03/f.jpg,stim_03/e.jpg,1,3,f,0,22,22,40,f,1,0.916386473837,03,01,60.0191282866,PLT_learning_3,N,2014_Mrz_11_1416,P23,
stim_fb/ques.jpg,stim_fb/posf.jpg,stim_fb/negf.jpg,stim_03/f.jpg,stim_03/e.jpg,1,3,f,0,23,23,49,f,1,1.16632326402,03,01,60.0191282866,PLT_learning_3,N,2014_Mrz_11_1416,P23,
stim_fb/ques.jpg,stim_fb/posf.jpg,stim_fb/negf.jpg,stim_03/c.jpg,stim_03/d.jpg,2,2,j,0,24,24,37,j,1,1.21627815927,03,01,60.0191282866,PLT_learning_3,N,2014_Mrz_11_1416,P23,
stim_fb/ques.jpg,stim_fb/posf.jpg,stim_fb/negf.jpg,stim_03/f.jpg,stim_03/e.jpg,1,3,f,0,25,25,46,None,0,,03,01,60.0191282866,PLT_learning_3,N,2014_Mrz_11_1416,P23,
stim_fb/ques.jpg,stim_fb/negf.jpg,stim_fb/posf.jpg,stim_03/c.jpg,stim_03/d.jpg,2,2,j,0,26,26,35,j,1,0.699823048612,03,01,60.0191282866,PLT_learning_3,N,2014_Mrz_11_1416,P23,
stim_fb/ques.jpg,stim_fb/negf.jpg,stim_fb/posf.jpg,stim_03/c.jpg,stim_03/d.jpg,2,2,j,0,27,27,30,j,1,0.666498444003,03,01,60.0191282866,PLT_learning_3,N,2014_Mrz_11_1416,P23,
stim_fb/ques.jpg,stim_fb/negf.jpg,stim_fb/posf.jpg,stim_03/d.jpg,stim_03/c.jpg,1,2,f,0,28,28,21,j,0,1.51623138085,03,01,60.0191282866,PLT_learning_3,N,2014_Mrz_11_1416,P23,
stim_fb/ques.jpg,stim_fb/negf.jpg,stim_fb/posf.jpg,stim_03/f.jpg,stim_03/e.jpg,1,3,f,0,29,29,41,j,0,1.06634305327,03,01,60.0191282866,PLT_learning_3,N,2014_Mrz_11_1416,P23,
stim_fb/ques.jpg,stim_fb/negf.jpg,stim_fb/posf.jpg,stim_03/b.jpg,stim_03/a.jpg,1,1,f,0,30,30,1,f,1,1.26624986635,03,01,60.0191282866,PLT_learning_3,N,2014_Mrz_11_1416,P23,
stim_fb/ques.jpg,stim_fb/negf.jpg,stim_fb/posf.jpg,stim_03/e.jpg,stim_03/f.jpg,2,3,j,0,31,31,52,j,1,1.46623059138,03,01,60.0191282866,PLT_learning_3,N,2014_Mrz_11_1416,P23,
stim_fb/ques.jpg,stim_fb/negf.jpg,stim_fb/posf.jpg,stim_03/a.jpg,stim_03/b.jpg,2,1,j,0,32,32,15,j,1,1.34960420146,03,01,60.0191282866,PLT_learning_3,N,2014_Mrz_11_1416,P23,
stim_fb/ques.jpg,stim_fb/negf.jpg,stim_fb/posf.jpg,stim_03/a.jpg,stim_03/b.jpg,2,1,j,0,33,33,10,f,0,1.26631906257,03,01,60.0191282866,PLT_learning_3,N,2014_Mrz_11_1416,P23,
stim_fb/ques.jpg,stim_fb/negf.jpg,stim_fb/posf.jpg,stim_03/b.jpg,stim_03/a.jpg,1,1,f,0,34,34,5,f,1,0.883102349974,03,01,60.0191282866,PLT_learning_3,N,2014_Mrz_11_1416,P23,
stim_fb/ques.jpg,stim_fb/negf.jpg,stim_fb/posf.jpg,stim_03/a.jpg,stim_03/b.jpg,2,1,j,0,35,35,16,j,1,1.23319835942,03,01,60.0191282866,PLT_learning_3,N,2014_Mrz_11_1416,P23,
stim_fb/ques.jpg,stim_fb/posf.jpg,stim_fb/negf.jpg,stim_03/a.jpg,stim_03/b.jpg,2,1,j,0,36,36,18,j,1,1.1163623087,03,01,60.0191282866,PLT_learning_3,N,2014_Mrz_11_1416,P23,
stim_fb/ques.jpg,stim_fb/negf.jpg,stim_fb/posf.jpg,stim_03/a.jpg,stim_03/b.jpg,2,1,j,0,37,37,12,j,1,1.2329615681,03,01,60.0191282866,PLT_learning_3,N,2014_Mrz_11_1416,P23,
stim_fb/ques.jpg,stim_fb/negf.jpg,stim_fb/posf.jpg,stim_03/e.jpg,stim_03/f.jpg,2,3,j,0,38,38,51,j,1,1.2663039289,03,01,60.0191282866,PLT_learning_3,N,2014_Mrz_11_1416,P23,
stim_fb/ques.jpg,stim_fb/posf.jpg,stim_fb/negf.jpg,stim_03/d.jpg,stim_03/c.jpg,1,2,f,0,39,39,28,f,1,1.09972072195,03,01,60.0191282866,PLT_learning_3,N,2014_Mrz_11_1416,P23,
stim_fb/ques.jpg,stim_fb/negf.jpg,stim_fb/posf.jpg,stim_03/d.jpg,stim_03/c.jpg,1,2,f,0,40,40,20,j,0,1.58284120405,03,01,60.0191282866,PLT_learning_3,N,2014_Mrz_11_1416,P23,
stim_fb/ques.jpg,stim_fb/negf.jpg,stim_fb/posf.jpg,stim_03/c.jpg,stim_03/d.jpg,2,2,j,0,41,41,36,j,1,0.999704917614,03,01,60.0191282866,PLT_learning_3,N,2014_Mrz_11_1416,P23,
stim_fb/ques.jpg,stim_fb/negf.jpg,stim_fb/posf.jpg,stim_03/f.jpg,stim_03/e.jpg,1,3,f,0,42,42,44,f,1,1.63283422518,03,01,60.0191282866,PLT_learning_3,N,2014_Mrz_11_1416,P23,
stim_fb/ques.jpg,stim_fb/negf.jpg,stim_fb/posf.jpg,stim_03/b.jpg,stim_03/a.jpg,1,1,f,0,43,43,6,f,1,1.23297624162,03,01,60.0191282866,PLT_learning_3,N,2014_Mrz_11_1416,P23,
stim_fb/ques.jpg,stim_fb/posf.jpg,stim_fb/negf.jpg,stim_03/a.jpg,stim_03/b.jpg,2,1,j,0,44,44,19,j,1,1.38292611136,03,01,60.0191282866,PLT_learning_3,N,2014_Mrz_11_1416,P23,
stim_fb/ques.jpg,stim_fb/negf.jpg,stim_fb/posf.jpg,stim_03/e.jpg,stim_03/f.jpg,2,3,j,0,45,45,53,j,1,1.26623862438,03,01,60.0191282866,PLT_learning_3,N,2014_Mrz_11_1416,P23,
stim_fb/ques.jpg,stim_fb/negf.jpg,stim_fb/posf.jpg,stim_03/f.jpg,stim_03/e.jpg,1,3,f,0,46,46,42,f,1,0.849732660158,03,01,60.0191282866,PLT_learning_3,N,2014_Mrz_11_1416,P23,
stim_fb/ques.jpg,stim_fb/negf.jpg,stim_fb/posf.jpg,stim_03/c.jpg,stim_03/d.jpg,2,2,j,0,47,47,32,j,1,0.933061557952,03,01,60.0191282866,PLT_learning_3,N,2014_Mrz_11_1416,P23,
stim_fb/ques.jpg,stim_fb/posf.jpg,stim_fb/negf.jpg,stim_03/b.jpg,stim_03/a.jpg,1,1,f,0,48,48,8,f,1,1.31627803897,03,01,60.0191282866,PLT_learning_3,N,2014_Mrz_11_1416,P23,
stim_fb/ques.jpg,stim_fb/negf.jpg,stim_fb/posf.jpg,stim_03/b.jpg,stim_03/a.jpg,1,1,f,0,49,49,0,f,1,0.93307541945,03,01,60.0191282866,PLT_learning_3,N,2014_Mrz_11_1416,P23,
stim_fb/ques.jpg,stim_fb/posf.jpg,stim_fb/negf.jpg,stim_03/d.jpg,stim_03/c.jpg,1,2,f,0,50,50,29,f,1,0.883103790559,03,01,60.0191282866,PLT_learning_3,N,2014_Mrz_11_1416,P23,
stim_fb/ques.jpg,stim_fb/negf.jpg,stim_fb/posf.jpg,stim_03/b.jpg,stim_03/a.jpg,1,1,f,0,51,51,4,f,1,0.816441922835,03,01,60.0191282866,PLT_learning_3,N,2014_Mrz_11_1416,P23,
stim_fb/ques.jpg,stim_fb/negf.jpg,stim_fb/posf.jpg,stim_03/e.jpg,stim_03/f.jpg,2,3,j,0,52,52,50,j,1,0.849760485408,03,01,60.0191282866,PLT_learning_3,N,2014_Mrz_11_1416,P23,
stim_fb/ques.jpg,stim_fb/negf.jpg,stim_fb/posf.jpg,stim_03/c.jpg,stim_03/d.jpg,2,2,j,0,53,53,31,f,0,1.33292113247,03,01,60.0191282866,PLT_learning_3,N,2014_Mrz_11_1416,P23,
stim_fb/ques.jpg,stim_fb/negf.jpg,stim_fb/posf.jpg,stim_03/d.jpg,stim_03/c.jpg,1,2,f,0,54,54,23,f,1,0.866425440315,03,01,60.0191282866,PLT_learning_3,N,2014_Mrz_11_1416,P23,
stim_fb/ques.jpg,stim_fb/posf.jpg,stim_fb/negf.jpg,stim_03/e.jpg,stim_03/f.jpg,2,3,j,0,55,55,57,j,1,0.949724527919,03,01,60.0191282866,PLT_learning_3,N,2014_Mrz_11_1416,P23,
stim_fb/ques.jpg,stim_fb/posf.jpg,stim_fb/negf.jpg,stim_03/b.jpg,stim_03/a.jpg,1,1,f,0,56,56,9,f,1,1.09967434352,03,01,60.0191282866,PLT_learning_3,N,2014_Mrz_11_1416,P23,
stim_fb/ques.jpg,stim_fb/posf.jpg,stim_fb/negf.jpg,stim_03/c.jpg,stim_03/d.jpg,2,2,j,0,57,57,39,j,1,1.01641665696,03,01,60.0191282866,PLT_learning_3,N,2014_Mrz_11_1416,P23,
stim_fb/ques.jpg,stim_fb/posf.jpg,stim_fb/negf.jpg,stim_03/e.jpg,stim_03/f.jpg,2,3,j,0,58,58,59,f,0,0.833108411559,03,01,60.0191282866,PLT_learning_3,N,2014_Mrz_11_1416,P23,
stim_fb/ques.jpg,stim_fb/negf.jpg,stim_fb/posf.jpg,stim_03/b.jpg,stim_03/a.jpg,1,1,f,0,59,59,3,j,0,1.09969225911,03,01,60.0191282866,PLT_learning_3,N,2014_Mrz_11_1416,P23,
stim_fb/ques.jpg,stim_fb/negf.jpg,stim_fb/posf.jpg,stim_03/d.jpg,stim_03/c.jpg,1,2,f,1,0,60,21,f,1,0.883127558712,03,01,60.0191282866,PLT_learning_3,N,2014_Mrz_11_1416,P23,
stim_fb/ques.jpg,stim_fb/negf.jpg,stim_fb/posf.jpg,stim_03/c.jpg,stim_03/d.jpg,2,2,j,1,1,61,32,j,1,0.833098580091,03,01,60.0191282866,PLT_learning_3,N,2014_Mrz_11_1416,P23,
stim_fb/ques.jpg,stim_fb/posf.jpg,stim_fb/negf.jpg,stim_03/b.jpg,stim_03/a.jpg,1,1,f,1,2,62,8,f,1,1.19965439788,03,01,60.0191282866,PLT_learning_3,N,2014_Mrz_11_1416,P23,
stim_fb/ques.jpg,stim_fb/negf.jpg,stim_fb/posf.jpg,stim_03/a.jpg,stim_03/b.jpg,2,1,j,1,3,63,11,f,0,1.61615808544,03,01,60.0191282866,PLT_learning_3,N,2014_Mrz_11_1416,P23,
stim_fb/ques.jpg,stim_fb/negf.jpg,stim_fb/posf.jpg,stim_03/c.jpg,stim_03/d.jpg,2,2,j,1,4,64,31,j,1,0.866428011714,03,01,60.0191282866,PLT_learning_3,N,2014_Mrz_11_1416,P23,
stim_fb/ques.jpg,stim_fb/negf.jpg,stim_fb/posf.jpg,stim_03/c.jpg,stim_03/d.jpg,2,2,j,1,5,65,36,j,1,0.98302002609,03,01,60.0191282866,PLT_learning_3,N,2014_Mrz_11_1416,P23,
stim_fb/ques.jpg,stim_fb/negf.jpg,stim_fb/posf.jpg,stim_03/b.jpg,stim_03/a.jpg,1,1,f,1,6,66,1,f,1,1.04970915967,03,01,60.0191282866,PLT_learning_3,N,2014_Mrz_11_1416,P23,
stim_fb/ques.jpg,stim_fb/negf.jpg,stim_fb/posf.jpg,stim_03/d.jpg,stim_03/c.jpg,1,2,f,1,7,67,24,f,1,1.01638527084,03,01,60.0191282866,PLT_learning_3,N,2014_Mrz_11_1416,P23,
stim_fb/ques.jpg,stim_fb/negf.jpg,stim_fb/posf.jpg,stim_03/d.jpg,stim_03/c.jpg,1,2,f,1,8,68,26,f,1,0.883101998098,03,01,60.0191282866,PLT_learning_3,N,2014_Mrz_11_1416,P23,
stim_fb/ques.jpg,stim_fb/posf.jpg,stim_fb/negf.jpg,stim_03/f.jpg,stim_03/e.jpg,1,3,f,1,9,69,46,f,1,0.899777307775,03,01,60.0191282866,PLT_learning_3,N,2014_Mrz_11_1416,P23,
stim_fb/ques.jpg,stim_fb/negf.jpg,stim_fb/posf.jpg,stim_03/b.jpg,stim_03/a.jpg,1,1,f,1,10,70,2,f,1,1.09967732394,03,01,60.0191282866,PLT_learning_3,N,2014_Mrz_11_1416,P23,
stim_fb/ques.jpg,stim_fb/negf.jpg,stim_fb/posf.jpg,stim_03/a.jpg,stim_03/b.jpg,2,1,j,1,11,71,17,j,1,1.09970469506,03,01,60.0191282866,PLT_learning_3,N,2014_Mrz_11_1416,P23,
stim_fb/ques.jpg,stim_fb/posf.jpg,stim_fb/negf.jpg,stim_03/e.jpg,stim_03/f.jpg,2,3,j,1,12,72,56,j,1,0.933074709684,03,01,60.0191282866,PLT_learning_3,N,2014_Mrz_11_1416,P23,
stim_fb/ques.jpg,stim_fb/negf.jpg,stim_fb/posf.jpg,stim_03/e.jpg,stim_03/f.jpg,2,3,j,1,13,73,52,f,0,0.716476863795,03,01,60.0191282866,PLT_learning_3,N,2014_Mrz_11_1416,P23,
stim_fb/ques.jpg,stim_fb/posf.jpg,stim_fb/negf.jpg,stim_03/d.jpg,stim_03/c.jpg,1,2,f,1,14,74,27,f,1,0.699823156882,03,01,60.0191282866,PLT_learning_3,N,2014_Mrz_11_1416,P23,
stim_fb/ques.jpg,stim_fb/negf.jpg,stim_fb/posf.jpg,stim_03/f.jpg,stim_03/e.jpg,1,3,f,1,15,75,40,j,0,1.0497106574,03,01,60.0191282866,PLT_learning_3,N,2014_Mrz_11_1416,P23,
stim_fb/ques.jpg,stim_fb/posf.jpg,stim_fb/negf.jpg,stim_03/e.jpg,stim_03/f.jpg,2,3,j,1,16,76,58,f,0,0.616471609719,03,01,60.0191282866,PLT_learning_3,N,2014_Mrz_11_1416,P23,
stim_fb/ques.jpg,stim_fb/negf.jpg,stim_fb/posf.jpg,stim_03/a.jpg,stim_03/b.jpg,2,1,j,1,17,77,12,j,1,1.01638257313,03,01,60.0191282866,PLT_learning_3,N,2014_Mrz_11_1416,P23,
stim_fb/ques.jpg,stim_fb/negf.jpg,stim_fb/posf.jpg,stim_03/d.jpg,stim_03/c.jpg,1,2,f,1,18,78,25,f,1,0.883058554979,03,01,60.0191282866,PLT_learning_3,N,2014_Mrz_11_1416,P23,
stim_fb/ques.jpg,stim_fb/negf.jpg,stim_fb/posf.jpg,stim_03/d.jpg,stim_03/c.jpg,1,2,f,1,19,79,20,f,1,0.816461056454,03,01,60.0191282866,PLT_learning_3,N,2014_Mrz_11_1416,P23,
stim_fb/ques.jpg,stim_fb/posf.jpg,stim_fb/negf.jpg,stim_03/a.jpg,stim_03/b.jpg,2,1,j,1,20,80,18,j,1,0.933059287301,03,01,60.0191282866,PLT_learning_3,N,2014_Mrz_11_1416,P23,
stim_fb/ques.jpg,stim_fb/negf.jpg,stim_fb/posf.jpg,stim_03/c.jpg,stim_03/d.jpg,2,2,j,1,21,81,30,j,1,1.0997031432,03,01,60.0191282866,PLT_learning_3,N,2014_Mrz_11_1416,P23,
stim_fb/ques.jpg,stim_fb/negf.jpg,stim_fb/posf.jpg,stim_03/e.jpg,stim_03/f.jpg,2,3,j,1,22,82,53,f,0,1.09972819555,03,01,60.0191282866,PLT_learning_3,N,2014_Mrz_11_1416,P23,
stim_fb/ques.jpg,stim_fb/posf.jpg,stim_fb/negf.jpg,stim_03/f.jpg,stim_03/e.jpg,1,3,f,1,23,83,49,j,0,0.999716382146,03,01,60.0191282866,PLT_learning_3,N,2014_Mrz_11_1416,P23,
stim_fb/ques.jpg,stim_fb/negf.jpg,stim_fb/posf.jpg,stim_03/c.jpg,stim_03/d.jpg,2,2,j,1,24,84,34,j,1,0.933073855558,03,01,60.0191282866,PLT_learning_3,N,2014_Mrz_11_1416,P23,
stim_fb/ques.jpg,stim_fb/negf.jpg,stim_fb/posf.jpg,stim_03/a.jpg,stim_03/b.jpg,2,1,j,1,25,85,13,j,1,1.09968958846,03,01,60.0191282866,PLT_learning_3,N,2014_Mrz_11_1416,P23,
stim_fb/ques.jpg,stim_fb/negf.jpg,stim_fb/posf.jpg,stim_03/f.jpg,stim_03/e.jpg,1,3,f,1,26,86,42,j,0,0.883080470521,03,01,60.0191282866,PLT_learning_3,N,2014_Mrz_11_1416,P23,
stim_fb/ques.jpg,stim_fb/posf.jpg,stim_fb/negf.jpg,stim_03/a.jpg,stim_03/b.jpg,2,1,j,1,27,87,19,j,1,1.16632264448,03,01,60.0191282866,PLT_learning_3,N,2014_Mrz_11_1416,P23,
stim_fb/ques.jpg,stim_fb/posf.jpg,stim_fb/negf.jpg,stim_03/e.jpg,stim_03/f.jpg,2,3,j,1,28,88,59,f,0,1.19965196182,03,01,60.0191282866,PLT_learning_3,N,2014_Mrz_11_1416,P23,
stim_fb/ques.jpg,stim_fb/negf.jpg,stim_fb/posf.jpg,stim_03/e.jpg,stim_03/f.jpg,2,3,j,1,29,89,54,j,1,1.46623238685,03,01,60.0191282866,PLT_learning_3,N,2014_Mrz_11_1416,P23,
stim_fb/ques.jpg,stim_fb/posf.jpg,stim_fb/negf.jpg,stim_03/f.jpg,stim_03/e.jpg,1,3,f,1,30,90,47,f,1,1.36626427822,03,01,60.0191282866,PLT_learning_3,N,2014_Mrz_11_1416,P23,
stim_fb/ques.jpg,stim_fb/negf.jpg,stim_fb/posf.jpg,stim_03/b.jpg,stim_03/a.jpg,1,1,f,1,31,91,4,j,0,0.299954701263,03,01,60.0191282866,PLT_learning_3,N,2014_Mrz_11_1416,P23,
stim_fb/ques.jpg,stim_fb/negf.jpg,stim_fb/posf.jpg,stim_03/b.jpg,stim_03/a.jpg,1,1,f,1,32,92,7,j,0,1.0330497656,03,01,60.0191282866,PLT_learning_3,N,2014_Mrz_11_1416,P23,
stim_fb/ques.jpg,stim_fb/negf.jpg,stim_fb/posf.jpg,stim_03/c.jpg,stim_03/d.jpg,2,2,j,1,33,93,35,j,1,0.949737586418,03,01,60.0191282866,PLT_learning_3,N,2014_Mrz_11_1416,P23,
stim_fb/ques.jpg,stim_fb/negf.jpg,stim_fb/posf.jpg,stim_03/b.jpg,stim_03/a.jpg,1,1,f,1,34,94,3,f,1,1.14971518667,03,01,60.0191282866,PLT_learning_3,N,2014_Mrz_11_1416,P23,
stim_fb/ques.jpg,stim_fb/negf.jpg,stim_fb/posf.jpg,stim_03/a.jpg,stim_03/b.jpg,2,1,j,1,35,95,10,j,1,0.933031711672,03,01,60.0191282866,PLT_learning_3,N,2014_Mrz_11_1416,P23,
stim_fb/ques.jpg,stim_fb/negf.jpg,stim_fb/posf.jpg,stim_03/e.jpg,stim_03/f.jpg,2,3,j,1,36,96,50,f,0,0.916249371624,03,01,60.0191282866,PLT_learning_3,N,2014_Mrz_11_1416,P23,
stim_fb/ques.jpg,stim_fb/negf.jpg,stim_fb/posf.jpg,stim_03/a.jpg,stim_03/b.jpg,2,1,j,1,37,97,15,j,1,0.699826404965,03,01,60.0191282866,PLT_learning_3,N,2014_Mrz_11_1416,P23,
stim_fb/ques.jpg,stim_fb/posf.jpg,stim_fb/negf.jpg,stim_03/d.jpg,stim_03/c.jpg,1,2,f,1,38,98,28,f,1,0.83310671233,03,01,60.0191282866,PLT_learning_3,N,2014_Mrz_11_1416,P23,
stim_fb/ques.jpg,stim_fb/negf.jpg,stim_fb/posf.jpg,stim_03/f.jpg,stim_03/e.jpg,1,3,f,1,39,99,43,j,0,1.13304174765,03,01,60.0191282866,PLT_learning_3,N,2014_Mrz_11_1416,P23,
stim_fb/ques.jpg,stim_fb/negf.jpg,stim_fb/posf.jpg,stim_03/e.jpg,stim_03/f.jpg,2,3,j,1,40,100,55,f,0,1.31625364225,03,01,60.0191282866,PLT_learning_3,N,2014_Mrz_11_1416,P23,
stim_fb/ques.jpg,stim_fb/posf.jpg,stim_fb/negf.jpg,stim_03/c.jpg,stim_03/d.jpg,2,2,j,1,41,101,38,j,1,0.816464078977,03,01,60.0191282866,PLT_learning_3,N,2014_Mrz_11_1416,P23,
stim_fb/ques.jpg,stim_fb/negf.jpg,stim_fb/posf.jpg,stim_03/a.jpg,stim_03/b.jpg,2,1,j,1,42,102,16,j,1,0.94969646207,03,01,60.0191282866,PLT_learning_3,N,2014_Mrz_11_1416,P23,
stim_fb/ques.jpg,stim_fb/posf.jpg,stim_fb/negf.jpg,stim_03/c.jpg,stim_03/d.jpg,2,2,j,1,43,103,39,j,1,0.883042428845,03,01,60.0191282866,PLT_learning_3,N,2014_Mrz_11_1416,P23,
stim_fb/ques.jpg,stim_fb/negf.jpg,stim_fb/posf.jpg,stim_03/b.jpg,stim_03/a.jpg,1,1,f,1,44,104,6,f,1,1.14968195998,03,01,60.0191282866,PLT_learning_3,N,2014_Mrz_11_1416,P23,
stim_fb/ques.jpg,stim_fb/posf.jpg,stim_fb/negf.jpg,stim_03/e.jpg,stim_03/f.jpg,2,3,j,1,45,105,57,f,0,1.19963769431,03,01,60.0191282866,PLT_learning_3,N,2014_Mrz_11_1416,P23,
stim_fb/ques.jpg,stim_fb/negf.jpg,stim_fb/posf.jpg,stim_03/b.jpg,stim_03/a.jpg,1,1,f,1,46,106,5,j,0,1.34959724815,03,01,60.0191282866,PLT_learning_3,N,2014_Mrz_11_1416,P23,
stim_fb/ques.jpg,stim_fb/posf.jpg,stim_fb/negf.jpg,stim_03/d.jpg,stim_03/c.jpg,1,2,f,1,47,107,29,f,1,1.13300260223,03,01,60.0191282866,PLT_learning_3,N,2014_Mrz_11_1416,P23,
stim_fb/ques.jpg,stim_fb/negf.jpg,stim_fb/posf.jpg,stim_03/d.jpg,stim_03/c.jpg,1,2,f,1,48,108,22,f,1,0.683129594779,03,01,60.0191282866,PLT_learning_3,N,2014_Mrz_11_1416,P23,
stim_fb/ques.jpg,stim_fb/posf.jpg,stim_fb/negf.jpg,stim_03/c.jpg,stim_03/d.jpg,2,2,j,1,49,109,37,j,1,0.716494589911,03,01,60.0191282866,PLT_learning_3,N,2014_Mrz_11_1416,P23,
stim_fb/ques.jpg,stim_fb/negf.jpg,stim_fb/posf.jpg,stim_03/e.jpg,stim_03/f.jpg,2,3,j,1,50,110,51,f,0,0.81641964038,03,01,60.0191282866,PLT_learning_3,N,2014_Mrz_11_1416,P23,
stim_fb/ques.jpg,stim_fb/posf.jpg,stim_fb/negf.jpg,stim_03/b.jpg,stim_03/a.jpg,1,1,f,1,51,111,9,f,1,0.766457151235,03,01,60.0191282866,PLT_learning_3,N,2014_Mrz_11_1416,P23,
stim_fb/ques.jpg,stim_fb/negf.jpg,stim_fb/posf.jpg,stim_03/f.jpg,stim_03/e.jpg,1,3,f,1,52,112,45,f,1,0.71642023887,03,01,60.0191282866,PLT_learning_3,N,2014_Mrz_11_1416,P23,
stim_fb/ques.jpg,stim_fb/negf.jpg,stim_fb/posf.jpg,stim_03/b.jpg,stim_03/a.jpg,1,1,f,1,53,113,0,f,1,0.982991193332,03,01,60.0191282866,PLT_learning_3,N,2014_Mrz_11_1416,P23,
stim_fb/ques.jpg,stim_fb/negf.jpg,stim_fb/posf.jpg,stim_03/d.jpg,stim_03/c.jpg,1,2,f,1,54,114,23,f,1,1.04965707906,03,01,60.0191282866,PLT_learning_3,N,2014_Mrz_11_1416,P23,
stim_fb/ques.jpg,stim_fb/posf.jpg,stim_fb/negf.jpg,stim_03/f.jpg,stim_03/e.jpg,1,3,f,1,55,115,48,j,0,0.966412450987,03,01,60.0191282866,PLT_learning_3,N,2014_Mrz_11_1416,P23,
stim_fb/ques.jpg,stim_fb/negf.jpg,stim_fb/posf.jpg,stim_03/f.jpg,stim_03/e.jpg,1,3,f,1,56,116,44,f,1,1.09967523675,03,01,60.0191282866,PLT_learning_3,N,2014_Mrz_11_1416,P23,
stim_fb/ques.jpg,stim_fb/negf.jpg,stim_fb/posf.jpg,stim_03/f.jpg,stim_03/e.jpg,1,3,f,1,57,117,41,j,0,0.89979564441,03,01,60.0191282866,PLT_learning_3,N,2014_Mrz_11_1416,P23,
stim_fb/ques.jpg,stim_fb/negf.jpg,stim_fb/posf.jpg,stim_03/c.jpg,stim_03/d.jpg,2,2,j,1,58,118,33,j,1,0.833120441499,03,01,60.0191282866,PLT_learning_3,N,2014_Mrz_11_1416,P23,
stim_fb/ques.jpg,stim_fb/negf.jpg,stim_fb/posf.jpg,stim_03/a.jpg,stim_03/b.jpg,2,1,j,1,59,119,14,j,1,0.999712261892,03,01,60.0191282866,PLT_learning_3,N,2014_Mrz_11_1416,P23,
stim_fb/ques.jpg,stim_fb/negf.jpg,stim_fb/posf.jpg,stim_03/a.jpg,stim_03/b.jpg,2,1,j,2,0,120,17,j,1,0.883115465615,03,01,60.0191282866,PLT_learning_3,N,2014_Mrz_11_1416,P23,
stim_fb/ques.jpg,stim_fb/posf.jpg,stim_fb/negf.jpg,stim_03/b.jpg,stim_03/a.jpg,1,1,f,2,1,121,9,f,1,0.533195460202,03,01,60.0191282866,PLT_learning_3,N,2014_Mrz_11_1416,P23,
stim_fb/ques.jpg,stim_fb/posf.jpg,stim_fb/negf.jpg,stim_03/d.jpg,stim_03/c.jpg,1,2,f,2,2,122,29,f,1,1.06636804848,03,01,60.0191282866,PLT_learning_3,N,2014_Mrz_11_1416,P23,
stim_fb/ques.jpg,stim_fb/negf.jpg,stim_fb/posf.jpg,stim_03/b.jpg,stim_03/a.jpg,1,1,f,2,3,123,6,j,0,0.966350761458,03,01,60.0191282866,PLT_learning_3,N,2014_Mrz_11_1416,P23,
stim_fb/ques.jpg,stim_fb/negf.jpg,stim_fb/posf.jpg,stim_03/b.jpg,stim_03/a.jpg,1,1,f,2,4,124,2,f,1,0.799791328669,03,01,60.0191282866,PLT_learning_3,N,2014_Mrz_11_1416,P23,
stim_fb/ques.jpg,stim_fb/negf.jpg,stim_fb/posf.jpg,stim_03/e.jpg,stim_03/f.jpg,2,3,j,2,5,125,51,j,1,1.01636684098,03,01,60.0191282866,PLT_learning_3,N,2014_Mrz_11_1416,P23,
stim_fb/ques.jpg,stim_fb/negf.jpg,stim_fb/posf.jpg,stim_03/b.jpg,stim_03/a.jpg,1,1,f,2,6,126,7,f,1,1.08300979463,03,01,60.0191282866,PLT_learning_3,N,2014_Mrz_11_1416,P23,
stim_fb/ques.jpg,stim_fb/negf.jpg,stim_fb/posf.jpg,stim_03/a.jpg,stim_03/b.jpg,2,1,j,2,7,127,11,j,1,1.01638117465,03,01,60.0191282866,PLT_learning_3,N,2014_Mrz_11_1416,P23,
stim_fb/ques.jpg,stim_fb/posf.jpg,stim_fb/negf.jpg,stim_03/c.jpg,stim_03/d.jpg,2,2,j,2,8,128,38,j,1,1.24962504934,03,01,60.0191282866,PLT_learning_3,N,2014_Mrz_11_1416,P23,
stim_fb/ques.jpg,stim_fb/negf.jpg,stim_fb/posf.jpg,stim_03/d.jpg,stim_03/c.jpg,1,2,f,2,9,129,24,j,0,1.23294046759,03,01,60.0191282866,PLT_learning_3,N,2014_Mrz_11_1416,P23,
stim_fb/ques.jpg,stim_fb/negf.jpg,stim_fb/posf.jpg,stim_03/a.jpg,stim_03/b.jpg,2,1,j,2,10,130,14,None,0,,03,01,60.0191282866,PLT_learning_3,N,2014_Mrz_11_1416,P23,
stim_fb/ques.jpg,stim_fb/negf.jpg,stim_fb/posf.jpg,stim_03/d.jpg,stim_03/c.jpg,1,2,f,2,11,131,21,f,1,1.63288285621,03,01,60.0191282866,PLT_learning_3,N,2014_Mrz_11_1416,P23,
stim_fb/ques.jpg,stim_fb/posf.jpg,stim_fb/negf.jpg,stim_03/c.jpg,stim_03/d.jpg,2,2,j,2,12,132,39,f,0,1.06635928768,03,01,60.0191282866,PLT_learning_3,N,2014_Mrz_11_1416,P23,
stim_fb/ques.jpg,stim_fb/posf.jpg,stim_fb/negf.jpg,stim_03/d.jpg,stim_03/c.jpg,1,2,f,2,13,133,28,f,1,1.19962772751,03,01,60.0191282866,PLT_learning_3,N,2014_Mrz_11_1416,P23,
stim_fb/ques.jpg,stim_fb/posf.jpg,stim_fb/negf.jpg,stim_03/e.jpg,stim_03/f.jpg,2,3,j,2,14,134,56,f,0,1.4495692214,03,01,60.0191282866,PLT_learning_3,N,2014_Mrz_11_1416,P23,
stim_fb/ques.jpg,stim_fb/negf.jpg,stim_fb/posf.jpg,stim_03/c.jpg,stim_03/d.jpg,2,2,j,2,15,135,35,j,1,0.249946793081,03,01,60.0191282866,PLT_learning_3,N,2014_Mrz_11_1416,P23,
stim_fb/ques.jpg,stim_fb/negf.jpg,stim_fb/posf.jpg,stim_03/f.jpg,stim_03/e.jpg,1,3,f,2,16,136,43,f,1,0.383179287452,03,01,60.0191282866,PLT_learning_3,N,2014_Mrz_11_1416,P23,
stim_fb/ques.jpg,stim_fb/posf.jpg,stim_fb/negf.jpg,stim_03/e.jpg,stim_03/f.jpg,2,3,j,2,17,137,58,j,1,0.466562130502,03,01,60.0191282866,PLT_learning_3,N,2014_Mrz_11_1416,P23,
stim_fb/ques.jpg,stim_fb/posf.jpg,stim_fb/negf.jpg,stim_03/c.jpg,stim_03/d.jpg,2,2,j,2,18,138,37,f,0,0.383248549829,03,01,60.0191282866,PLT_learning_3,N,2014_Mrz_11_1416,P23,
stim_fb/ques.jpg,stim_fb/negf.jpg,stim_fb/posf.jpg,stim_03/f.jpg,stim_03/e.jpg,1,3,f,2,19,139,45,f,1,0.366551920091,03,01,60.0191282866,PLT_learning_3,N,2014_Mrz_11_1416,P23,
stim_fb/ques.jpg,stim_fb/negf.jpg,stim_fb/posf.jpg,stim_03/e.jpg,stim_03/f.jpg,2,3,j,2,20,140,54,j,1,0.966350147931,03,01,60.0191282866,PLT_learning_3,N,2014_Mrz_11_1416,P23,
stim_fb/ques.jpg,stim_fb/posf.jpg,stim_fb/negf.jpg,stim_03/f.jpg,stim_03/e.jpg,1,3,f,2,21,141,46,j,0,1.13297049733,03,01,60.0191282866,PLT_learning_3,N,2014_Mrz_11_1416,P23,
stim_fb/ques.jpg,stim_fb/posf.jpg,stim_fb/negf.jpg,stim_03/a.jpg,stim_03/b.jpg,2,1,j,2,22,142,19,f,0,0.399944785585,03,01,60.0191282866,PLT_learning_3,N,2014_Mrz_11_1416,P23,
stim_fb/ques.jpg,stim_fb/negf.jpg,stim_fb/posf.jpg,stim_03/e.jpg,stim_03/f.jpg,2,3,j,2,23,143,53,None,0,,03,01,60.0191282866,PLT_learning_3,N,2014_Mrz_11_1416,P23,
stim_fb/ques.jpg,stim_fb/negf.jpg,stim_fb/posf.jpg,stim_03/c.jpg,stim_03/d.jpg,2,2,j,2,24,144,36,j,1,1.09968326974,03,01,60.0191282866,PLT_learning_3,N,2014_Mrz_11_1416,P23,
stim_fb/ques.jpg,stim_fb/negf.jpg,stim_fb/posf.jpg,stim_03/c.jpg,stim_03/d.jpg,2,2,j,2,25,145,30,j,1,0.549887404277,03,01,60.0191282866,PLT_learning_3,N,2014_Mrz_11_1416,P23,
stim_fb/ques.jpg,stim_fb/negf.jpg,stim_fb/posf.jpg,stim_03/c.jpg,stim_03/d.jpg,2,2,j,2,26,146,31,f,0,0.266626926764,03,01,60.0191282866,PLT_learning_3,N,2014_Mrz_11_1416,P23,
stim_fb/ques.jpg,stim_fb/negf.jpg,stim_fb/posf.jpg,stim_03/b.jpg,stim_03/a.jpg,1,1,f,2,27,147,1,f,1,1.03301705319,03,01,60.0191282866,PLT_learning_3,N,2014_Mrz_11_1416,P23,
stim_fb/ques.jpg,stim_fb/negf.jpg,stim_fb/posf.jpg,stim_03/b.jpg,stim_03/a.jpg,1,1,f,2,28,148,3,j,0,0.399907303301,03,01,60.0191282866,PLT_learning_3,N,2014_Mrz_11_1416,P23,
stim_fb/ques.jpg,stim_fb/posf.jpg,stim_fb/negf.jpg,stim_03/f.jpg,stim_03/e.jpg,1,3,f,2,29,149,48,f,1,0.549837822882,03,01,60.0191282866,PLT_learning_3,N,2014_Mrz_11_1416,P23,
stim_fb/ques.jpg,stim_fb/posf.jpg,stim_fb/negf.jpg,stim_03/e.jpg,stim_03/f.jpg,2,3,j,2,30,150,57,f,0,0.716508538625,03,01,60.0191282866,PLT_learning_3,N,2014_Mrz_11_1416,P23,
stim_fb/ques.jpg,stim_fb/negf.jpg,stim_fb/posf.jpg,stim_03/a.jpg,stim_03/b.jpg,2,1,j,2,31,151,16,f,0,0.549902974027,03,01,60.0191282866,PLT_learning_3,N,2014_Mrz_11_1416,P23,
stim_fb/ques.jpg,stim_fb/negf.jpg,stim_fb/posf.jpg,stim_03/e.jpg,stim_03/f.jpg,2,3,j,2,32,152,55,f,0,0.849848995688,03,01,60.0191282866,PLT_learning_3,N,2014_Mrz_11_1416,P23,
stim_fb/ques.jpg,stim_fb/negf.jpg,stim_fb/posf.jpg,stim_03/a.jpg,stim_03/b.jpg,2,1,j,2,33,153,13,j,1,0.749788770803,03,01,60.0191282866,PLT_learning_3,N,2014_Mrz_11_1416,P23,
stim_fb/ques.jpg,stim_fb/posf.jpg,stim_fb/negf.jpg,stim_03/f.jpg,stim_03/e.jpg,1,3,f,2,34,154,47,f,1,0.516574261193,03,01,60.0191282866,PLT_learning_3,N,2014_Mrz_11_1416,P23,
stim_fb/ques.jpg,stim_fb/negf.jpg,stim_fb/posf.jpg,stim_03/f.jpg,stim_03/e.jpg,1,3,f,2,35,155,42,j,0,0.849767850739,03,01,60.0191282866,PLT_learning_3,N,2014_Mrz_11_1416,P23,
stim_fb/ques.jpg,stim_fb/negf.jpg,stim_fb/posf.jpg,stim_03/d.jpg,stim_03/c.jpg,1,2,f,2,36,156,23,f,1,0.583185909933,03,01,60.0191282866,PLT_learning_3,N,2014_Mrz_11_1416,P23,
stim_fb/ques.jpg,stim_fb/posf.jpg,stim_fb/negf.jpg,stim_03/a.jpg,stim_03/b.jpg,2,1,j,2,37,157,18,j,1,0.983036212373,03,01,60.0191282866,PLT_learning_3,N,2014_Mrz_11_1416,P23,
stim_fb/ques.jpg,stim_fb/negf.jpg,stim_fb/posf.jpg,stim_03/c.jpg,stim_03/d.jpg,2,2,j,2,38,158,34,j,1,0.849761135025,03,01,60.0191282866,PLT_learning_3,N,2014_Mrz_11_1416,P23,
stim_fb/ques.jpg,stim_fb/negf.jpg,stim_fb/posf.jpg,stim_03/b.jpg,stim_03/a.jpg,1,1,f,2,39,159,5,f,1,0.749805104454,03,01,60.0191282866,PLT_learning_3,N,2014_Mrz_11_1416,P23,
stim_fb/ques.jpg,stim_fb/posf.jpg,stim_fb/negf.jpg,stim_03/f.jpg,stim_03/e.jpg,1,3,f,2,40,160,49,f,1,1.2496022917,03,01,60.0191282866,PLT_learning_3,N,2014_Mrz_11_1416,P23,
stim_fb/ques.jpg,stim_fb/negf.jpg,stim_fb/posf.jpg,stim_03/f.jpg,stim_03/e.jpg,1,3,f,2,41,161,44,j,0,0.766469767634,03,01,60.0191282866,PLT_learning_3,N,2014_Mrz_11_1416,P23,
stim_fb/ques.jpg,stim_fb/negf.jpg,stim_fb/posf.jpg,stim_03/d.jpg,stim_03/c.jpg,1,2,f,2,42,162,26,f,1,0.299946563009,03,01,60.0191282866,PLT_learning_3,N,2014_Mrz_11_1416,P23,
stim_fb/ques.jpg,stim_fb/posf.jpg,stim_fb/negf.jpg,stim_03/d.jpg,stim_03/c.jpg,1,2,f,2,43,163,27,f,1,0.283286341883,03,01,60.0191282866,PLT_learning_3,N,2014_Mrz_11_1416,P23,
stim_fb/ques.jpg,stim_fb/negf.jpg,stim_fb/posf.jpg,stim_03/e.jpg,stim_03/f.jpg,2,3,j,2,44,164,50,f,0,0.79979722334,03,01,60.0191282866,PLT_learning_3,N,2014_Mrz_11_1416,P23,
stim_fb/ques.jpg,stim_fb/negf.jpg,stim_fb/posf.jpg,stim_03/d.jpg,stim_03/c.jpg,1,2,f,2,45,165,20,f,1,0.783089423804,03,01,60.0191282866,PLT_learning_3,N,2014_Mrz_11_1416,P23,
stim_fb/ques.jpg,stim_fb/negf.jpg,stim_fb/posf.jpg,stim_03/a.jpg,stim_03/b.jpg,2,1,j,2,46,166,15,j,1,0.683135110506,03,01,60.0191282866,PLT_learning_3,N,2014_Mrz_11_1416,P23,
stim_fb/ques.jpg,stim_fb/negf.jpg,stim_fb/posf.jpg,stim_03/f.jpg,stim_03/e.jpg,1,3,f,2,47,167,41,f,1,0.633158723774,03,01,60.0191282866,PLT_learning_3,N,2014_Mrz_11_1416,P23,
stim_fb/ques.jpg,stim_fb/negf.jpg,stim_fb/posf.jpg,stim_03/c.jpg,stim_03/d.jpg,2,2,j,2,48,168,33,j,1,0.716428223742,03,01,60.0191282866,PLT_learning_3,N,2014_Mrz_11_1416,P23,
stim_fb/ques.jpg,stim_fb/negf.jpg,stim_fb/posf.jpg,stim_03/d.jpg,stim_03/c.jpg,1,2,f,2,49,169,22,f,1,0.383269160122,03,01,60.0191282866,PLT_learning_3,N,2014_Mrz_11_1416,P23,
stim_fb/ques.jpg,stim_fb/negf.jpg,stim_fb/posf.jpg,stim_03/b.jpg,stim_03/a.jpg,1,1,f,2,50,170,0,j,0,0.349948441183,03,01,60.0191282866,PLT_learning_3,N,2014_Mrz_11_1416,P23,
stim_fb/ques.jpg,stim_fb/negf.jpg,stim_fb/posf.jpg,stim_03/e.jpg,stim_03/f.jpg,2,3,j,2,51,171,52,j,1,0.333282653203,03,01,60.0191282866,PLT_learning_3,N,2014_Mrz_11_1416,P23,
stim_fb/ques.jpg,stim_fb/negf.jpg,stim_fb/posf.jpg,stim_03/d.jpg,stim_03/c.jpg,1,2,f,2,52,172,25,f,1,0.699776685225,03,01,60.0191282866,PLT_learning_3,N,2014_Mrz_11_1416,P23,
stim_fb/ques.jpg,stim_fb/negf.jpg,stim_fb/posf.jpg,stim_03/c.jpg,stim_03/d.jpg,2,2,j,2,53,173,32,f,0,0.716450461085,03,01,60.0191282866,PLT_learning_3,N,2014_Mrz_11_1416,P23,
stim_fb/ques.jpg,stim_fb/negf.jpg,stim_fb/posf.jpg,stim_03/b.jpg,stim_03/a.jpg,1,1,f,2,54,174,4,f,1,0.74980491799,03,01,60.0191282866,PLT_learning_3,N,2014_Mrz_11_1416,P23,
stim_fb/ques.jpg,stim_fb/negf.jpg,stim_fb/posf.jpg,stim_03/a.jpg,stim_03/b.jpg,2,1,j,2,55,175,10,j,1,0.433221047883,03,01,60.0191282866,PLT_learning_3,N,2014_Mrz_11_1416,P23,
stim_fb/ques.jpg,stim_fb/posf.jpg,stim_fb/negf.jpg,stim_03/b.jpg,stim_03/a.jpg,1,1,f,2,56,176,8,f,1,0.666495189904,03,01,60.0191282866,PLT_learning_3,N,2014_Mrz_11_1416,P23,
stim_fb/ques.jpg,stim_fb/negf.jpg,stim_fb/posf.jpg,stim_03/a.jpg,stim_03/b.jpg,2,1,j,2,57,177,12,j,1,0.966400616534,03,01,60.0191282866,PLT_learning_3,N,2014_Mrz_11_1416,P23,
stim_fb/ques.jpg,stim_fb/posf.jpg,stim_fb/negf.jpg,stim_03/e.jpg,stim_03/f.jpg,2,3,j,2,58,178,59,f,0,0.699814266756,03,01,60.0191282866,PLT_learning_3,N,2014_Mrz_11_1416,P23,
stim_fb/ques.jpg,stim_fb/negf.jpg,stim_fb/posf.jpg,stim_03/f.jpg,stim_03/e.jpg,1,3,f,2,59,179,40,j,0,0.633227321496,03,01,60.0191282866,PLT_learning_3,N,2014_Mrz_11_1416,P23,
stim_fb/ques.jpg,stim_fb/negf.jpg,stim_fb/posf.jpg,stim_03/f.jpg,stim_03/e.jpg,1,3,f,3,0,180,45,f,1,0.766466254892,03,01,60.0191282866,PLT_learning_3,N,2014_Mrz_11_1416,P23,
stim_fb/ques.jpg,stim_fb/negf.jpg,stim_fb/posf.jpg,stim_03/b.jpg,stim_03/a.jpg,1,1,f,3,1,181,0,j,0,0.416575205543,03,01,60.0191282866,PLT_learning_3,N,2014_Mrz_11_1416,P23,
stim_fb/ques.jpg,stim_fb/negf.jpg,stim_fb/posf.jpg,stim_03/c.jpg,stim_03/d.jpg,2,2,j,3,2,182,33,f,0,0.832948181788,03,01,60.0191282866,PLT_learning_3,N,2014_Mrz_11_1416,P23,
stim_fb/ques.jpg,stim_fb/negf.jpg,stim_fb/posf.jpg,stim_03/c.jpg,stim_03/d.jpg,2,2,j,3,3,183,32,f,0,0.833096658308,03,01,60.0191282866,PLT_learning_3,N,2014_Mrz_11_1416,P23,
stim_fb/ques.jpg,stim_fb/negf.jpg,stim_fb/posf.jpg,stim_03/b.jpg,stim_03/a.jpg,1,1,f,3,4,184,5,f,1,0.683136644324,03,01,60.0191282866,PLT_learning_3,N,2014_Mrz_11_1416,P23,
stim_fb/ques.jpg,stim_fb/posf.jpg,stim_fb/negf.jpg,stim_03/b.jpg,stim_03/a.jpg,1,1,f,3,5,185,9,f,1,0.533192103848,03,01,60.0191282866,PLT_learning_3,N,2014_Mrz_11_1416,P23,
stim_fb/ques.jpg,stim_fb/negf.jpg,stim_fb/posf.jpg,stim_03/a.jpg,stim_03/b.jpg,2,1,j,3,6,186,13,f,0,1.01636389063,03,01,60.0191282866,PLT_learning_3,N,2014_Mrz_11_1416,P23,
stim_fb/ques.jpg,stim_fb/posf.jpg,stim_fb/negf.jpg,stim_03/c.jpg,stim_03/d.jpg,2,2,j,3,7,187,39,j,1,1.26627850663,03,01,60.0191282866,PLT_learning_3,N,2014_Mrz_11_1416,P23,
stim_fb/ques.jpg,stim_fb/negf.jpg,stim_fb/posf.jpg,stim_03/e.jpg,stim_03/f.jpg,2,3,j,3,8,188,53,f,0,0.933058715879,03,01,60.0191282866,PLT_learning_3,N,2014_Mrz_11_1416,P23,
stim_fb/ques.jpg,stim_fb/negf.jpg,stim_fb/posf.jpg,stim_03/a.jpg,stim_03/b.jpg,2,1,j,3,9,189,11,f,0,1.26627826002,03,01,60.0191282866,PLT_learning_3,N,2014_Mrz_11_1416,P23,
stim_fb/ques.jpg,stim_fb/negf.jpg,stim_fb/posf.jpg,stim_03/d.jpg,stim_03/c.jpg,1,2,f,3,10,190,20,f,1,1.13301330887,03,01,60.0191282866,PLT_learning_3,N,2014_Mrz_11_1416,P23,
stim_fb/ques.jpg,stim_fb/posf.jpg,stim_fb/negf.jpg,stim_03/f.jpg,stim_03/e.jpg,1,3,f,3,11,191,47,j,0,1.14957707394,03,01,60.0191282866,PLT_learning_3,N,2014_Mrz_11_1416,P23,
stim_fb/ques.jpg,stim_fb/posf.jpg,stim_fb/negf.jpg,stim_03/c.jpg,stim_03/d.jpg,2,2,j,3,12,192,37,j,1,0.999709281474,03,01,60.0191282866,PLT_learning_3,N,2014_Mrz_11_1416,P23,
stim_fb/ques.jpg,stim_fb/negf.jpg,stim_fb/posf.jpg,stim_03/a.jpg,stim_03/b.jpg,2,1,j,3,13,193,12,j,1,1.21635098552,03,01,60.0191282866,PLT_learning_3,N,2014_Mrz_11_1416,P23,
stim_fb/ques.jpg,stim_fb/negf.jpg,stim_fb/posf.jpg,stim_03/b.jpg,stim_03/a.jpg,1,1,f,3,14,194,1,f,1,0.999701056003,03,01,60.0191282866,PLT_learning_3,N,2014_Mrz_11_1416,P23,
stim_fb/ques.jpg,stim_fb/negf.jpg,stim_fb/posf.jpg,stim_03/e.jpg,stim_03/f.jpg,2,3,j,3,15,195,52,f,0,0.949766753007,03,01,60.0191282866,PLT_learning_3,N,2014_Mrz_11_1416,P23,
stim_fb/ques.jpg,stim_fb/negf.jpg,stim_fb/posf.jpg,stim_03/d.jpg,stim_03/c.jpg,1,2,f,3,16,196,21,j,0,1.16631034086,03,01,60.0191282866,PLT_learning_3,N,2014_Mrz_11_1416,P23,
stim_fb/ques.jpg,stim_fb/posf.jpg,stim_fb/negf.jpg,stim_03/a.jpg,stim_03/b.jpg,2,1,j,3,17,197,18,j,1,0.949717427247,03,01,60.0191282866,PLT_learning_3,N,2014_Mrz_11_1416,P23,
stim_fb/ques.jpg,stim_fb/posf.jpg,stim_fb/negf.jpg,stim_03/d.jpg,stim_03/c.jpg,1,2,f,3,18,198,27,f,1,0.733137090935,03,01,60.0191282866,PLT_learning_3,N,2014_Mrz_11_1416,P23,
stim_fb/ques.jpg,stim_fb/posf.jpg,stim_fb/negf.jpg,stim_03/f.jpg,stim_03/e.jpg,1,3,f,3,19,199,48,j,0,0.716487853144,03,01,60.0191282866,PLT_learning_3,N,2014_Mrz_11_1416,P23,
stim_fb/ques.jpg,stim_fb/negf.jpg,stim_fb/posf.jpg,stim_03/f.jpg,stim_03/e.jpg,1,3,f,3,20,200,40,j,0,0.733148663737,03,01,60.0191282866,PLT_learning_3,N,2014_Mrz_11_1416,P23,
stim_fb/ques.jpg,stim_fb/negf.jpg,stim_fb/posf.jpg,stim_03/b.jpg,stim_03/a.jpg,1,1,f,3,21,201,7,f,1,0.549845552118,03,01,60.0191282866,PLT_learning_3,N,2014_Mrz_11_1416,P23,
stim_fb/ques.jpg,stim_fb/negf.jpg,stim_fb/posf.jpg,stim_03/d.jpg,stim_03/c.jpg,1,2,f,3,22,202,25,j,0,1.38298322951,03,01,60.0191282866,PLT_learning_3,N,2014_Mrz_11_1416,P23,
stim_fb/ques.jpg,stim_fb/negf.jpg,stim_fb/posf.jpg,stim_03/a.jpg,stim_03/b.jpg,2,1,j,3,23,203,15,f,0,0.416576724323,03,01,60.0191282866,PLT_learning_3,N,2014_Mrz_11_1416,P23,
stim_fb/ques.jpg,stim_fb/negf.jpg,stim_fb/posf.jpg,stim_03/b.jpg,stim_03/a.jpg,1,1,f,3,24,204,2,f,1,0.216561425247,03,01,60.0191282866,PLT_learning_3,N,2014_Mrz_11_1416,P23,
stim_fb/ques.jpg,stim_fb/negf.jpg,stim_fb/posf.jpg,stim_03/e.jpg,stim_03/f.jpg,2,3,j,3,25,205,51,f,0,0.78313188949,03,01,60.0191282866,PLT_learning_3,N,2014_Mrz_11_1416,P23,
stim_fb/ques.jpg,stim_fb/negf.jpg,stim_fb/posf.jpg,stim_03/a.jpg,stim_03/b.jpg,2,1,j,3,26,206,17,j,1,1.01636648008,03,01,60.0191282866,PLT_learning_3,N,2014_Mrz_11_1416,P23,
stim_fb/ques.jpg,stim_fb/negf.jpg,stim_fb/posf.jpg,stim_03/f.jpg,stim_03/e.jpg,1,3,f,3,27,207,42,j,0,1.03303965143,03,01,60.0191282866,PLT_learning_3,N,2014_Mrz_11_1416,P23,
stim_fb/ques.jpg,stim_fb/negf.jpg,stim_fb/posf.jpg,stim_03/e.jpg,stim_03/f.jpg,2,3,j,3,28,208,54,j,1,0.849807609689,03,01,60.0191282866,PLT_learning_3,N,2014_Mrz_11_1416,P23,
stim_fb/ques.jpg,stim_fb/negf.jpg,stim_fb/posf.jpg,stim_03/c.jpg,stim_03/d.jpg,2,2,j,3,29,209,31,j,1,1.23297456645,03,01,60.0191282866,PLT_learning_3,N,2014_Mrz_11_1416,P23,
stim_fb/ques.jpg,stim_fb/negf.jpg,stim_fb/posf.jpg,stim_03/e.jpg,stim_03/f.jpg,2,3,j,3,30,210,55,f,0,0.933065338361,03,01,60.0191282866,PLT_learning_3,N,2014_Mrz_11_1416,P23,
stim_fb/ques.jpg,stim_fb/posf.jpg,stim_fb/negf.jpg,stim_03/e.jpg,stim_03/f.jpg,2,3,j,3,31,211,57,f,0,0.833080568264,03,01,60.0191282866,PLT_learning_3,N,2014_Mrz_11_1416,P23,
stim_fb/ques.jpg,stim_fb/negf.jpg,stim_fb/posf.jpg,stim_03/c.jpg,stim_03/d.jpg,2,2,j,3,32,212,30,j,1,1.49952596023,03,01,60.0191282866,PLT_learning_3,N,2014_Mrz_11_1416,P23,
stim_fb/ques.jpg,stim_fb/negf.jpg,stim_fb/posf.jpg,stim_03/d.jpg,stim_03/c.jpg,1,2,f,3,33,213,24,f,1,1.6495152972,03,01,60.0191282866,PLT_learning_3,N,2014_Mrz_11_1416,P23,
stim_fb/ques.jpg,stim_fb/negf.jpg,stim_fb/posf.jpg,stim_03/a.jpg,stim_03/b.jpg,2,1,j,3,34,214,16,j,1,0.949738521746,03,01,60.0191282866,PLT_learning_3,N,2014_Mrz_11_1416,P23,
stim_fb/ques.jpg,stim_fb/negf.jpg,stim_fb/posf.jpg,stim_03/d.jpg,stim_03/c.jpg,1,2,f,3,35,215,23,j,0,1.63283428533,03,01,60.0191282866,PLT_learning_3,N,2014_Mrz_11_1416,P23,
stim_fb/ques.jpg,stim_fb/negf.jpg,stim_fb/posf.jpg,stim_03/d.jpg,stim_03/c.jpg,1,2,f,3,36,216,26,f,1,0.783131669944,03,01,60.0191282866,PLT_learning_3,N,2014_Mrz_11_1416,P23,
stim_fb/ques.jpg,stim_fb/posf.jpg,stim_fb/negf.jpg,stim_03/d.jpg,stim_03/c.jpg,1,2,f,3,37,217,28,j,0,1.41625010545,03,01,60.0191282866,PLT_learning_3,N,2014_Mrz_11_1416,P23,
stim_fb/ques.jpg,stim_fb/negf.jpg,stim_fb/posf.jpg,stim_03/f.jpg,stim_03/e.jpg,1,3,f,3,38,218,43,f,1,0.983043141619,03,01,60.0191282866,PLT_learning_3,N,2014_Mrz_11_1416,P23,
stim_fb/ques.jpg,stim_fb/posf.jpg,stim_fb/negf.jpg,stim_03/f.jpg,stim_03/e.jpg,1,3,f,3,39,219,49,f,1,0.799773416089,03,01,60.0191282866,PLT_learning_3,N,2014_Mrz_11_1416,P23,
stim_fb/ques.jpg,stim_fb/posf.jpg,stim_fb/negf.jpg,stim_03/b.jpg,stim_03/a.jpg,1,1,f,3,40,220,8,f,1,0.833105912339,03,01,60.0191282866,PLT_learning_3,N,2014_Mrz_11_1416,P23,
stim_fb/ques.jpg,stim_fb/posf.jpg,stim_fb/negf.jpg,stim_03/a.jpg,stim_03/b.jpg,2,1,j,3,41,221,19,j,1,0.899756745601,03,01,60.0191282866,PLT_learning_3,N,2014_Mrz_11_1416,P23,
stim_fb/ques.jpg,stim_fb/posf.jpg,stim_fb/negf.jpg,stim_03/e.jpg,stim_03/f.jpg,2,3,j,3,42,222,58,j,1,0.733156477183,03,01,60.0191282866,PLT_learning_3,N,2014_Mrz_11_1416,P23,
stim_fb/ques.jpg,stim_fb/negf.jpg,stim_fb/posf.jpg,stim_03/f.jpg,stim_03/e.jpg,1,3,f,3,43,223,41,j,0,0.916395691778,03,01,60.0191282866,PLT_learning_3,N,2014_Mrz_11_1416,P23,
stim_fb/ques.jpg,stim_fb/negf.jpg,stim_fb/posf.jpg,stim_03/c.jpg,stim_03/d.jpg,2,2,j,3,44,224,35,f,0,1.01638343628,03,01,60.0191282866,PLT_learning_3,N,2014_Mrz_11_1416,P23,
stim_fb/ques.jpg,stim_fb/negf.jpg,stim_fb/posf.jpg,stim_03/e.jpg,stim_03/f.jpg,2,3,j,3,45,225,50,f,0,1.3995897941,03,01,60.0191282866,PLT_learning_3,N,2014_Mrz_11_1416,P23,
stim_fb/ques.jpg,stim_fb/negf.jpg,stim_fb/posf.jpg,stim_03/f.jpg,stim_03/e.jpg,1,3,f,3,46,226,44,j,0,1.0997012545,03,01,60.0191282866,PLT_learning_3,N,2014_Mrz_11_1416,P23,
stim_fb/ques.jpg,stim_fb/negf.jpg,stim_fb/posf.jpg,stim_03/c.jpg,stim_03/d.jpg,2,2,j,3,47,227,36,j,1,1.28296253802,03,01,60.0191282866,PLT_learning_3,N,2014_Mrz_11_1416,P23,
stim_fb/ques.jpg,stim_fb/posf.jpg,stim_fb/negf.jpg,stim_03/e.jpg,stim_03/f.jpg,2,3,j,3,48,228,56,j,1,0.767486655414,03,01,60.0191282866,PLT_learning_3,N,2014_Mrz_11_1416,P23,
stim_fb/ques.jpg,stim_fb/negf.jpg,stim_fb/posf.jpg,stim_03/a.jpg,stim_03/b.jpg,2,1,j,3,49,229,10,f,0,1.2663070206,03,01,60.0191282866,PLT_learning_3,N,2014_Mrz_11_1416,P23,
stim_fb/ques.jpg,stim_fb/negf.jpg,stim_fb/posf.jpg,stim_03/b.jpg,stim_03/a.jpg,1,1,f,3,50,230,3,f,1,0.949708756668,03,01,60.0191282866,PLT_learning_3,N,2014_Mrz_11_1416,P23,
stim_fb/ques.jpg,stim_fb/posf.jpg,stim_fb/negf.jpg,stim_03/f.jpg,stim_03/e.jpg,1,3,f,3,51,231,46,j,0,1.26628322538,03,01,60.0191282866,PLT_learning_3,N,2014_Mrz_11_1416,P23,
stim_fb/ques.jpg,stim_fb/posf.jpg,stim_fb/negf.jpg,stim_03/e.jpg,stim_03/f.jpg,2,3,j,3,52,232,59,f,0,0.799787635478,03,01,60.0191282866,PLT_learning_3,N,2014_Mrz_11_1416,P23,
stim_fb/ques.jpg,stim_fb/posf.jpg,stim_fb/negf.jpg,stim_03/d.jpg,stim_03/c.jpg,1,2,f,3,53,233,29,f,1,1.08300028496,03,01,60.0191282866,PLT_learning_3,N,2014_Mrz_11_1416,P23,
stim_fb/ques.jpg,stim_fb/negf.jpg,stim_fb/posf.jpg,stim_03/b.jpg,stim_03/a.jpg,1,1,f,3,54,234,4,f,1,0.916474551039,03,01,60.0191282866,PLT_learning_3,N,2014_Mrz_11_1416,P23,
stim_fb/ques.jpg,stim_fb/negf.jpg,stim_fb/posf.jpg,stim_03/c.jpg,stim_03/d.jpg,2,2,j,3,55,235,34,f,0,1.03305349489,03,01,60.0191282866,PLT_learning_3,N,2014_Mrz_11_1416,P23,
stim_fb/ques.jpg,stim_fb/negf.jpg,stim_fb/posf.jpg,stim_03/a.jpg,stim_03/b.jpg,2,1,j,3,56,236,14,j,1,0.96639215648,03,01,60.0191282866,PLT_learning_3,N,2014_Mrz_11_1416,P23,
stim_fb/ques.jpg,stim_fb/negf.jpg,stim_fb/posf.jpg,stim_03/b.jpg,stim_03/a.jpg,1,1,f,3,57,237,6,f,1,0.89976141021,03,01,60.0191282866,PLT_learning_3,N,2014_Mrz_11_1416,P23,
stim_fb/ques.jpg,stim_fb/negf.jpg,stim_fb/posf.jpg,stim_03/d.jpg,stim_03/c.jpg,1,2,f,3,58,238,22,f,1,1.24964443258,03,01,60.0191282866,PLT_learning_3,N,2014_Mrz_11_1416,P23,
stim_fb/ques.jpg,stim_fb/posf.jpg,stim_fb/negf.jpg,stim_03/c.jpg,stim_03/d.jpg,2,2,j,3,59,239,38,j,1,0.983072873614,03,01,60.0191282866,PLT_learning_3,N,2014_Mrz_11_1416,P23,
stim_fb/ques.jpg,stim_fb/posf.jpg,stim_fb/negf.jpg,stim_03/f.jpg,stim_03/e.jpg,1,3,f,4,0,240,47,j,0,0.849752407304,03,01,60.0191282866,PLT_learning_3,N,2014_Mrz_11_1416,P23,
stim_fb/ques.jpg,stim_fb/negf.jpg,stim_fb/posf.jpg,stim_03/e.jpg,stim_03/f.jpg,2,3,j,4,1,241,54,f,0,0.983061237655,03,01,60.0191282866,PLT_learning_3,N,2014_Mrz_11_1416,P23,
stim_fb/ques.jpg,stim_fb/posf.jpg,stim_fb/negf.jpg,stim_03/c.jpg,stim_03/d.jpg,2,2,j,4,2,242,38,j,1,1.09976236057,03,01,60.0191282866,PLT_learning_3,N,2014_Mrz_11_1416,P23,
stim_fb/ques.jpg,stim_fb/negf.jpg,stim_fb/posf.jpg,stim_03/a.jpg,stim_03/b.jpg,2,1,j,4,3,243,12,j,1,0.799770589053,03,01,60.0191282866,PLT_learning_3,N,2014_Mrz_11_1416,P23,
stim_fb/ques.jpg,stim_fb/negf.jpg,stim_fb/posf.jpg,stim_03/d.jpg,stim_03/c.jpg,1,2,f,4,4,244,23,j,0,1.61615450653,03,01,60.0191282866,PLT_learning_3,N,2014_Mrz_11_1416,P23,
stim_fb/ques.jpg,stim_fb/posf.jpg,stim_fb/negf.jpg,stim_03/e.jpg,stim_03/f.jpg,2,3,j,4,5,245,56,f,0,0.94972425123,03,01,60.0191282866,PLT_learning_3,N,2014_Mrz_11_1416,P23,
stim_fb/ques.jpg,stim_fb/negf.jpg,stim_fb/posf.jpg,stim_03/a.jpg,stim_03/b.jpg,2,1,j,4,6,246,14,j,1,1.18295155468,03,01,60.0191282866,PLT_learning_3,N,2014_Mrz_11_1416,P23,
stim_fb/ques.jpg,stim_fb/negf.jpg,stim_fb/posf.jpg,stim_03/b.jpg,stim_03/a.jpg,1,1,f,4,7,247,7,f,1,0.633158140322,03,01,60.0191282866,PLT_learning_3,N,2014_Mrz_11_1416,P23,
stim_fb/ques.jpg,stim_fb/negf.jpg,stim_fb/posf.jpg,stim_03/a.jpg,stim_03/b.jpg,2,1,j,4,8,248,16,j,1,0.649822322305,03,01,60.0191282866,PLT_learning_3,N,2014_Mrz_11_1416,P23,
stim_fb/ques.jpg,stim_fb/posf.jpg,stim_fb/negf.jpg,stim_03/b.jpg,stim_03/a.jpg,1,1,f,4,9,249,9,f,1,0.833092435799,03,01,60.0191282866,PLT_learning_3,N,2014_Mrz_11_1416,P23,
stim_fb/ques.jpg,stim_fb/negf.jpg,stim_fb/posf.jpg,stim_03/c.jpg,stim_03/d.jpg,2,2,j,4,10,250,36,j,1,0.883088632835,03,01,60.0191282866,PLT_learning_3,N,2014_Mrz_11_1416,P23,
stim_fb/ques.jpg,stim_fb/negf.jpg,stim_fb/posf.jpg,stim_03/b.jpg,stim_03/a.jpg,1,1,f,4,11,251,4,f,1,0.883079631433,03,01,60.0191282866,PLT_learning_3,N,2014_Mrz_11_1416,P23,
stim_fb/ques.jpg,stim_fb/negf.jpg,stim_fb/posf.jpg,stim_03/a.jpg,stim_03/b.jpg,2,1,j,4,12,252,17,j,1,0.699812961508,03,01,60.0191282866,PLT_learning_3,N,2014_Mrz_11_1416,P23,
stim_fb/ques.jpg,stim_fb/negf.jpg,stim_fb/posf.jpg,stim_03/b.jpg,stim_03/a.jpg,1,1,f,4,13,253,2,f,1,0.683149390044,03,01,60.0191282866,PLT_learning_3,N,2014_Mrz_11_1416,P23,
stim_fb/ques.jpg,stim_fb/posf.jpg,stim_fb/negf.jpg,stim_03/f.jpg,stim_03/e.jpg,1,3,f,4,14,254,49,j,0,0.883084756187,03,01,60.0191282866,PLT_learning_3,N,2014_Mrz_11_1416,P23,
stim_fb/ques.jpg,stim_fb/posf.jpg,stim_fb/negf.jpg,stim_03/e.jpg,stim_03/f.jpg,2,3,j,4,15,255,57,f,0,0.71643847325,03,01,60.0191282866,PLT_learning_3,N,2014_Mrz_11_1416,P23,
stim_fb/ques.jpg,stim_fb/negf.jpg,stim_fb/posf.jpg,stim_03/d.jpg,stim_03/c.jpg,1,2,f,4,16,256,22,f,1,0.999689931317,03,01,60.0191282866,PLT_learning_3,N,2014_Mrz_11_1416,P23,
stim_fb/ques.jpg,stim_fb/negf.jpg,stim_fb/posf.jpg,stim_03/c.jpg,stim_03/d.jpg,2,2,j,4,17,257,34,j,1,0.966387906903,03,01,60.0191282866,PLT_learning_3,N,2014_Mrz_11_1416,P23,
stim_fb/ques.jpg,stim_fb/negf.jpg,stim_fb/posf.jpg,stim_03/c.jpg,stim_03/d.jpg,2,2,j,4,18,258,32,j,1,0.883089553125,03,01,60.0191282866,PLT_learning_3,N,2014_Mrz_11_1416,P23,
stim_fb/ques.jpg,stim_fb/negf.jpg,stim_fb/posf.jpg,stim_03/e.jpg,stim_03/f.jpg,2,3,j,4,19,259,53,f,0,0.7497943948,03,01,60.0191282866,PLT_learning_3,N,2014_Mrz_11_1416,P23,
stim_fb/ques.jpg,stim_fb/negf.jpg,stim_fb/posf.jpg,stim_03/d.jpg,stim_03/c.jpg,1,2,f,4,20,260,21,f,1,0.833133253384,03,01,60.0191282866,PLT_learning_3,N,2014_Mrz_11_1416,P23,
stim_fb/ques.jpg,stim_fb/posf.jpg,stim_fb/negf.jpg,stim_03/d.jpg,stim_03/c.jpg,1,2,f,4,21,261,27,f,1,0.683159600456,03,01,60.0191282866,PLT_learning_3,N,2014_Mrz_11_1416,P23,
stim_fb/ques.jpg,stim_fb/negf.jpg,stim_fb/posf.jpg,stim_03/b.jpg,stim_03/a.jpg,1,1,f,4,22,262,3,f,1,0.883107862693,03,01,60.0191282866,PLT_learning_3,N,2014_Mrz_11_1416,P23,
stim_fb/ques.jpg,stim_fb/negf.jpg,stim_fb/posf.jpg,stim_03/a.jpg,stim_03/b.jpg,2,1,j,4,23,263,13,j,1,1.04970033571,03,01,60.0191282866,PLT_learning_3,N,2014_Mrz_11_1416,P23,
stim_fb/ques.jpg,stim_fb/posf.jpg,stim_fb/negf.jpg,stim_03/a.jpg,stim_03/b.jpg,2,1,j,4,24,264,19,j,1,0.883043622816,03,01,60.0191282866,PLT_learning_3,N,2014_Mrz_11_1416,P23,
stim_fb/ques.jpg,stim_fb/negf.jpg,stim_fb/posf.jpg,stim_03/c.jpg,stim_03/d.jpg,2,2,j,4,25,265,31,f,0,0.966394983515,03,01,60.0191282866,PLT_learning_3,N,2014_Mrz_11_1416,P23,
stim_fb/ques.jpg,stim_fb/negf.jpg,stim_fb/posf.jpg,stim_03/d.jpg,stim_03/c.jpg,1,2,f,4,26,266,26,f,1,0.916452734744,03,01,60.0191282866,PLT_learning_3,N,2014_Mrz_11_1416,P23,
stim_fb/ques.jpg,stim_fb/negf.jpg,stim_fb/posf.jpg,stim_03/b.jpg,stim_03/a.jpg,1,1,f,4,27,267,5,f,1,0.833056745976,03,01,60.0191282866,PLT_learning_3,N,2014_Mrz_11_1416,P23,
stim_fb/ques.jpg,stim_fb/posf.jpg,stim_fb/negf.jpg,stim_03/e.jpg,stim_03/f.jpg,2,3,j,4,28,268,59,j,1,1.38292933839,03,01,60.0191282866,PLT_learning_3,N,2014_Mrz_11_1416,P23,
stim_fb/ques.jpg,stim_fb/negf.jpg,stim_fb/posf.jpg,stim_03/f.jpg,stim_03/e.jpg,1,3,f,4,29,269,41,j,0,0.799755136596,03,01,60.0191282866,PLT_learning_3,N,2014_Mrz_11_1416,P23,
stim_fb/ques.jpg,stim_fb/negf.jpg,stim_fb/posf.jpg,stim_03/b.jpg,stim_03/a.jpg,1,1,f,4,30,270,6,f,1,0.749783646049,03,01,60.0191282866,PLT_learning_3,N,2014_Mrz_11_1416,P23,
stim_fb/ques.jpg,stim_fb/negf.jpg,stim_fb/posf.jpg,stim_03/e.jpg,stim_03/f.jpg,2,3,j,4,31,271,55,f,0,0.699756105006,03,01,60.0191282866,PLT_learning_3,N,2014_Mrz_11_1416,P23,
stim_fb/ques.jpg,stim_fb/negf.jpg,stim_fb/posf.jpg,stim_03/c.jpg,stim_03/d.jpg,2,2,j,4,32,272,33,j,1,1.06635754634,03,01,60.0191282866,PLT_learning_3,N,2014_Mrz_11_1416,P23,
stim_fb/ques.jpg,stim_fb/negf.jpg,stim_fb/posf.jpg,stim_03/a.jpg,stim_03/b.jpg,2,1,j,4,33,273,10,j,1,0.883087971188,03,01,60.0191282866,PLT_learning_3,N,2014_Mrz_11_1416,P23,
stim_fb/ques.jpg,stim_fb/posf.jpg,stim_fb/negf.jpg,stim_03/e.jpg,stim_03/f.jpg,2,3,j,4,34,274,58,j,1,0.633133172182,03,01,60.0191282866,PLT_learning_3,N,2014_Mrz_11_1416,P23,
stim_fb/ques.jpg,stim_fb/negf.jpg,stim_fb/posf.jpg,stim_03/a.jpg,stim_03/b.jpg,2,1,j,4,35,275,15,j,1,0.649851007695,03,01,60.0191282866,PLT_learning_3,N,2014_Mrz_11_1416,P23,
stim_fb/ques.jpg,stim_fb/negf.jpg,stim_fb/posf.jpg,stim_03/d.jpg,stim_03/c.jpg,1,2,f,4,36,276,20,f,1,0.849719063319,03,01,60.0191282866,PLT_learning_3,N,2014_Mrz_11_1416,P23,
stim_fb/ques.jpg,stim_fb/negf.jpg,stim_fb/posf.jpg,stim_03/e.jpg,stim_03/f.jpg,2,3,j,4,37,277,50,f,0,0.59982245313,03,01,60.0191282866,PLT_learning_3,N,2014_Mrz_11_1416,P23,
stim_fb/ques.jpg,stim_fb/negf.jpg,stim_fb/posf.jpg,stim_03/d.jpg,stim_03/c.jpg,1,2,f,4,38,278,25,f,1,0.883067183453,03,01,60.0191282866,PLT_learning_3,N,2014_Mrz_11_1416,P23,
stim_fb/ques.jpg,stim_fb/negf.jpg,stim_fb/posf.jpg,stim_03/c.jpg,stim_03/d.jpg,2,2,j,4,39,279,35,j,1,0.64980634053,03,01,60.0191282866,PLT_learning_3,N,2014_Mrz_11_1416,P23,
stim_fb/ques.jpg,stim_fb/posf.jpg,stim_fb/negf.jpg,stim_03/d.jpg,stim_03/c.jpg,1,2,f,4,40,280,28,f,1,1.39955810724,03,01,60.0191282866,PLT_learning_3,N,2014_Mrz_11_1416,P23,
stim_fb/ques.jpg,stim_fb/posf.jpg,stim_fb/negf.jpg,stim_03/d.jpg,stim_03/c.jpg,1,2,f,4,41,281,29,j,0,0.666490146352,03,01,60.0191282866,PLT_learning_3,N,2014_Mrz_11_1416,P23,
stim_fb/ques.jpg,stim_fb/posf.jpg,stim_fb/negf.jpg,stim_03/f.jpg,stim_03/e.jpg,1,3,f,4,42,282,48,f,1,0.699788874562,03,01,60.0191282866,PLT_learning_3,N,2014_Mrz_11_1416,P23,
stim_fb/ques.jpg,stim_fb/negf.jpg,stim_fb/posf.jpg,stim_03/e.jpg,stim_03/f.jpg,2,3,j,4,43,283,51,f,0,0.966389684327,03,01,60.0191282866,PLT_learning_3,N,2014_Mrz_11_1416,P23,
stim_fb/ques.jpg,stim_fb/negf.jpg,stim_fb/posf.jpg,stim_03/f.jpg,stim_03/e.jpg,1,3,f,4,44,284,45,j,0,0.683165489111,03,01,60.0191282866,PLT_learning_3,N,2014_Mrz_11_1416,P23,
stim_fb/ques.jpg,stim_fb/negf.jpg,stim_fb/posf.jpg,stim_03/f.jpg,stim_03/e.jpg,1,3,f,4,45,285,44,j,0,0.766395245166,03,01,60.0191282866,PLT_learning_3,N,2014_Mrz_11_1416,P23,
stim_fb/ques.jpg,stim_fb/negf.jpg,stim_fb/posf.jpg,stim_03/d.jpg,stim_03/c.jpg,1,2,f,4,46,286,24,f,1,0.866427906452,03,01,60.0191282866,PLT_learning_3,N,2014_Mrz_11_1416,P23,
stim_fb/ques.jpg,stim_fb/posf.jpg,stim_fb/negf.jpg,stim_03/a.jpg,stim_03/b.jpg,2,1,j,4,47,287,18,j,1,0.899743383345,03,01,60.0191282866,PLT_learning_3,N,2014_Mrz_11_1416,P23,
stim_fb/ques.jpg,stim_fb/negf.jpg,stim_fb/posf.jpg,stim_03/f.jpg,stim_03/e.jpg,1,3,f,4,48,288,43,j,0,0.749819627598,03,01,60.0191282866,PLT_learning_3,N,2014_Mrz_11_1416,P23,
stim_fb/ques.jpg,stim_fb/negf.jpg,stim_fb/posf.jpg,stim_03/f.jpg,stim_03/e.jpg,1,3,f,4,49,289,40,j,0,0.733151454683,03,01,60.0191282866,PLT_learning_3,N,2014_Mrz_11_1416,P23,
stim_fb/ques.jpg,stim_fb/negf.jpg,stim_fb/posf.jpg,stim_03/a.jpg,stim_03/b.jpg,2,1,j,4,50,290,11,j,1,0.933049224257,03,01,60.0191282866,PLT_learning_3,N,2014_Mrz_11_1416,P23,
stim_fb/ques.jpg,stim_fb/posf.jpg,stim_fb/negf.jpg,stim_03/f.jpg,stim_03/e.jpg,1,3,f,4,51,291,46,f,1,0.899800940591,03,01,60.0191282866,PLT_learning_3,N,2014_Mrz_11_1416,P23,
stim_fb/ques.jpg,stim_fb/posf.jpg,stim_fb/negf.jpg,stim_03/c.jpg,stim_03/d.jpg,2,2,j,4,52,292,37,j,1,0.783122821923,03,01,60.0191282866,PLT_learning_3,N,2014_Mrz_11_1416,P23,
stim_fb/ques.jpg,stim_fb/posf.jpg,stim_fb/negf.jpg,stim_03/c.jpg,stim_03/d.jpg,2,2,j,4,53,293,39,j,1,0.74976850637,03,01,60.0191282866,PLT_learning_3,N,2014_Mrz_11_1416,P23,
stim_fb/ques.jpg,stim_fb/negf.jpg,stim_fb/posf.jpg,stim_03/f.jpg,stim_03/e.jpg,1,3,f,4,54,294,42,f,1,1.0497075657,03,01,60.0191282866,PLT_learning_3,N,2014_Mrz_11_1416,P23,
stim_fb/ques.jpg,stim_fb/negf.jpg,stim_fb/posf.jpg,stim_03/b.jpg,stim_03/a.jpg,1,1,f,4,55,295,0,j,0,0.716451393405,03,01,60.0191282866,PLT_learning_3,N,2014_Mrz_11_1416,P23,
stim_fb/ques.jpg,stim_fb/negf.jpg,stim_fb/posf.jpg,stim_03/b.jpg,stim_03/a.jpg,1,1,f,4,56,296,1,f,1,0.766471268369,03,01,60.0191282866,PLT_learning_3,N,2014_Mrz_11_1416,P23,
stim_fb/ques.jpg,stim_fb/negf.jpg,stim_fb/posf.jpg,stim_03/c.jpg,stim_03/d.jpg,2,2,j,4,57,297,30,j,1,1.01639383616,03,01,60.0191282866,PLT_learning_3,N,2014_Mrz_11_1416,P23,
stim_fb/ques.jpg,stim_fb/negf.jpg,stim_fb/posf.jpg,stim_03/e.jpg,stim_03/f.jpg,2,3,j,4,58,298,52,f,0,0.79980669391,03,01,60.0191282866,PLT_learning_3,N,2014_Mrz_11_1416,P23,
stim_fb/ques.jpg,stim_fb/posf.jpg,stim_fb/negf.jpg,stim_03/b.jpg,stim_03/a.jpg,1,1,f,4,59,299,8,f,1,0.933053230227,03,01,60.0191282866,PLT_learning_3,N,2014_Mrz_11_1416,P23,
stim_fb/ques.jpg,stim_fb/posf.jpg,stim_fb/negf.jpg,stim_03/c.jpg,stim_03/d.jpg,2,2,j,5,0,300,38,j,1,0.816459474517,03,01,60.0191282866,PLT_learning_3,N,2014_Mrz_11_1416,P23,
stim_fb/ques.jpg,stim_fb/negf.jpg,stim_fb/posf.jpg,stim_03/b.jpg,stim_03/a.jpg,1,1,f,5,1,301,2,f,1,0.583160502701,03,01,60.0191282866,PLT_learning_3,N,2014_Mrz_11_1416,P23,
stim_fb/ques.jpg,stim_fb/negf.jpg,stim_fb/posf.jpg,stim_03/e.jpg,stim_03/f.jpg,2,3,j,5,2,302,53,j,1,0.999720418191,03,01,60.0191282866,PLT_learning_3,N,2014_Mrz_11_1416,P23,
stim_fb/ques.jpg,stim_fb/negf.jpg,stim_fb/posf.jpg,stim_03/f.jpg,stim_03/e.jpg,1,3,f,5,3,303,40,f,1,0.849782091179,03,01,60.0191282866,PLT_learning_3,N,2014_Mrz_11_1416,P23,
stim_fb/ques.jpg,stim_fb/negf.jpg,stim_fb/posf.jpg,stim_03/e.jpg,stim_03/f.jpg,2,3,j,5,4,304,50,j,1,0.666775261933,03,01,60.0191282866,PLT_learning_3,N,2014_Mrz_11_1416,P23,
stim_fb/ques.jpg,stim_fb/negf.jpg,stim_fb/posf.jpg,stim_03/e.jpg,stim_03/f.jpg,2,3,j,5,5,305,54,j,1,0.733143145002,03,01,60.0191282866,PLT_learning_3,N,2014_Mrz_11_1416,P23,
stim_fb/ques.jpg,stim_fb/posf.jpg,stim_fb/negf.jpg,stim_03/f.jpg,stim_03/e.jpg,1,3,f,5,6,306,46,f,1,0.616497726717,03,01,60.0191282866,PLT_learning_3,N,2014_Mrz_11_1416,P23,
stim_fb/ques.jpg,stim_fb/negf.jpg,stim_fb/posf.jpg,stim_03/d.jpg,stim_03/c.jpg,1,2,f,5,7,307,20,f,1,0.86641585546,03,01,60.0191282866,PLT_learning_3,N,2014_Mrz_11_1416,P23,
stim_fb/ques.jpg,stim_fb/negf.jpg,stim_fb/posf.jpg,stim_03/c.jpg,stim_03/d.jpg,2,2,j,5,8,308,36,j,1,0.633162498167,03,01,60.0191282866,PLT_learning_3,N,2014_Mrz_11_1416,P23,
stim_fb/ques.jpg,stim_fb/negf.jpg,stim_fb/posf.jpg,stim_03/a.jpg,stim_03/b.jpg,2,1,j,5,9,309,12,j,1,1.01633054665,03,01,60.0191282866,PLT_learning_3,N,2014_Mrz_11_1416,P23,
stim_fb/ques.jpg,stim_fb/posf.jpg,stim_fb/negf.jpg,stim_03/d.jpg,stim_03/c.jpg,1,2,f,5,10,310,28,f,1,0.583196312824,03,01,60.0191282866,PLT_learning_3,N,2014_Mrz_11_1416,P23,
stim_fb/ques.jpg,stim_fb/negf.jpg,stim_fb/posf.jpg,stim_03/a.jpg,stim_03/b.jpg,2,1,j,5,11,311,13,j,1,0.63316253125,03,01,60.0191282866,PLT_learning_3,N,2014_Mrz_11_1416,P23,
stim_fb/ques.jpg,stim_fb/negf.jpg,stim_fb/posf.jpg,stim_03/a.jpg,stim_03/b.jpg,2,1,j,5,12,312,14,f,0,0.983065932339,03,01,60.0191282866,PLT_learning_3,N,2014_Mrz_11_1416,P23,
stim_fb/ques.jpg,stim_fb/negf.jpg,stim_fb/posf.jpg,stim_03/e.jpg,stim_03/f.jpg,2,3,j,5,13,313,55,j,1,0.849784749796,03,01,60.0191282866,PLT_learning_3,N,2014_Mrz_11_1416,P23,
stim_fb/ques.jpg,stim_fb/negf.jpg,stim_fb/posf.jpg,stim_03/b.jpg,stim_03/a.jpg,1,1,f,5,14,314,5,f,1,0.783102202607,03,01,60.0191282866,PLT_learning_3,N,2014_Mrz_11_1416,P23,
stim_fb/ques.jpg,stim_fb/negf.jpg,stim_fb/posf.jpg,stim_03/c.jpg,stim_03/d.jpg,2,2,j,5,15,315,33,f,0,1.1496725676,03,01,60.0191282866,PLT_learning_3,N,2014_Mrz_11_1416,P23,
stim_fb/ques.jpg,stim_fb/posf.jpg,stim_fb/negf.jpg,stim_03/e.jpg,stim_03/f.jpg,2,3,j,5,16,316,56,j,1,0.81644145066,03,01,60.0191282866,PLT_learning_3,N,2014_Mrz_11_1416,P23,
stim_fb/ques.jpg,stim_fb/negf.jpg,stim_fb/posf.jpg,stim_03/a.jpg,stim_03/b.jpg,2,1,j,5,17,317,16,j,1,0.866427055334,03,01,60.0191282866,PLT_learning_3,N,2014_Mrz_11_1416,P23,
stim_fb/ques.jpg,stim_fb/posf.jpg,stim_fb/negf.jpg,stim_03/c.jpg,stim_03/d.jpg,2,2,j,5,18,318,37,j,1,0.849775381481,03,01,60.0191282866,PLT_learning_3,N,2014_Mrz_11_1416,P23,
stim_fb/ques.jpg,stim_fb/negf.jpg,stim_fb/posf.jpg,stim_03/b.jpg,stim_03/a.jpg,1,1,f,5,19,319,4,f,1,0.966406760826,03,01,60.0191282866,PLT_learning_3,N,2014_Mrz_11_1416,P23,
stim_fb/ques.jpg,stim_fb/negf.jpg,stim_fb/posf.jpg,stim_03/b.jpg,stim_03/a.jpg,1,1,f,5,20,320,3,f,1,1.11634968628,03,01,60.0191282866,PLT_learning_3,N,2014_Mrz_11_1416,P23,
stim_fb/ques.jpg,stim_fb/negf.jpg,stim_fb/posf.jpg,stim_03/d.jpg,stim_03/c.jpg,1,2,f,5,21,321,25,f,1,0.966382712977,03,01,60.0191282866,PLT_learning_3,N,2014_Mrz_11_1416,P23,
stim_fb/ques.jpg,stim_fb/posf.jpg,stim_fb/negf.jpg,stim_03/b.jpg,stim_03/a.jpg,1,1,f,5,22,322,9,f,1,0.916400368417,03,01,60.0191282866,PLT_learning_3,N,2014_Mrz_11_1416,P23,
stim_fb/ques.jpg,stim_fb/negf.jpg,stim_fb/posf.jpg,stim_03/c.jpg,stim_03/d.jpg,2,2,j,5,23,323,30,j,1,0.81637587546,03,01,60.0191282866,PLT_learning_3,N,2014_Mrz_11_1416,P23,
stim_fb/ques.jpg,stim_fb/negf.jpg,stim_fb/posf.jpg,stim_03/b.jpg,stim_03/a.jpg,1,1,f,5,24,324,6,f,1,0.766468113517,03,01,60.0191282866,PLT_learning_3,N,2014_Mrz_11_1416,P23,
stim_fb/ques.jpg,stim_fb/negf.jpg,stim_fb/posf.jpg,stim_03/e.jpg,stim_03/f.jpg,2,3,j,5,25,325,51,j,1,0.73310934388,03,01,60.0191282866,PLT_learning_3,N,2014_Mrz_11_1416,P23,
stim_fb/ques.jpg,stim_fb/negf.jpg,stim_fb/posf.jpg,stim_03/f.jpg,stim_03/e.jpg,1,3,f,5,26,326,42,f,1,0.849690501235,03,01,60.0191282866,PLT_learning_3,N,2014_Mrz_11_1416,P23,
stim_fb/ques.jpg,stim_fb/posf.jpg,stim_fb/negf.jpg,stim_03/e.jpg,stim_03/f.jpg,2,3,j,5,27,327,58,j,1,0.783100365034,03,01,60.0191282866,PLT_learning_3,N,2014_Mrz_11_1416,P23,
stim_fb/ques.jpg,stim_fb/posf.jpg,stim_fb/negf.jpg,stim_03/c.jpg,stim_03/d.jpg,2,2,j,5,28,328,39,j,1,1.23300962771,03,01,60.0191282866,PLT_learning_3,N,2014_Mrz_11_1416,P23,
stim_fb/ques.jpg,stim_fb/negf.jpg,stim_fb/posf.jpg,stim_03/a.jpg,stim_03/b.jpg,2,1,j,5,29,329,10,j,1,1.03302626512,03,01,60.0191282866,PLT_learning_3,N,2014_Mrz_11_1416,P23,
stim_fb/ques.jpg,stim_fb/negf.jpg,stim_fb/posf.jpg,stim_03/c.jpg,stim_03/d.jpg,2,2,j,5,30,330,35,f,0,1.06630401612,03,01,60.0191282866,PLT_learning_3,N,2014_Mrz_11_1416,P23,
stim_fb/ques.jpg,stim_fb/posf.jpg,stim_fb/negf.jpg,stim_03/f.jpg,stim_03/e.jpg,1,3,f,5,31,331,49,f,1,0.883091459871,03,01,60.0191282866,PLT_learning_3,N,2014_Mrz_11_1416,P23,
stim_fb/ques.jpg,stim_fb/negf.jpg,stim_fb/posf.jpg,stim_03/a.jpg,stim_03/b.jpg,2,1,j,5,32,332,17,j,1,0.766453012936,03,01,60.0191282866,PLT_learning_3,N,2014_Mrz_11_1416,P23,
stim_fb/ques.jpg,stim_fb/negf.jpg,stim_fb/posf.jpg,stim_03/f.jpg,stim_03/e.jpg,1,3,f,5,33,333,43,f,1,0.999726724887,03,01,60.0191282866,PLT_learning_3,N,2014_Mrz_11_1416,P23,
stim_fb/ques.jpg,stim_fb/negf.jpg,stim_fb/posf.jpg,stim_03/c.jpg,stim_03/d.jpg,2,2,j,5,34,334,34,j,1,0.666482835156,03,01,60.0191282866,PLT_learning_3,N,2014_Mrz_11_1416,P23,
stim_fb/ques.jpg,stim_fb/posf.jpg,stim_fb/negf.jpg,stim_03/f.jpg,stim_03/e.jpg,1,3,f,5,35,335,48,j,0,1.39958183329,03,01,60.0191282866,PLT_learning_3,N,2014_Mrz_11_1416,P23,
stim_fb/ques.jpg,stim_fb/negf.jpg,stim_fb/posf.jpg,stim_03/d.jpg,stim_03/c.jpg,1,2,f,5,36,336,24,f,1,0.949737505216,03,01,60.0191282866,PLT_learning_3,N,2014_Mrz_11_1416,P23,
stim_fb/ques.jpg,stim_fb/negf.jpg,stim_fb/posf.jpg,stim_03/d.jpg,stim_03/c.jpg,1,2,f,5,37,337,22,j,0,1.09966195268,03,01,60.0191282866,PLT_learning_3,N,2014_Mrz_11_1416,P23,
stim_fb/ques.jpg,stim_fb/negf.jpg,stim_fb/posf.jpg,stim_03/c.jpg,stim_03/d.jpg,2,2,j,5,38,338,31,j,1,0.699831174836,03,01,60.0191282866,PLT_learning_3,N,2014_Mrz_11_1416,P23,
stim_fb/ques.jpg,stim_fb/posf.jpg,stim_fb/negf.jpg,stim_03/f.jpg,stim_03/e.jpg,1,3,f,5,39,339,47,j,0,1.19962715909,03,01,60.0191282866,PLT_learning_3,N,2014_Mrz_11_1416,P23,
stim_fb/ques.jpg,stim_fb/negf.jpg,stim_fb/posf.jpg,stim_03/c.jpg,stim_03/d.jpg,2,2,j,5,40,340,32,f,0,0.99974095029,03,01,60.0191282866,PLT_learning_3,N,2014_Mrz_11_1416,P23,
stim_fb/ques.jpg,stim_fb/posf.jpg,stim_fb/negf.jpg,stim_03/e.jpg,stim_03/f.jpg,2,3,j,5,41,341,57,f,0,0.799779268655,03,01,60.0191282866,PLT_learning_3,N,2014_Mrz_11_1416,P23,
stim_fb/ques.jpg,stim_fb/negf.jpg,stim_fb/posf.jpg,stim_03/d.jpg,stim_03/c.jpg,1,2,f,5,42,342,26,f,1,1.29961689455,03,01,60.0191282866,PLT_learning_3,N,2014_Mrz_11_1416,P23,
stim_fb/ques.jpg,stim_fb/negf.jpg,stim_fb/posf.jpg,stim_03/f.jpg,stim_03/e.jpg,1,3,f,5,43,343,44,f,1,1.08303399886,03,01,60.0191282866,PLT_learning_3,N,2014_Mrz_11_1416,P23,
stim_fb/ques.jpg,stim_fb/posf.jpg,stim_fb/negf.jpg,stim_03/d.jpg,stim_03/c.jpg,1,2,f,5,44,344,29,j,0,0.86641351263,03,01,60.0191282866,PLT_learning_3,N,2014_Mrz_11_1416,P23,
stim_fb/ques.jpg,stim_fb/posf.jpg,stim_fb/negf.jpg,stim_03/a.jpg,stim_03/b.jpg,2,1,j,5,45,345,19,j,1,0.883098698887,03,01,60.0191282866,PLT_learning_3,N,2014_Mrz_11_1416,P23,
stim_fb/ques.jpg,stim_fb/posf.jpg,stim_fb/negf.jpg,stim_03/a.jpg,stim_03/b.jpg,2,1,j,5,46,346,18,j,1,0.766441897272,03,01,60.0191282866,PLT_learning_3,N,2014_Mrz_11_1416,P23,
stim_fb/ques.jpg,stim_fb/posf.jpg,stim_fb/negf.jpg,stim_03/e.jpg,stim_03/f.jpg,2,3,j,5,47,347,59,None,0,,03,01,60.0191282866,PLT_learning_3,N,2014_Mrz_11_1416,P23,
stim_fb/ques.jpg,stim_fb/negf.jpg,stim_fb/posf.jpg,stim_03/e.jpg,stim_03/f.jpg,2,3,j,5,48,348,52,f,0,0.149960459092,03,01,60.0191282866,PLT_learning_3,N,2014_Mrz_11_1416,P23,
stim_fb/ques.jpg,stim_fb/negf.jpg,stim_fb/posf.jpg,stim_03/d.jpg,stim_03/c.jpg,1,2,f,5,49,349,21,j,0,0.999717076875,03,01,60.0191282866,PLT_learning_3,N,2014_Mrz_11_1416,P23,
stim_fb/ques.jpg,stim_fb/posf.jpg,stim_fb/negf.jpg,stim_03/b.jpg,stim_03/a.jpg,1,1,f,5,50,350,8,f,1,0.933072008962,03,01,60.0191282866,PLT_learning_3,N,2014_Mrz_11_1416,P23,
stim_fb/ques.jpg,stim_fb/negf.jpg,stim_fb/posf.jpg,stim_03/a.jpg,stim_03/b.jpg,2,1,j,5,51,351,11,j,1,0.666511475435,03,01,60.0191282866,PLT_learning_3,N,2014_Mrz_11_1416,P23,
stim_fb/ques.jpg,stim_fb/negf.jpg,stim_fb/posf.jpg,stim_03/b.jpg,stim_03/a.jpg,1,1,f,5,52,352,0,f,1,0.783100948486,03,01,60.0191282866,PLT_learning_3,N,2014_Mrz_11_1416,P23,
stim_fb/ques.jpg,stim_fb/negf.jpg,stim_fb/posf.jpg,stim_03/f.jpg,stim_03/e.jpg,1,3,f,5,53,353,41,j,0,1.11635054943,03,01,60.0191282866,PLT_learning_3,N,2014_Mrz_11_1416,P23,
stim_fb/ques.jpg,stim_fb/negf.jpg,stim_fb/posf.jpg,stim_03/b.jpg,stim_03/a.jpg,1,1,f,5,54,354,1,f,1,0.766443581463,03,01,60.0191282866,PLT_learning_3,N,2014_Mrz_11_1416,P23,
stim_fb/ques.jpg,stim_fb/posf.jpg,stim_fb/negf.jpg,stim_03/d.jpg,stim_03/c.jpg,1,2,f,5,55,355,27,f,1,0.733137358601,03,01,60.0191282866,PLT_learning_3,N,2014_Mrz_11_1416,P23,
stim_fb/ques.jpg,stim_fb/negf.jpg,stim_fb/posf.jpg,stim_03/f.jpg,stim_03/e.jpg,1,3,f,5,56,356,45,f,1,0.749807480367,03,01,60.0191282866,PLT_learning_3,N,2014_Mrz_11_1416,P23,
stim_fb/ques.jpg,stim_fb/negf.jpg,stim_fb/posf.jpg,stim_03/a.jpg,stim_03/b.jpg,2,1,j,5,57,357,15,j,1,0.64987136536,03,01,60.0191282866,PLT_learning_3,N,2014_Mrz_11_1416,P23,
stim_fb/ques.jpg,stim_fb/negf.jpg,stim_fb/posf.jpg,stim_03/d.jpg,stim_03/c.jpg,1,2,f,5,58,358,23,f,1,1.04965158739,03,01,60.0191282866,PLT_learning_3,N,2014_Mrz_11_1416,P23,
stim_fb/ques.jpg,stim_fb/negf.jpg,stim_fb/posf.jpg,stim_03/b.jpg,stim_03/a.jpg,1,1,f,5,59,359,7,f,1,0.833115070131,03,01,60.0191282866,PLT_learning_3,N,2014_Mrz_11_1416,P23,
