Fb3,Fb2,Fb1,Symbol2,Symbol1,PosCond,Pair,Correct,trials.thisRepN,trials.thisTrialN,trials.thisN,trials.thisIndex,Response.keys,Response.corr,Response.rt,Version,Session Number,frameRate,expName,StimCondition,date,Participant,
stim_fb/ques.jpg,stim_fb/negf.jpg,stim_fb/posf.jpg,stim_03/b.jpg,stim_03/a.jpg,1,1,f,0,0,0,5,None,0,,03,01,60.01514789,PLT_learning_3,N,2014_Mrz_10_1752,P24,
stim_fb/ques.jpg,stim_fb/posf.jpg,stim_fb/negf.jpg,stim_03/b.jpg,stim_03/a.jpg,1,1,f,0,1,1,8,f,1,1.11632584718,03,01,60.01514789,PLT_learning_3,N,2014_Mrz_10_1752,P24,
stim_fb/ques.jpg,stim_fb/negf.jpg,stim_fb/posf.jpg,stim_03/a.jpg,stim_03/b.jpg,2,1,j,0,2,2,13,f,0,0.933045544018,03,01,60.01514789,PLT_learning_3,N,2014_Mrz_10_1752,P24,
stim_fb/ques.jpg,stim_fb/negf.jpg,stim_fb/posf.jpg,stim_03/d.jpg,stim_03/c.jpg,1,2,f,0,3,3,23,j,0,1.44956260179,03,01,60.01514789,PLT_learning_3,N,2014_Mrz_10_1752,P24,
stim_fb/ques.jpg,stim_fb/posf.jpg,stim_fb/negf.jpg,stim_03/a.jpg,stim_03/b.jpg,2,1,j,0,4,4,19,j,1,1.54951088789,03,01,60.01514789,PLT_learning_3,N,2014_Mrz_10_1752,P24,
stim_fb/ques.jpg,stim_fb/negf.jpg,stim_fb/posf.jpg,stim_03/c.jpg,stim_03/d.jpg,2,2,j,0,5,5,30,f,0,1.3829503297,03,01,60.01514789,PLT_learning_3,N,2014_Mrz_10_1752,P24,
stim_fb/ques.jpg,stim_fb/posf.jpg,stim_fb/negf.jpg,stim_03/d.jpg,stim_03/c.jpg,1,2,f,0,6,6,27,j,0,1.41644099217,03,01,60.01514789,PLT_learning_3,N,2014_Mrz_10_1752,P24,
stim_fb/ques.jpg,stim_fb/negf.jpg,stim_fb/posf.jpg,stim_03/d.jpg,stim_03/c.jpg,1,2,f,0,7,7,25,j,0,1.0330268013,03,01,60.01514789,PLT_learning_3,N,2014_Mrz_10_1752,P24,
stim_fb/ques.jpg,stim_fb/posf.jpg,stim_fb/negf.jpg,stim_03/f.jpg,stim_03/e.jpg,1,3,f,0,8,8,47,f,1,1.41623697566,03,01,60.01514789,PLT_learning_3,N,2014_Mrz_10_1752,P24,
stim_fb/ques.jpg,stim_fb/posf.jpg,stim_fb/negf.jpg,stim_03/c.jpg,stim_03/d.jpg,2,2,j,0,9,9,39,j,1,1.44959870076,03,01,60.01514789,PLT_learning_3,N,2014_Mrz_10_1752,P24,
stim_fb/ques.jpg,stim_fb/negf.jpg,stim_fb/posf.jpg,stim_03/b.jpg,stim_03/a.jpg,1,1,f,0,10,10,0,f,1,1.53289950602,03,01,60.01514789,PLT_learning_3,N,2014_Mrz_10_1752,P24,
stim_fb/ques.jpg,stim_fb/negf.jpg,stim_fb/posf.jpg,stim_03/e.jpg,stim_03/f.jpg,2,3,j,0,11,11,53,f,0,1.31628393772,03,01,60.01514789,PLT_learning_3,N,2014_Mrz_10_1752,P24,
stim_fb/ques.jpg,stim_fb/negf.jpg,stim_fb/posf.jpg,stim_03/f.jpg,stim_03/e.jpg,1,3,f,0,12,12,43,j,0,1.29966000857,03,01,60.01514789,PLT_learning_3,N,2014_Mrz_10_1752,P24,
stim_fb/ques.jpg,stim_fb/negf.jpg,stim_fb/posf.jpg,stim_03/c.jpg,stim_03/d.jpg,2,2,j,0,13,13,32,j,1,1.49959561507,03,01,60.01514789,PLT_learning_3,N,2014_Mrz_10_1752,P24,
stim_fb/ques.jpg,stim_fb/posf.jpg,stim_fb/negf.jpg,stim_03/e.jpg,stim_03/f.jpg,2,3,j,0,14,14,58,j,1,1.16620440448,03,01,60.01514789,PLT_learning_3,N,2014_Mrz_10_1752,P24,
stim_fb/ques.jpg,stim_fb/negf.jpg,stim_fb/posf.jpg,stim_03/e.jpg,stim_03/f.jpg,2,3,j,0,15,15,51,f,0,1.23300098195,03,01,60.01514789,PLT_learning_3,N,2014_Mrz_10_1752,P24,
stim_fb/ques.jpg,stim_fb/posf.jpg,stim_fb/negf.jpg,stim_03/e.jpg,stim_03/f.jpg,2,3,j,0,16,16,57,j,1,1.09969118428,03,01,60.01514789,PLT_learning_3,N,2014_Mrz_10_1752,P24,
stim_fb/ques.jpg,stim_fb/negf.jpg,stim_fb/posf.jpg,stim_03/a.jpg,stim_03/b.jpg,2,1,j,0,17,17,16,j,1,1.53288123247,03,01,60.01514789,PLT_learning_3,N,2014_Mrz_10_1752,P24,
stim_fb/ques.jpg,stim_fb/negf.jpg,stim_fb/posf.jpg,stim_03/a.jpg,stim_03/b.jpg,2,1,j,0,18,18,12,j,1,1.51620026616,03,01,60.01514789,PLT_learning_3,N,2014_Mrz_10_1752,P24,
stim_fb/ques.jpg,stim_fb/posf.jpg,stim_fb/negf.jpg,stim_03/d.jpg,stim_03/c.jpg,1,2,f,0,19,19,28,j,0,1.53282384644,03,01,60.01514789,PLT_learning_3,N,2014_Mrz_10_1752,P24,
stim_fb/ques.jpg,stim_fb/negf.jpg,stim_fb/posf.jpg,stim_03/c.jpg,stim_03/d.jpg,2,2,j,0,20,20,31,j,1,1.23297106338,03,01,60.01514789,PLT_learning_3,N,2014_Mrz_10_1752,P24,
stim_fb/ques.jpg,stim_fb/negf.jpg,stim_fb/posf.jpg,stim_03/b.jpg,stim_03/a.jpg,1,1,f,0,21,21,6,f,1,1.63288048661,03,01,60.01514789,PLT_learning_3,N,2014_Mrz_10_1752,P24,
stim_fb/ques.jpg,stim_fb/posf.jpg,stim_fb/negf.jpg,stim_03/e.jpg,stim_03/f.jpg,2,3,j,0,22,22,59,f,0,1.21631552244,03,01,60.01514789,PLT_learning_3,N,2014_Mrz_10_1752,P24,
stim_fb/ques.jpg,stim_fb/negf.jpg,stim_fb/posf.jpg,stim_03/b.jpg,stim_03/a.jpg,1,1,f,0,23,23,2,f,1,1.19968166856,03,01,60.01514789,PLT_learning_3,N,2014_Mrz_10_1752,P24,
stim_fb/ques.jpg,stim_fb/posf.jpg,stim_fb/negf.jpg,stim_03/a.jpg,stim_03/b.jpg,2,1,j,0,24,24,18,j,1,1.08299642559,03,01,60.01514789,PLT_learning_3,N,2014_Mrz_10_1752,P24,
stim_fb/ques.jpg,stim_fb/negf.jpg,stim_fb/posf.jpg,stim_03/b.jpg,stim_03/a.jpg,1,1,f,0,25,25,7,f,1,0.933076027999,03,01,60.01514789,PLT_learning_3,N,2014_Mrz_10_1752,P24,
stim_fb/ques.jpg,stim_fb/posf.jpg,stim_fb/negf.jpg,stim_03/b.jpg,stim_03/a.jpg,1,1,f,0,26,26,9,j,0,1.58284915452,03,01,60.01514789,PLT_learning_3,N,2014_Mrz_10_1752,P24,
stim_fb/ques.jpg,stim_fb/negf.jpg,stim_fb/posf.jpg,stim_03/c.jpg,stim_03/d.jpg,2,2,j,0,27,27,36,j,1,1.26630181127,03,01,60.01514789,PLT_learning_3,N,2014_Mrz_10_1752,P24,
stim_fb/ques.jpg,stim_fb/negf.jpg,stim_fb/posf.jpg,stim_03/a.jpg,stim_03/b.jpg,2,1,j,0,28,28,11,j,1,1.28294617634,03,01,60.01514789,PLT_learning_3,N,2014_Mrz_10_1752,P24,
stim_fb/ques.jpg,stim_fb/negf.jpg,stim_fb/posf.jpg,stim_03/d.jpg,stim_03/c.jpg,1,2,f,0,29,29,20,f,1,1.33293027571,03,01,60.01514789,PLT_learning_3,N,2014_Mrz_10_1752,P24,
stim_fb/ques.jpg,stim_fb/posf.jpg,stim_fb/negf.jpg,stim_03/f.jpg,stim_03/e.jpg,1,3,f,0,30,30,46,j,0,1.299654162,03,01,60.01514789,PLT_learning_3,N,2014_Mrz_10_1752,P24,
stim_fb/ques.jpg,stim_fb/posf.jpg,stim_fb/negf.jpg,stim_03/f.jpg,stim_03/e.jpg,1,3,f,0,31,31,48,j,0,1.01638418057,03,01,60.01514789,PLT_learning_3,N,2014_Mrz_10_1752,P24,
stim_fb/ques.jpg,stim_fb/negf.jpg,stim_fb/posf.jpg,stim_03/e.jpg,stim_03/f.jpg,2,3,j,0,32,32,54,f,0,1.38288816174,03,01,60.01514789,PLT_learning_3,N,2014_Mrz_10_1752,P24,
stim_fb/ques.jpg,stim_fb/negf.jpg,stim_fb/posf.jpg,stim_03/d.jpg,stim_03/c.jpg,1,2,f,0,33,33,22,f,1,1.64950725483,03,01,60.01514789,PLT_learning_3,N,2014_Mrz_10_1752,P24,
stim_fb/ques.jpg,stim_fb/negf.jpg,stim_fb/posf.jpg,stim_03/e.jpg,stim_03/f.jpg,2,3,j,0,34,34,55,f,0,1.19956147999,03,01,60.01514789,PLT_learning_3,N,2014_Mrz_10_1752,P24,
stim_fb/ques.jpg,stim_fb/posf.jpg,stim_fb/negf.jpg,stim_03/c.jpg,stim_03/d.jpg,2,2,j,0,35,35,37,j,1,1.29961527207,03,01,60.01514789,PLT_learning_3,N,2014_Mrz_10_1752,P24,
stim_fb/ques.jpg,stim_fb/negf.jpg,stim_fb/posf.jpg,stim_03/d.jpg,stim_03/c.jpg,1,2,f,0,36,36,26,j,0,1.46625355298,03,01,60.01514789,PLT_learning_3,N,2014_Mrz_10_1752,P24,
stim_fb/ques.jpg,stim_fb/negf.jpg,stim_fb/posf.jpg,stim_03/b.jpg,stim_03/a.jpg,1,1,f,0,37,37,4,f,1,1.28293916286,03,01,60.01514789,PLT_learning_3,N,2014_Mrz_10_1752,P24,
stim_fb/ques.jpg,stim_fb/negf.jpg,stim_fb/posf.jpg,stim_03/f.jpg,stim_03/e.jpg,1,3,f,0,38,38,45,j,0,1.21634514628,03,01,60.01514789,PLT_learning_3,N,2014_Mrz_10_1752,P24,
stim_fb/ques.jpg,stim_fb/negf.jpg,stim_fb/posf.jpg,stim_03/d.jpg,stim_03/c.jpg,1,2,f,0,39,39,24,None,0,,03,01,60.01514789,PLT_learning_3,N,2014_Mrz_10_1752,P24,
stim_fb/ques.jpg,stim_fb/negf.jpg,stim_fb/posf.jpg,stim_03/a.jpg,stim_03/b.jpg,2,1,j,0,40,40,15,j,1,1.06640233682,03,01,60.01514789,PLT_learning_3,N,2014_Mrz_10_1752,P24,
stim_fb/ques.jpg,stim_fb/negf.jpg,stim_fb/posf.jpg,stim_03/f.jpg,stim_03/e.jpg,1,3,f,0,41,41,41,j,0,1.41626927918,03,01,60.01514789,PLT_learning_3,N,2014_Mrz_10_1752,P24,
stim_fb/ques.jpg,stim_fb/negf.jpg,stim_fb/posf.jpg,stim_03/d.jpg,stim_03/c.jpg,1,2,f,0,42,42,21,f,1,1.51620223908,03,01,60.01514789,PLT_learning_3,N,2014_Mrz_10_1752,P24,
stim_fb/ques.jpg,stim_fb/negf.jpg,stim_fb/posf.jpg,stim_03/a.jpg,stim_03/b.jpg,2,1,j,0,43,43,14,j,1,0.949714775077,03,01,60.01514789,PLT_learning_3,N,2014_Mrz_10_1752,P24,
stim_fb/ques.jpg,stim_fb/negf.jpg,stim_fb/posf.jpg,stim_03/b.jpg,stim_03/a.jpg,1,1,f,0,44,44,3,f,1,1.53287325359,03,01,60.01514789,PLT_learning_3,N,2014_Mrz_10_1752,P24,
stim_fb/ques.jpg,stim_fb/negf.jpg,stim_fb/posf.jpg,stim_03/a.jpg,stim_03/b.jpg,2,1,j,0,45,45,17,j,1,1.14968205352,03,01,60.01514789,PLT_learning_3,N,2014_Mrz_10_1752,P24,
stim_fb/ques.jpg,stim_fb/negf.jpg,stim_fb/posf.jpg,stim_03/e.jpg,stim_03/f.jpg,2,3,j,0,46,46,50,f,0,1.04970200826,03,01,60.01514789,PLT_learning_3,N,2014_Mrz_10_1752,P24,
stim_fb/ques.jpg,stim_fb/negf.jpg,stim_fb/posf.jpg,stim_03/c.jpg,stim_03/d.jpg,2,2,j,0,47,47,33,j,1,1.13301707807,03,01,60.01514789,PLT_learning_3,N,2014_Mrz_10_1752,P24,
stim_fb/ques.jpg,stim_fb/negf.jpg,stim_fb/posf.jpg,stim_03/c.jpg,stim_03/d.jpg,2,2,j,0,48,48,35,j,1,1.48289290156,03,01,60.01514789,PLT_learning_3,N,2014_Mrz_10_1752,P24,
stim_fb/ques.jpg,stim_fb/negf.jpg,stim_fb/posf.jpg,stim_03/f.jpg,stim_03/e.jpg,1,3,f,0,49,49,42,None,0,,03,01,60.01514789,PLT_learning_3,N,2014_Mrz_10_1752,P24,
stim_fb/ques.jpg,stim_fb/posf.jpg,stim_fb/negf.jpg,stim_03/e.jpg,stim_03/f.jpg,2,3,j,0,50,50,56,f,0,1.0997167089,03,01,60.01514789,PLT_learning_3,N,2014_Mrz_10_1752,P24,
stim_fb/ques.jpg,stim_fb/negf.jpg,stim_fb/posf.jpg,stim_03/f.jpg,stim_03/e.jpg,1,3,f,0,51,51,44,j,0,0.949740191427,03,01,60.01514789,PLT_learning_3,N,2014_Mrz_10_1752,P24,
stim_fb/ques.jpg,stim_fb/negf.jpg,stim_fb/posf.jpg,stim_03/c.jpg,stim_03/d.jpg,2,2,j,0,52,52,34,j,1,0.966403774408,03,01,60.01514789,PLT_learning_3,N,2014_Mrz_10_1752,P24,
stim_fb/ques.jpg,stim_fb/negf.jpg,stim_fb/posf.jpg,stim_03/e.jpg,stim_03/f.jpg,2,3,j,0,53,53,52,f,0,0.983074815978,03,01,60.01514789,PLT_learning_3,N,2014_Mrz_10_1752,P24,
stim_fb/ques.jpg,stim_fb/negf.jpg,stim_fb/posf.jpg,stim_03/a.jpg,stim_03/b.jpg,2,1,j,0,54,54,10,j,1,0.966388767001,03,01,60.01514789,PLT_learning_3,N,2014_Mrz_10_1752,P24,
stim_fb/ques.jpg,stim_fb/negf.jpg,stim_fb/posf.jpg,stim_03/b.jpg,stim_03/a.jpg,1,1,f,0,55,55,1,f,1,0.816430468944,03,01,60.01514789,PLT_learning_3,N,2014_Mrz_10_1752,P24,
stim_fb/ques.jpg,stim_fb/posf.jpg,stim_fb/negf.jpg,stim_03/d.jpg,stim_03/c.jpg,1,2,f,0,56,56,29,f,1,1.16639973835,03,01,60.01514789,PLT_learning_3,N,2014_Mrz_10_1752,P24,
stim_fb/ques.jpg,stim_fb/negf.jpg,stim_fb/posf.jpg,stim_03/f.jpg,stim_03/e.jpg,1,3,f,0,57,57,40,f,1,1.21631092699,03,01,60.01514789,PLT_learning_3,N,2014_Mrz_10_1752,P24,
stim_fb/ques.jpg,stim_fb/posf.jpg,stim_fb/negf.jpg,stim_03/c.jpg,stim_03/d.jpg,2,2,j,0,58,58,38,j,1,1.16633031932,03,01,60.01514789,PLT_learning_3,N,2014_Mrz_10_1752,P24,
stim_fb/ques.jpg,stim_fb/posf.jpg,stim_fb/negf.jpg,stim_03/f.jpg,stim_03/e.jpg,1,3,f,0,59,59,49,f,1,1.19974502748,03,01,60.01514789,PLT_learning_3,N,2014_Mrz_10_1752,P24,
stim_fb/ques.jpg,stim_fb/posf.jpg,stim_fb/negf.jpg,stim_03/e.jpg,stim_03/f.jpg,2,3,j,1,0,60,57,None,0,,03,01,60.01514789,PLT_learning_3,N,2014_Mrz_10_1752,P24,
stim_fb/ques.jpg,stim_fb/negf.jpg,stim_fb/posf.jpg,stim_03/a.jpg,stim_03/b.jpg,2,1,j,1,1,61,17,j,1,0.899753436441,03,01,60.01514789,PLT_learning_3,N,2014_Mrz_10_1752,P24,
stim_fb/ques.jpg,stim_fb/negf.jpg,stim_fb/posf.jpg,stim_03/a.jpg,stim_03/b.jpg,2,1,j,1,2,62,15,j,1,0.88310972098,03,01,60.01514789,PLT_learning_3,N,2014_Mrz_10_1752,P24,
stim_fb/ques.jpg,stim_fb/negf.jpg,stim_fb/posf.jpg,stim_03/a.jpg,stim_03/b.jpg,2,1,j,1,3,63,11,j,1,0.833103844332,03,01,60.01514789,PLT_learning_3,N,2014_Mrz_10_1752,P24,
stim_fb/ques.jpg,stim_fb/negf.jpg,stim_fb/posf.jpg,stim_03/e.jpg,stim_03/f.jpg,2,3,j,1,4,64,52,j,1,1.19965446275,03,01,60.01514789,PLT_learning_3,N,2014_Mrz_10_1752,P24,
stim_fb/ques.jpg,stim_fb/negf.jpg,stim_fb/posf.jpg,stim_03/b.jpg,stim_03/a.jpg,1,1,f,1,5,65,7,f,1,0.999705987173,03,01,60.01514789,PLT_learning_3,N,2014_Mrz_10_1752,P24,
stim_fb/ques.jpg,stim_fb/negf.jpg,stim_fb/posf.jpg,stim_03/b.jpg,stim_03/a.jpg,1,1,f,1,6,66,0,f,1,0.766466176945,03,01,60.01514789,PLT_learning_3,N,2014_Mrz_10_1752,P24,
stim_fb/ques.jpg,stim_fb/negf.jpg,stim_fb/posf.jpg,stim_03/b.jpg,stim_03/a.jpg,1,1,f,1,7,67,2,f,1,0.783133134337,03,01,60.01514789,PLT_learning_3,N,2014_Mrz_10_1752,P24,
stim_fb/ques.jpg,stim_fb/posf.jpg,stim_fb/negf.jpg,stim_03/d.jpg,stim_03/c.jpg,1,2,f,1,8,68,28,f,1,0.983043342532,03,01,60.01514789,PLT_learning_3,N,2014_Mrz_10_1752,P24,
stim_fb/ques.jpg,stim_fb/negf.jpg,stim_fb/posf.jpg,stim_03/e.jpg,stim_03/f.jpg,2,3,j,1,9,69,53,j,1,1.08308994669,03,01,60.01514789,PLT_learning_3,N,2014_Mrz_10_1752,P24,
stim_fb/ques.jpg,stim_fb/negf.jpg,stim_fb/posf.jpg,stim_03/d.jpg,stim_03/c.jpg,1,2,f,1,10,70,20,f,1,1.28294168314,03,01,60.01514789,PLT_learning_3,N,2014_Mrz_10_1752,P24,
stim_fb/ques.jpg,stim_fb/negf.jpg,stim_fb/posf.jpg,stim_03/d.jpg,stim_03/c.jpg,1,2,f,1,11,71,24,f,1,0.983038656852,03,01,60.01514789,PLT_learning_3,N,2014_Mrz_10_1752,P24,
stim_fb/ques.jpg,stim_fb/posf.jpg,stim_fb/negf.jpg,stim_03/f.jpg,stim_03/e.jpg,1,3,f,1,12,72,46,j,0,1.11634572372,03,01,60.01514789,PLT_learning_3,N,2014_Mrz_10_1752,P24,
stim_fb/ques.jpg,stim_fb/posf.jpg,stim_fb/negf.jpg,stim_03/c.jpg,stim_03/d.jpg,2,2,j,1,13,73,39,j,1,1.46621987504,03,01,60.01514789,PLT_learning_3,N,2014_Mrz_10_1752,P24,
stim_fb/ques.jpg,stim_fb/posf.jpg,stim_fb/negf.jpg,stim_03/e.jpg,stim_03/f.jpg,2,3,j,1,14,74,56,j,1,1.08302764942,03,01,60.01514789,PLT_learning_3,N,2014_Mrz_10_1752,P24,
stim_fb/ques.jpg,stim_fb/negf.jpg,stim_fb/posf.jpg,stim_03/d.jpg,stim_03/c.jpg,1,2,f,1,15,75,23,f,1,1.23289090458,03,01,60.01514789,PLT_learning_3,N,2014_Mrz_10_1752,P24,
stim_fb/ques.jpg,stim_fb/negf.jpg,stim_fb/posf.jpg,stim_03/f.jpg,stim_03/e.jpg,1,3,f,1,16,76,41,f,1,1.08301622093,03,01,60.01514789,PLT_learning_3,N,2014_Mrz_10_1752,P24,
stim_fb/ques.jpg,stim_fb/negf.jpg,stim_fb/posf.jpg,stim_03/f.jpg,stim_03/e.jpg,1,3,f,1,17,77,43,f,1,1.21631327283,03,01,60.01514789,PLT_learning_3,N,2014_Mrz_10_1752,P24,
stim_fb/ques.jpg,stim_fb/negf.jpg,stim_fb/posf.jpg,stim_03/d.jpg,stim_03/c.jpg,1,2,f,1,18,78,25,j,0,1.36625170337,03,01,60.01514789,PLT_learning_3,N,2014_Mrz_10_1752,P24,
stim_fb/ques.jpg,stim_fb/negf.jpg,stim_fb/posf.jpg,stim_03/c.jpg,stim_03/d.jpg,2,2,j,1,19,79,35,j,1,1.13302871407,03,01,60.01514789,PLT_learning_3,N,2014_Mrz_10_1752,P24,
stim_fb/ques.jpg,stim_fb/negf.jpg,stim_fb/posf.jpg,stim_03/f.jpg,stim_03/e.jpg,1,3,f,1,20,80,40,f,1,1.08299850978,03,01,60.01514789,PLT_learning_3,N,2014_Mrz_10_1752,P24,
stim_fb/ques.jpg,stim_fb/negf.jpg,stim_fb/posf.jpg,stim_03/e.jpg,stim_03/f.jpg,2,3,j,1,21,81,51,None,0,,03,01,60.01514789,PLT_learning_3,N,2014_Mrz_10_1752,P24,
stim_fb/ques.jpg,stim_fb/negf.jpg,stim_fb/posf.jpg,stim_03/b.jpg,stim_03/a.jpg,1,1,f,1,22,82,4,f,1,1.04972570432,03,01,60.01514789,PLT_learning_3,N,2014_Mrz_10_1752,P24,
stim_fb/ques.jpg,stim_fb/negf.jpg,stim_fb/posf.jpg,stim_03/c.jpg,stim_03/d.jpg,2,2,j,1,23,83,31,f,0,1.56618165277,03,01,60.01514789,PLT_learning_3,N,2014_Mrz_10_1752,P24,
stim_fb/ques.jpg,stim_fb/negf.jpg,stim_fb/posf.jpg,stim_03/d.jpg,stim_03/c.jpg,1,2,f,1,24,84,21,f,1,1.24967990316,03,01,60.01514789,PLT_learning_3,N,2014_Mrz_10_1752,P24,
stim_fb/ques.jpg,stim_fb/negf.jpg,stim_fb/posf.jpg,stim_03/c.jpg,stim_03/d.jpg,2,2,j,1,25,85,34,j,1,1.49956965436,03,01,60.01514789,PLT_learning_3,N,2014_Mrz_10_1752,P24,
stim_fb/ques.jpg,stim_fb/negf.jpg,stim_fb/posf.jpg,stim_03/c.jpg,stim_03/d.jpg,2,2,j,1,26,86,32,j,1,1.14966190029,03,01,60.01514789,PLT_learning_3,N,2014_Mrz_10_1752,P24,
stim_fb/ques.jpg,stim_fb/negf.jpg,stim_fb/posf.jpg,stim_03/c.jpg,stim_03/d.jpg,2,2,j,1,27,87,36,j,1,0.933086885061,03,01,60.01514789,PLT_learning_3,N,2014_Mrz_10_1752,P24,
stim_fb/ques.jpg,stim_fb/negf.jpg,stim_fb/posf.jpg,stim_03/b.jpg,stim_03/a.jpg,1,1,f,1,28,88,1,f,1,1.08300308419,03,01,60.01514789,PLT_learning_3,N,2014_Mrz_10_1752,P24,
stim_fb/ques.jpg,stim_fb/posf.jpg,stim_fb/negf.jpg,stim_03/f.jpg,stim_03/e.jpg,1,3,f,1,29,89,47,f,1,1.39966424012,03,01,60.01514789,PLT_learning_3,N,2014_Mrz_10_1752,P24,
stim_fb/ques.jpg,stim_fb/posf.jpg,stim_fb/negf.jpg,stim_03/f.jpg,stim_03/e.jpg,1,3,f,1,30,90,48,j,0,0.849781845251,03,01,60.01514789,PLT_learning_3,N,2014_Mrz_10_1752,P24,
stim_fb/ques.jpg,stim_fb/posf.jpg,stim_fb/negf.jpg,stim_03/b.jpg,stim_03/a.jpg,1,1,f,1,31,91,9,f,1,0.899771388185,03,01,60.01514789,PLT_learning_3,N,2014_Mrz_10_1752,P24,
stim_fb/ques.jpg,stim_fb/posf.jpg,stim_fb/negf.jpg,stim_03/b.jpg,stim_03/a.jpg,1,1,f,1,32,92,8,f,1,1.08304547485,03,01,60.01514789,PLT_learning_3,N,2014_Mrz_10_1752,P24,
stim_fb/ques.jpg,stim_fb/negf.jpg,stim_fb/posf.jpg,stim_03/e.jpg,stim_03/f.jpg,2,3,j,1,33,93,54,f,0,1.66618871136,03,01,60.01514789,PLT_learning_3,N,2014_Mrz_10_1752,P24,
stim_fb/ques.jpg,stim_fb/negf.jpg,stim_fb/posf.jpg,stim_03/a.jpg,stim_03/b.jpg,2,1,j,1,34,94,14,j,1,1.16634646356,03,01,60.01514789,PLT_learning_3,N,2014_Mrz_10_1752,P24,
stim_fb/ques.jpg,stim_fb/negf.jpg,stim_fb/posf.jpg,stim_03/d.jpg,stim_03/c.jpg,1,2,f,1,35,95,22,f,1,1.44958313396,03,01,60.01514789,PLT_learning_3,N,2014_Mrz_10_1752,P24,
stim_fb/ques.jpg,stim_fb/negf.jpg,stim_fb/posf.jpg,stim_03/a.jpg,stim_03/b.jpg,2,1,j,1,36,96,10,j,1,0.916451343975,03,01,60.01514789,PLT_learning_3,N,2014_Mrz_10_1752,P24,
stim_fb/ques.jpg,stim_fb/negf.jpg,stim_fb/posf.jpg,stim_03/e.jpg,stim_03/f.jpg,2,3,j,1,37,97,50,j,1,1.23295763491,03,01,60.01514789,PLT_learning_3,N,2014_Mrz_10_1752,P24,
stim_fb/ques.jpg,stim_fb/negf.jpg,stim_fb/posf.jpg,stim_03/c.jpg,stim_03/d.jpg,2,2,j,1,38,98,33,j,1,1.41625816347,03,01,60.01514789,PLT_learning_3,N,2014_Mrz_10_1752,P24,
stim_fb/ques.jpg,stim_fb/posf.jpg,stim_fb/negf.jpg,stim_03/c.jpg,stim_03/d.jpg,2,2,j,1,39,99,38,j,1,0.999722191564,03,01,60.01514789,PLT_learning_3,N,2014_Mrz_10_1752,P24,
stim_fb/ques.jpg,stim_fb/negf.jpg,stim_fb/posf.jpg,stim_03/b.jpg,stim_03/a.jpg,1,1,f,1,40,100,6,f,1,0.899769610754,03,01,60.01514789,PLT_learning_3,N,2014_Mrz_10_1752,P24,
stim_fb/ques.jpg,stim_fb/posf.jpg,stim_fb/negf.jpg,stim_03/f.jpg,stim_03/e.jpg,1,3,f,1,41,101,49,j,0,1.14968196931,03,01,60.01514789,PLT_learning_3,N,2014_Mrz_10_1752,P24,
stim_fb/ques.jpg,stim_fb/negf.jpg,stim_fb/posf.jpg,stim_03/d.jpg,stim_03/c.jpg,1,2,f,1,42,102,26,f,1,1.19964877557,03,01,60.01514789,PLT_learning_3,N,2014_Mrz_10_1752,P24,
stim_fb/ques.jpg,stim_fb/posf.jpg,stim_fb/negf.jpg,stim_03/e.jpg,stim_03/f.jpg,2,3,j,1,43,103,59,f,0,1.23295648604,03,01,60.01514789,PLT_learning_3,N,2014_Mrz_10_1752,P24,
stim_fb/ques.jpg,stim_fb/negf.jpg,stim_fb/posf.jpg,stim_03/b.jpg,stim_03/a.jpg,1,1,f,1,44,104,3,f,1,0.983050175562,03,01,60.01514789,PLT_learning_3,N,2014_Mrz_10_1752,P24,
stim_fb/ques.jpg,stim_fb/negf.jpg,stim_fb/posf.jpg,stim_03/f.jpg,stim_03/e.jpg,1,3,f,1,45,105,45,j,0,1.06637969639,03,01,60.01514789,PLT_learning_3,N,2014_Mrz_10_1752,P24,
stim_fb/ques.jpg,stim_fb/negf.jpg,stim_fb/posf.jpg,stim_03/b.jpg,stim_03/a.jpg,1,1,f,1,46,106,5,f,1,0.666485882062,03,01,60.01514789,PLT_learning_3,N,2014_Mrz_10_1752,P24,
stim_fb/ques.jpg,stim_fb/posf.jpg,stim_fb/negf.jpg,stim_03/d.jpg,stim_03/c.jpg,1,2,f,1,47,107,29,f,1,1.18296909948,03,01,60.01514789,PLT_learning_3,N,2014_Mrz_10_1752,P24,
stim_fb/ques.jpg,stim_fb/negf.jpg,stim_fb/posf.jpg,stim_03/a.jpg,stim_03/b.jpg,2,1,j,1,48,108,13,j,1,0.916429401283,03,01,60.01514789,PLT_learning_3,N,2014_Mrz_10_1752,P24,
stim_fb/ques.jpg,stim_fb/negf.jpg,stim_fb/posf.jpg,stim_03/e.jpg,stim_03/f.jpg,2,3,j,1,49,109,55,j,1,1.04972169232,03,01,60.01514789,PLT_learning_3,N,2014_Mrz_10_1752,P24,
stim_fb/ques.jpg,stim_fb/posf.jpg,stim_fb/negf.jpg,stim_03/e.jpg,stim_03/f.jpg,2,3,j,1,50,110,58,j,1,1.06638411741,03,01,60.01514789,PLT_learning_3,N,2014_Mrz_10_1752,P24,
stim_fb/ques.jpg,stim_fb/negf.jpg,stim_fb/posf.jpg,stim_03/f.jpg,stim_03/e.jpg,1,3,f,1,51,111,42,f,1,1.21631043376,03,01,60.01514789,PLT_learning_3,N,2014_Mrz_10_1752,P24,
stim_fb/ques.jpg,stim_fb/posf.jpg,stim_fb/negf.jpg,stim_03/a.jpg,stim_03/b.jpg,2,1,j,1,52,112,19,j,1,0.866432053896,03,01,60.01514789,PLT_learning_3,N,2014_Mrz_10_1752,P24,
stim_fb/ques.jpg,stim_fb/negf.jpg,stim_fb/posf.jpg,stim_03/a.jpg,stim_03/b.jpg,2,1,j,1,53,113,16,j,1,0.933038753094,03,01,60.01514789,PLT_learning_3,N,2014_Mrz_10_1752,P24,
stim_fb/ques.jpg,stim_fb/posf.jpg,stim_fb/negf.jpg,stim_03/a.jpg,stim_03/b.jpg,2,1,j,1,54,114,18,j,1,0.983015472064,03,01,60.01514789,PLT_learning_3,N,2014_Mrz_10_1752,P24,
stim_fb/ques.jpg,stim_fb/negf.jpg,stim_fb/posf.jpg,stim_03/a.jpg,stim_03/b.jpg,2,1,j,1,55,115,12,j,1,1.63283095014,03,01,60.01514789,PLT_learning_3,N,2014_Mrz_10_1752,P24,
stim_fb/ques.jpg,stim_fb/posf.jpg,stim_fb/negf.jpg,stim_03/c.jpg,stim_03/d.jpg,2,2,j,1,56,116,37,j,1,1.09969004444,03,01,60.01514789,PLT_learning_3,N,2014_Mrz_10_1752,P24,
stim_fb/ques.jpg,stim_fb/posf.jpg,stim_fb/negf.jpg,stim_03/d.jpg,stim_03/c.jpg,1,2,f,1,57,117,27,f,1,0.816350003382,03,01,60.01514789,PLT_learning_3,N,2014_Mrz_10_1752,P24,
stim_fb/ques.jpg,stim_fb/negf.jpg,stim_fb/posf.jpg,stim_03/f.jpg,stim_03/e.jpg,1,3,f,1,58,118,44,f,1,1.18298023925,03,01,60.01514789,PLT_learning_3,N,2014_Mrz_10_1752,P24,
stim_fb/ques.jpg,stim_fb/negf.jpg,stim_fb/posf.jpg,stim_03/c.jpg,stim_03/d.jpg,2,2,j,1,59,119,30,j,1,0.916467199495,03,01,60.01514789,PLT_learning_3,N,2014_Mrz_10_1752,P24,
stim_fb/ques.jpg,stim_fb/negf.jpg,stim_fb/posf.jpg,stim_03/d.jpg,stim_03/c.jpg,1,2,f,2,0,120,21,f,1,1.19966133488,03,01,60.01514789,PLT_learning_3,N,2014_Mrz_10_1752,P24,
stim_fb/ques.jpg,stim_fb/posf.jpg,stim_fb/negf.jpg,stim_03/d.jpg,stim_03/c.jpg,1,2,f,2,1,121,28,f,1,0.799747644001,03,01,60.01514789,PLT_learning_3,N,2014_Mrz_10_1752,P24,
stim_fb/ques.jpg,stim_fb/negf.jpg,stim_fb/posf.jpg,stim_03/d.jpg,stim_03/c.jpg,1,2,f,2,2,122,23,f,1,0.733205046579,03,01,60.01514789,PLT_learning_3,N,2014_Mrz_10_1752,P24,
stim_fb/ques.jpg,stim_fb/negf.jpg,stim_fb/posf.jpg,stim_03/f.jpg,stim_03/e.jpg,1,3,f,2,3,123,42,f,1,0.933098093999,03,01,60.01514789,PLT_learning_3,N,2014_Mrz_10_1752,P24,
stim_fb/ques.jpg,stim_fb/negf.jpg,stim_fb/posf.jpg,stim_03/d.jpg,stim_03/c.jpg,1,2,f,2,4,124,22,f,1,0.783091940662,03,01,60.01514789,PLT_learning_3,N,2014_Mrz_10_1752,P24,
stim_fb/ques.jpg,stim_fb/posf.jpg,stim_fb/negf.jpg,stim_03/c.jpg,stim_03/d.jpg,2,2,j,2,5,125,39,j,1,0.966387924902,03,01,60.01514789,PLT_learning_3,N,2014_Mrz_10_1752,P24,
stim_fb/ques.jpg,stim_fb/posf.jpg,stim_fb/negf.jpg,stim_03/e.jpg,stim_03/f.jpg,2,3,j,2,6,126,59,j,1,1.14966759648,03,01,60.01514789,PLT_learning_3,N,2014_Mrz_10_1752,P24,
stim_fb/ques.jpg,stim_fb/negf.jpg,stim_fb/posf.jpg,stim_03/a.jpg,stim_03/b.jpg,2,1,j,2,7,127,11,j,1,0.883042268855,03,01,60.01514789,PLT_learning_3,N,2014_Mrz_10_1752,P24,
stim_fb/ques.jpg,stim_fb/negf.jpg,stim_fb/posf.jpg,stim_03/b.jpg,stim_03/a.jpg,1,1,f,2,8,128,5,f,1,1.03304025083,03,01,60.01514789,PLT_learning_3,N,2014_Mrz_10_1752,P24,
stim_fb/ques.jpg,stim_fb/negf.jpg,stim_fb/posf.jpg,stim_03/f.jpg,stim_03/e.jpg,1,3,f,2,9,129,43,f,1,1.31628626853,03,01,60.01514789,PLT_learning_3,N,2014_Mrz_10_1752,P24,
stim_fb/ques.jpg,stim_fb/negf.jpg,stim_fb/posf.jpg,stim_03/b.jpg,stim_03/a.jpg,1,1,f,2,10,130,0,f,1,0.949913212682,03,01,60.01514789,PLT_learning_3,N,2014_Mrz_10_1752,P24,
stim_fb/ques.jpg,stim_fb/negf.jpg,stim_fb/posf.jpg,stim_03/f.jpg,stim_03/e.jpg,1,3,f,2,11,131,41,f,1,1.03305923414,03,01,60.01514789,PLT_learning_3,N,2014_Mrz_10_1752,P24,
stim_fb/ques.jpg,stim_fb/posf.jpg,stim_fb/negf.jpg,stim_03/c.jpg,stim_03/d.jpg,2,2,j,2,12,132,38,j,1,1.11636725739,03,01,60.01514789,PLT_learning_3,N,2014_Mrz_10_1752,P24,
stim_fb/ques.jpg,stim_fb/posf.jpg,stim_fb/negf.jpg,stim_03/e.jpg,stim_03/f.jpg,2,3,j,2,13,133,56,j,1,1.21633040955,03,01,60.01514789,PLT_learning_3,N,2014_Mrz_10_1752,P24,
stim_fb/ques.jpg,stim_fb/negf.jpg,stim_fb/posf.jpg,stim_03/c.jpg,stim_03/d.jpg,2,2,j,2,14,134,34,f,0,1.4662432493,03,01,60.01514789,PLT_learning_3,N,2014_Mrz_10_1752,P24,
stim_fb/ques.jpg,stim_fb/negf.jpg,stim_fb/posf.jpg,stim_03/d.jpg,stim_03/c.jpg,1,2,f,2,15,135,24,f,1,1.13301086157,03,01,60.01514789,PLT_learning_3,N,2014_Mrz_10_1752,P24,
stim_fb/ques.jpg,stim_fb/negf.jpg,stim_fb/posf.jpg,stim_03/a.jpg,stim_03/b.jpg,2,1,j,2,16,136,16,j,1,0.799818705122,03,01,60.01514789,PLT_learning_3,N,2014_Mrz_10_1752,P24,
stim_fb/ques.jpg,stim_fb/negf.jpg,stim_fb/posf.jpg,stim_03/c.jpg,stim_03/d.jpg,2,2,j,2,17,137,35,j,1,1.43290905482,03,01,60.01514789,PLT_learning_3,N,2014_Mrz_10_1752,P24,
stim_fb/ques.jpg,stim_fb/negf.jpg,stim_fb/posf.jpg,stim_03/b.jpg,stim_03/a.jpg,1,1,f,2,18,138,2,f,1,0.84976749047,03,01,60.01514789,PLT_learning_3,N,2014_Mrz_10_1752,P24,
stim_fb/ques.jpg,stim_fb/posf.jpg,stim_fb/negf.jpg,stim_03/b.jpg,stim_03/a.jpg,1,1,f,2,19,139,8,f,1,0.966403512755,03,01,60.01514789,PLT_learning_3,N,2014_Mrz_10_1752,P24,
stim_fb/ques.jpg,stim_fb/posf.jpg,stim_fb/negf.jpg,stim_03/e.jpg,stim_03/f.jpg,2,3,j,2,20,140,58,j,1,1.11634088466,03,01,60.01514789,PLT_learning_3,N,2014_Mrz_10_1752,P24,
stim_fb/ques.jpg,stim_fb/negf.jpg,stim_fb/posf.jpg,stim_03/f.jpg,stim_03/e.jpg,1,3,f,2,21,141,45,f,1,1.03301545703,03,01,60.01514789,PLT_learning_3,N,2014_Mrz_10_1752,P24,
stim_fb/ques.jpg,stim_fb/negf.jpg,stim_fb/posf.jpg,stim_03/f.jpg,stim_03/e.jpg,1,3,f,2,22,142,40,f,1,0.899759556694,03,01,60.01514789,PLT_learning_3,N,2014_Mrz_10_1752,P24,
stim_fb/ques.jpg,stim_fb/negf.jpg,stim_fb/posf.jpg,stim_03/c.jpg,stim_03/d.jpg,2,2,j,2,23,143,33,j,1,1.0497314336,03,01,60.01514789,PLT_learning_3,N,2014_Mrz_10_1752,P24,
stim_fb/ques.jpg,stim_fb/negf.jpg,stim_fb/posf.jpg,stim_03/b.jpg,stim_03/a.jpg,1,1,f,2,24,144,1,f,1,1.14971287133,03,01,60.01514789,PLT_learning_3,N,2014_Mrz_10_1752,P24,
stim_fb/ques.jpg,stim_fb/posf.jpg,stim_fb/negf.jpg,stim_03/f.jpg,stim_03/e.jpg,1,3,f,2,25,145,48,f,1,1.36619306622,03,01,60.01514789,PLT_learning_3,N,2014_Mrz_10_1752,P24,
stim_fb/ques.jpg,stim_fb/negf.jpg,stim_fb/posf.jpg,stim_03/e.jpg,stim_03/f.jpg,2,3,j,2,26,146,55,j,1,1.44957354306,03,01,60.01514789,PLT_learning_3,N,2014_Mrz_10_1752,P24,
stim_fb/ques.jpg,stim_fb/negf.jpg,stim_fb/posf.jpg,stim_03/b.jpg,stim_03/a.jpg,1,1,f,2,27,147,6,f,1,1.08300286163,03,01,60.01514789,PLT_learning_3,N,2014_Mrz_10_1752,P24,
stim_fb/ques.jpg,stim_fb/negf.jpg,stim_fb/posf.jpg,stim_03/b.jpg,stim_03/a.jpg,1,1,f,2,28,148,7,f,1,1.16631497808,03,01,60.01514789,PLT_learning_3,N,2014_Mrz_10_1752,P24,
stim_fb/ques.jpg,stim_fb/posf.jpg,stim_fb/negf.jpg,stim_03/f.jpg,stim_03/e.jpg,1,3,f,2,29,149,47,f,1,1.1163499703,03,01,60.01514789,PLT_learning_3,N,2014_Mrz_10_1752,P24,
stim_fb/ques.jpg,stim_fb/posf.jpg,stim_fb/negf.jpg,stim_03/f.jpg,stim_03/e.jpg,1,3,f,2,30,150,46,j,0,1.26629587447,03,01,60.01514789,PLT_learning_3,N,2014_Mrz_10_1752,P24,
stim_fb/ques.jpg,stim_fb/posf.jpg,stim_fb/negf.jpg,stim_03/d.jpg,stim_03/c.jpg,1,2,f,2,31,151,27,j,0,1.31629419929,03,01,60.01514789,PLT_learning_3,N,2014_Mrz_10_1752,P24,
stim_fb/ques.jpg,stim_fb/negf.jpg,stim_fb/posf.jpg,stim_03/e.jpg,stim_03/f.jpg,2,3,j,2,32,152,54,f,0,1.51622097879,03,01,60.01514789,PLT_learning_3,N,2014_Mrz_10_1752,P24,
stim_fb/ques.jpg,stim_fb/negf.jpg,stim_fb/posf.jpg,stim_03/a.jpg,stim_03/b.jpg,2,1,j,2,33,153,17,j,1,1.03305677702,03,01,60.01514789,PLT_learning_3,N,2014_Mrz_10_1752,P24,
stim_fb/ques.jpg,stim_fb/posf.jpg,stim_fb/negf.jpg,stim_03/d.jpg,stim_03/c.jpg,1,2,f,2,34,154,29,None,0,,03,01,60.01514789,PLT_learning_3,N,2014_Mrz_10_1752,P24,
stim_fb/ques.jpg,stim_fb/negf.jpg,stim_fb/posf.jpg,stim_03/e.jpg,stim_03/f.jpg,2,3,j,2,35,155,53,f,0,1.23297105135,03,01,60.01514789,PLT_learning_3,N,2014_Mrz_10_1752,P24,
stim_fb/ques.jpg,stim_fb/negf.jpg,stim_fb/posf.jpg,stim_03/a.jpg,stim_03/b.jpg,2,1,j,2,36,156,13,j,1,0.916398505275,03,01,60.01514789,PLT_learning_3,N,2014_Mrz_10_1752,P24,
stim_fb/ques.jpg,stim_fb/posf.jpg,stim_fb/negf.jpg,stim_03/f.jpg,stim_03/e.jpg,1,3,f,2,37,157,49,f,1,0.916425554695,03,01,60.01514789,PLT_learning_3,N,2014_Mrz_10_1752,P24,
stim_fb/ques.jpg,stim_fb/negf.jpg,stim_fb/posf.jpg,stim_03/a.jpg,stim_03/b.jpg,2,1,j,2,38,158,14,j,1,0.916425617852,03,01,60.01514789,PLT_learning_3,N,2014_Mrz_10_1752,P24,
stim_fb/ques.jpg,stim_fb/negf.jpg,stim_fb/posf.jpg,stim_03/c.jpg,stim_03/d.jpg,2,2,j,2,39,159,32,j,1,1.31631714649,03,01,60.01514789,PLT_learning_3,N,2014_Mrz_10_1752,P24,
stim_fb/ques.jpg,stim_fb/negf.jpg,stim_fb/posf.jpg,stim_03/e.jpg,stim_03/f.jpg,2,3,j,2,40,160,52,j,1,1.182979337,03,01,60.01514789,PLT_learning_3,N,2014_Mrz_10_1752,P24,
stim_fb/ques.jpg,stim_fb/negf.jpg,stim_fb/posf.jpg,stim_03/b.jpg,stim_03/a.jpg,1,1,f,2,41,161,3,f,1,0.866436222284,03,01,60.01514789,PLT_learning_3,N,2014_Mrz_10_1752,P24,
stim_fb/ques.jpg,stim_fb/negf.jpg,stim_fb/posf.jpg,stim_03/e.jpg,stim_03/f.jpg,2,3,j,2,42,162,50,j,1,1.14967690468,03,01,60.01514789,PLT_learning_3,N,2014_Mrz_10_1752,P24,
stim_fb/ques.jpg,stim_fb/negf.jpg,stim_fb/posf.jpg,stim_03/d.jpg,stim_03/c.jpg,1,2,f,2,43,163,20,f,1,1.03303725235,03,01,60.01514789,PLT_learning_3,N,2014_Mrz_10_1752,P24,
stim_fb/ques.jpg,stim_fb/posf.jpg,stim_fb/negf.jpg,stim_03/a.jpg,stim_03/b.jpg,2,1,j,2,44,164,19,j,1,0.899728377983,03,01,60.01514789,PLT_learning_3,N,2014_Mrz_10_1752,P24,
stim_fb/ques.jpg,stim_fb/negf.jpg,stim_fb/posf.jpg,stim_03/c.jpg,stim_03/d.jpg,2,2,j,2,45,165,31,j,1,1.19958556702,03,01,60.01514789,PLT_learning_3,N,2014_Mrz_10_1752,P24,
stim_fb/ques.jpg,stim_fb/negf.jpg,stim_fb/posf.jpg,stim_03/e.jpg,stim_03/f.jpg,2,3,j,2,46,166,51,j,1,1.14968808655,03,01,60.01514789,PLT_learning_3,N,2014_Mrz_10_1752,P24,
stim_fb/ques.jpg,stim_fb/posf.jpg,stim_fb/negf.jpg,stim_03/a.jpg,stim_03/b.jpg,2,1,j,2,47,167,18,j,1,1.2496556477,03,01,60.01514789,PLT_learning_3,N,2014_Mrz_10_1752,P24,
stim_fb/ques.jpg,stim_fb/negf.jpg,stim_fb/posf.jpg,stim_03/f.jpg,stim_03/e.jpg,1,3,f,2,48,168,44,f,1,1.06637169345,03,01,60.01514789,PLT_learning_3,N,2014_Mrz_10_1752,P24,
stim_fb/ques.jpg,stim_fb/posf.jpg,stim_fb/negf.jpg,stim_03/b.jpg,stim_03/a.jpg,1,1,f,2,49,169,9,f,1,1.19966433636,03,01,60.01514789,PLT_learning_3,N,2014_Mrz_10_1752,P24,
stim_fb/ques.jpg,stim_fb/negf.jpg,stim_fb/posf.jpg,stim_03/c.jpg,stim_03/d.jpg,2,2,j,2,50,170,36,j,1,1.39961218036,03,01,60.01514789,PLT_learning_3,N,2014_Mrz_10_1752,P24,
stim_fb/ques.jpg,stim_fb/posf.jpg,stim_fb/negf.jpg,stim_03/c.jpg,stim_03/d.jpg,2,2,j,2,51,171,37,j,1,1.06636098075,03,01,60.01514789,PLT_learning_3,N,2014_Mrz_10_1752,P24,
stim_fb/ques.jpg,stim_fb/negf.jpg,stim_fb/posf.jpg,stim_03/a.jpg,stim_03/b.jpg,2,1,j,2,52,172,10,j,1,0.966429873461,03,01,60.01514789,PLT_learning_3,N,2014_Mrz_10_1752,P24,
stim_fb/ques.jpg,stim_fb/negf.jpg,stim_fb/posf.jpg,stim_03/b.jpg,stim_03/a.jpg,1,1,f,2,53,173,4,f,1,0.983053757491,03,01,60.01514789,PLT_learning_3,N,2014_Mrz_10_1752,P24,
stim_fb/ques.jpg,stim_fb/negf.jpg,stim_fb/posf.jpg,stim_03/c.jpg,stim_03/d.jpg,2,2,j,2,54,174,30,j,1,1.08303043436,03,01,60.01514789,PLT_learning_3,N,2014_Mrz_10_1752,P24,
stim_fb/ques.jpg,stim_fb/posf.jpg,stim_fb/negf.jpg,stim_03/e.jpg,stim_03/f.jpg,2,3,j,2,55,175,57,j,1,1.08300709619,03,01,60.01514789,PLT_learning_3,N,2014_Mrz_10_1752,P24,
stim_fb/ques.jpg,stim_fb/negf.jpg,stim_fb/posf.jpg,stim_03/d.jpg,stim_03/c.jpg,1,2,f,2,56,176,25,f,1,0.983060461198,03,01,60.01514789,PLT_learning_3,N,2014_Mrz_10_1752,P24,
stim_fb/ques.jpg,stim_fb/negf.jpg,stim_fb/posf.jpg,stim_03/d.jpg,stim_03/c.jpg,1,2,f,2,57,177,26,f,1,0.749773625763,03,01,60.01514789,PLT_learning_3,N,2014_Mrz_10_1752,P24,
stim_fb/ques.jpg,stim_fb/negf.jpg,stim_fb/posf.jpg,stim_03/a.jpg,stim_03/b.jpg,2,1,j,2,58,178,12,j,1,0.93301735175,03,01,60.01514789,PLT_learning_3,N,2014_Mrz_10_1752,P24,
stim_fb/ques.jpg,stim_fb/negf.jpg,stim_fb/posf.jpg,stim_03/a.jpg,stim_03/b.jpg,2,1,j,2,59,179,15,j,1,0.849784251246,03,01,60.01514789,PLT_learning_3,N,2014_Mrz_10_1752,P24,
stim_fb/ques.jpg,stim_fb/posf.jpg,stim_fb/negf.jpg,stim_03/d.jpg,stim_03/c.jpg,1,2,f,3,0,180,27,f,1,0.899706534537,03,01,60.01514789,PLT_learning_3,N,2014_Mrz_10_1752,P24,
stim_fb/ques.jpg,stim_fb/posf.jpg,stim_fb/negf.jpg,stim_03/f.jpg,stim_03/e.jpg,1,3,f,3,1,181,46,f,1,0.999675112218,03,01,60.01514789,PLT_learning_3,N,2014_Mrz_10_1752,P24,
stim_fb/ques.jpg,stim_fb/posf.jpg,stim_fb/negf.jpg,stim_03/f.jpg,stim_03/e.jpg,1,3,f,3,2,182,47,f,1,0.999726883258,03,01,60.01514789,PLT_learning_3,N,2014_Mrz_10_1752,P24,
stim_fb/ques.jpg,stim_fb/negf.jpg,stim_fb/posf.jpg,stim_03/d.jpg,stim_03/c.jpg,1,2,f,3,3,183,24,f,1,0.833091793294,03,01,60.01514789,PLT_learning_3,N,2014_Mrz_10_1752,P24,
stim_fb/ques.jpg,stim_fb/negf.jpg,stim_fb/posf.jpg,stim_03/d.jpg,stim_03/c.jpg,1,2,f,3,4,184,21,f,1,0.649812503667,03,01,60.01514789,PLT_learning_3,N,2014_Mrz_10_1752,P24,
stim_fb/ques.jpg,stim_fb/negf.jpg,stim_fb/posf.jpg,stim_03/a.jpg,stim_03/b.jpg,2,1,j,3,5,185,12,j,1,0.866396339878,03,01,60.01514789,PLT_learning_3,N,2014_Mrz_10_1752,P24,
stim_fb/ques.jpg,stim_fb/posf.jpg,stim_fb/negf.jpg,stim_03/b.jpg,stim_03/a.jpg,1,1,f,3,6,186,9,f,1,0.683146836491,03,01,60.01514789,PLT_learning_3,N,2014_Mrz_10_1752,P24,
stim_fb/ques.jpg,stim_fb/posf.jpg,stim_fb/negf.jpg,stim_03/c.jpg,stim_03/d.jpg,2,2,j,3,7,187,38,j,1,1.04970689243,03,01,60.01514789,PLT_learning_3,N,2014_Mrz_10_1752,P24,
stim_fb/ques.jpg,stim_fb/negf.jpg,stim_fb/posf.jpg,stim_03/b.jpg,stim_03/a.jpg,1,1,f,3,8,188,6,f,1,0.866397942873,03,01,60.01514789,PLT_learning_3,N,2014_Mrz_10_1752,P24,
stim_fb/ques.jpg,stim_fb/negf.jpg,stim_fb/posf.jpg,stim_03/f.jpg,stim_03/e.jpg,1,3,f,3,9,189,44,f,1,1.1330355862,03,01,60.01514789,PLT_learning_3,N,2014_Mrz_10_1752,P24,
stim_fb/ques.jpg,stim_fb/posf.jpg,stim_fb/negf.jpg,stim_03/f.jpg,stim_03/e.jpg,1,3,f,3,10,190,49,f,1,1.29961862242,03,01,60.01514789,PLT_learning_3,N,2014_Mrz_10_1752,P24,
stim_fb/ques.jpg,stim_fb/negf.jpg,stim_fb/posf.jpg,stim_03/f.jpg,stim_03/e.jpg,1,3,f,3,11,191,40,f,1,1.39955602138,03,01,60.01514789,PLT_learning_3,N,2014_Mrz_10_1752,P24,
stim_fb/ques.jpg,stim_fb/negf.jpg,stim_fb/posf.jpg,stim_03/f.jpg,stim_03/e.jpg,1,3,f,3,12,192,45,f,1,1.63282345847,03,01,60.01514789,PLT_learning_3,N,2014_Mrz_10_1752,P24,
stim_fb/ques.jpg,stim_fb/negf.jpg,stim_fb/posf.jpg,stim_03/c.jpg,stim_03/d.jpg,2,2,j,3,13,193,31,j,1,1.36626442508,03,01,60.01514789,PLT_learning_3,N,2014_Mrz_10_1752,P24,
stim_fb/ques.jpg,stim_fb/negf.jpg,stim_fb/posf.jpg,stim_03/e.jpg,stim_03/f.jpg,2,3,j,3,14,194,50,j,1,1.16636015368,03,01,60.01514789,PLT_learning_3,N,2014_Mrz_10_1752,P24,
stim_fb/ques.jpg,stim_fb/negf.jpg,stim_fb/posf.jpg,stim_03/b.jpg,stim_03/a.jpg,1,1,f,3,15,195,7,f,1,0.883051465778,03,01,60.01514789,PLT_learning_3,N,2014_Mrz_10_1752,P24,
stim_fb/ques.jpg,stim_fb/negf.jpg,stim_fb/posf.jpg,stim_03/c.jpg,stim_03/d.jpg,2,2,j,3,16,196,35,j,1,0.999716928443,03,01,60.01514789,PLT_learning_3,N,2014_Mrz_10_1752,P24,
stim_fb/ques.jpg,stim_fb/posf.jpg,stim_fb/negf.jpg,stim_03/e.jpg,stim_03/f.jpg,2,3,j,3,17,197,56,j,1,0.833117242728,03,01,60.01514789,PLT_learning_3,N,2014_Mrz_10_1752,P24,
stim_fb/ques.jpg,stim_fb/negf.jpg,stim_fb/posf.jpg,stim_03/a.jpg,stim_03/b.jpg,2,1,j,3,18,198,16,j,1,0.983058524373,03,01,60.01514789,PLT_learning_3,N,2014_Mrz_10_1752,P24,
stim_fb/ques.jpg,stim_fb/negf.jpg,stim_fb/posf.jpg,stim_03/b.jpg,stim_03/a.jpg,1,1,f,3,19,199,2,f,1,0.699783908392,03,01,60.01514789,PLT_learning_3,N,2014_Mrz_10_1752,P24,
stim_fb/ques.jpg,stim_fb/posf.jpg,stim_fb/negf.jpg,stim_03/b.jpg,stim_03/a.jpg,1,1,f,3,20,200,8,f,1,0.666464258164,03,01,60.01514789,PLT_learning_3,N,2014_Mrz_10_1752,P24,
stim_fb/ques.jpg,stim_fb/negf.jpg,stim_fb/posf.jpg,stim_03/e.jpg,stim_03/f.jpg,2,3,j,3,21,201,52,j,1,1.11632690281,03,01,60.01514789,PLT_learning_3,N,2014_Mrz_10_1752,P24,
stim_fb/ques.jpg,stim_fb/negf.jpg,stim_fb/posf.jpg,stim_03/a.jpg,stim_03/b.jpg,2,1,j,3,22,202,13,j,1,1.11635098383,03,01,60.01514789,PLT_learning_3,N,2014_Mrz_10_1752,P24,
stim_fb/ques.jpg,stim_fb/posf.jpg,stim_fb/negf.jpg,stim_03/c.jpg,stim_03/d.jpg,2,2,j,3,23,203,39,j,1,0.883095871459,03,01,60.01514789,PLT_learning_3,N,2014_Mrz_10_1752,P24,
stim_fb/ques.jpg,stim_fb/negf.jpg,stim_fb/posf.jpg,stim_03/e.jpg,stim_03/f.jpg,2,3,j,3,24,204,54,j,1,1.24960476387,03,01,60.01514789,PLT_learning_3,N,2014_Mrz_10_1752,P24,
stim_fb/ques.jpg,stim_fb/negf.jpg,stim_fb/posf.jpg,stim_03/f.jpg,stim_03/e.jpg,1,3,f,3,25,205,42,f,1,1.38292055248,03,01,60.01514789,PLT_learning_3,N,2014_Mrz_10_1752,P24,
stim_fb/ques.jpg,stim_fb/negf.jpg,stim_fb/posf.jpg,stim_03/e.jpg,stim_03/f.jpg,2,3,j,3,26,206,53,j,1,1.06636680025,03,01,60.01514789,PLT_learning_3,N,2014_Mrz_10_1752,P24,
stim_fb/ques.jpg,stim_fb/negf.jpg,stim_fb/posf.jpg,stim_03/d.jpg,stim_03/c.jpg,1,2,f,3,27,207,20,f,1,0.849761613821,03,01,60.01514789,PLT_learning_3,N,2014_Mrz_10_1752,P24,
stim_fb/ques.jpg,stim_fb/negf.jpg,stim_fb/posf.jpg,stim_03/e.jpg,stim_03/f.jpg,2,3,j,3,28,208,55,j,1,1.28297453703,03,01,60.01514789,PLT_learning_3,N,2014_Mrz_10_1752,P24,
stim_fb/ques.jpg,stim_fb/posf.jpg,stim_fb/negf.jpg,stim_03/d.jpg,stim_03/c.jpg,1,2,f,3,29,209,28,f,1,1.01638832189,03,01,60.01514789,PLT_learning_3,N,2014_Mrz_10_1752,P24,
stim_fb/ques.jpg,stim_fb/posf.jpg,stim_fb/negf.jpg,stim_03/a.jpg,stim_03/b.jpg,2,1,j,3,30,210,18,j,1,0.899637082428,03,01,60.01514789,PLT_learning_3,N,2014_Mrz_10_1752,P24,
stim_fb/ques.jpg,stim_fb/negf.jpg,stim_fb/posf.jpg,stim_03/b.jpg,stim_03/a.jpg,1,1,f,3,31,211,0,f,1,0.666490444431,03,01,60.01514789,PLT_learning_3,N,2014_Mrz_10_1752,P24,
stim_fb/ques.jpg,stim_fb/negf.jpg,stim_fb/posf.jpg,stim_03/c.jpg,stim_03/d.jpg,2,2,j,3,32,212,30,j,1,0.983043625236,03,01,60.01514789,PLT_learning_3,N,2014_Mrz_10_1752,P24,
stim_fb/ques.jpg,stim_fb/negf.jpg,stim_fb/posf.jpg,stim_03/a.jpg,stim_03/b.jpg,2,1,j,3,33,213,14,j,1,0.883102265398,03,01,60.01514789,PLT_learning_3,N,2014_Mrz_10_1752,P24,
stim_fb/ques.jpg,stim_fb/negf.jpg,stim_fb/posf.jpg,stim_03/c.jpg,stim_03/d.jpg,2,2,j,3,34,214,34,j,1,1.09969459778,03,01,60.01514789,PLT_learning_3,N,2014_Mrz_10_1752,P24,
stim_fb/ques.jpg,stim_fb/negf.jpg,stim_fb/posf.jpg,stim_03/b.jpg,stim_03/a.jpg,1,1,f,3,35,215,5,f,1,0.966373122006,03,01,60.01514789,PLT_learning_3,N,2014_Mrz_10_1752,P24,
stim_fb/ques.jpg,stim_fb/posf.jpg,stim_fb/negf.jpg,stim_03/c.jpg,stim_03/d.jpg,2,2,j,3,36,216,37,j,1,0.949750383832,03,01,60.01514789,PLT_learning_3,N,2014_Mrz_10_1752,P24,
stim_fb/ques.jpg,stim_fb/negf.jpg,stim_fb/posf.jpg,stim_03/a.jpg,stim_03/b.jpg,2,1,j,3,37,217,15,j,1,0.882990389546,03,01,60.01514789,PLT_learning_3,N,2014_Mrz_10_1752,P24,
stim_fb/ques.jpg,stim_fb/negf.jpg,stim_fb/posf.jpg,stim_03/b.jpg,stim_03/a.jpg,1,1,f,3,38,218,4,f,1,0.783065336353,03,01,60.01514789,PLT_learning_3,N,2014_Mrz_10_1752,P24,
stim_fb/ques.jpg,stim_fb/posf.jpg,stim_fb/negf.jpg,stim_03/f.jpg,stim_03/e.jpg,1,3,f,3,39,219,48,f,1,1.43289715716,03,01,60.01514789,PLT_learning_3,N,2014_Mrz_10_1752,P24,
stim_fb/ques.jpg,stim_fb/negf.jpg,stim_fb/posf.jpg,stim_03/c.jpg,stim_03/d.jpg,2,2,j,3,40,220,33,j,1,0.916401097735,03,01,60.01514789,PLT_learning_3,N,2014_Mrz_10_1752,P24,
stim_fb/ques.jpg,stim_fb/negf.jpg,stim_fb/posf.jpg,stim_03/b.jpg,stim_03/a.jpg,1,1,f,3,41,221,1,f,1,0.699866614537,03,01,60.01514789,PLT_learning_3,N,2014_Mrz_10_1752,P24,
stim_fb/ques.jpg,stim_fb/negf.jpg,stim_fb/posf.jpg,stim_03/d.jpg,stim_03/c.jpg,1,2,f,3,42,222,26,f,1,1.14967774979,03,01,60.01514789,PLT_learning_3,N,2014_Mrz_10_1752,P24,
stim_fb/ques.jpg,stim_fb/negf.jpg,stim_fb/posf.jpg,stim_03/d.jpg,stim_03/c.jpg,1,2,f,3,43,223,22,f,1,1.11640884505,03,01,60.01514789,PLT_learning_3,N,2014_Mrz_10_1752,P24,
stim_fb/ques.jpg,stim_fb/negf.jpg,stim_fb/posf.jpg,stim_03/d.jpg,stim_03/c.jpg,1,2,f,3,44,224,23,f,1,1.08301407959,03,01,60.01514789,PLT_learning_3,N,2014_Mrz_10_1752,P24,
stim_fb/ques.jpg,stim_fb/posf.jpg,stim_fb/negf.jpg,stim_03/a.jpg,stim_03/b.jpg,2,1,j,3,45,225,19,j,1,1.33295535522,03,01,60.01514789,PLT_learning_3,N,2014_Mrz_10_1752,P24,
stim_fb/ques.jpg,stim_fb/negf.jpg,stim_fb/posf.jpg,stim_03/e.jpg,stim_03/f.jpg,2,3,j,3,46,226,51,j,1,1.61616286193,03,01,60.01514789,PLT_learning_3,N,2014_Mrz_10_1752,P24,
stim_fb/ques.jpg,stim_fb/posf.jpg,stim_fb/negf.jpg,stim_03/d.jpg,stim_03/c.jpg,1,2,f,3,47,227,29,f,1,0.93310317366,03,01,60.01514789,PLT_learning_3,N,2014_Mrz_10_1752,P24,
stim_fb/ques.jpg,stim_fb/negf.jpg,stim_fb/posf.jpg,stim_03/a.jpg,stim_03/b.jpg,2,1,j,3,48,228,10,j,1,0.799802849602,03,01,60.01514789,PLT_learning_3,N,2014_Mrz_10_1752,P24,
stim_fb/ques.jpg,stim_fb/negf.jpg,stim_fb/posf.jpg,stim_03/c.jpg,stim_03/d.jpg,2,2,j,3,49,229,36,j,1,1.16632282464,03,01,60.01514789,PLT_learning_3,N,2014_Mrz_10_1752,P24,
stim_fb/ques.jpg,stim_fb/negf.jpg,stim_fb/posf.jpg,stim_03/a.jpg,stim_03/b.jpg,2,1,j,3,50,230,11,j,1,0.716494104554,03,01,60.01514789,PLT_learning_3,N,2014_Mrz_10_1752,P24,
stim_fb/ques.jpg,stim_fb/negf.jpg,stim_fb/posf.jpg,stim_03/f.jpg,stim_03/e.jpg,1,3,f,3,51,231,41,f,1,0.932956474013,03,01,60.01514789,PLT_learning_3,N,2014_Mrz_10_1752,P24,
stim_fb/ques.jpg,stim_fb/posf.jpg,stim_fb/negf.jpg,stim_03/e.jpg,stim_03/f.jpg,2,3,j,3,52,232,59,j,1,0.966403798468,03,01,60.01514789,PLT_learning_3,N,2014_Mrz_10_1752,P24,
stim_fb/ques.jpg,stim_fb/posf.jpg,stim_fb/negf.jpg,stim_03/e.jpg,stim_03/f.jpg,2,3,j,3,53,233,57,j,1,1.49959758498,03,01,60.01514789,PLT_learning_3,N,2014_Mrz_10_1752,P24,
stim_fb/ques.jpg,stim_fb/negf.jpg,stim_fb/posf.jpg,stim_03/d.jpg,stim_03/c.jpg,1,2,f,3,54,234,25,f,1,0.916432282464,03,01,60.01514789,PLT_learning_3,N,2014_Mrz_10_1752,P24,
stim_fb/ques.jpg,stim_fb/negf.jpg,stim_fb/posf.jpg,stim_03/a.jpg,stim_03/b.jpg,2,1,j,3,55,235,17,j,1,0.866431250894,03,01,60.01514789,PLT_learning_3,N,2014_Mrz_10_1752,P24,
stim_fb/ques.jpg,stim_fb/negf.jpg,stim_fb/posf.jpg,stim_03/c.jpg,stim_03/d.jpg,2,2,j,3,56,236,32,j,1,1.13302219983,03,01,60.01514789,PLT_learning_3,N,2014_Mrz_10_1752,P24,
stim_fb/ques.jpg,stim_fb/negf.jpg,stim_fb/posf.jpg,stim_03/f.jpg,stim_03/e.jpg,1,3,f,3,57,237,43,f,1,0.96645085676,03,01,60.01514789,PLT_learning_3,N,2014_Mrz_10_1752,P24,
stim_fb/ques.jpg,stim_fb/posf.jpg,stim_fb/negf.jpg,stim_03/e.jpg,stim_03/f.jpg,2,3,j,3,58,238,58,j,1,0.983092662462,03,01,60.01514789,PLT_learning_3,N,2014_Mrz_10_1752,P24,
stim_fb/ques.jpg,stim_fb/negf.jpg,stim_fb/posf.jpg,stim_03/b.jpg,stim_03/a.jpg,1,1,f,3,59,239,3,f,1,1.54950493906,03,01,60.01514789,PLT_learning_3,N,2014_Mrz_10_1752,P24,
stim_fb/ques.jpg,stim_fb/negf.jpg,stim_fb/posf.jpg,stim_03/a.jpg,stim_03/b.jpg,2,1,j,4,0,240,12,j,1,0.783119098352,03,01,60.01514789,PLT_learning_3,N,2014_Mrz_10_1752,P24,
stim_fb/ques.jpg,stim_fb/negf.jpg,stim_fb/posf.jpg,stim_03/b.jpg,stim_03/a.jpg,1,1,f,4,1,241,7,f,1,0.683172129533,03,01,60.01514789,PLT_learning_3,N,2014_Mrz_10_1752,P24,
stim_fb/ques.jpg,stim_fb/negf.jpg,stim_fb/posf.jpg,stim_03/a.jpg,stim_03/b.jpg,2,1,j,4,2,242,10,j,1,0.583222345696,03,01,60.01514789,PLT_learning_3,N,2014_Mrz_10_1752,P24,
stim_fb/ques.jpg,stim_fb/negf.jpg,stim_fb/posf.jpg,stim_03/a.jpg,stim_03/b.jpg,2,1,j,4,3,243,14,j,1,0.633201906752,03,01,60.01514789,PLT_learning_3,N,2014_Mrz_10_1752,P24,
stim_fb/ques.jpg,stim_fb/posf.jpg,stim_fb/negf.jpg,stim_03/e.jpg,stim_03/f.jpg,2,3,j,4,4,244,59,j,1,0.916336574914,03,01,60.01514789,PLT_learning_3,N,2014_Mrz_10_1752,P24,
stim_fb/ques.jpg,stim_fb/posf.jpg,stim_fb/negf.jpg,stim_03/e.jpg,stim_03/f.jpg,2,3,j,4,5,245,58,j,1,0.883085038458,03,01,60.01514789,PLT_learning_3,N,2014_Mrz_10_1752,P24,
stim_fb/ques.jpg,stim_fb/negf.jpg,stim_fb/posf.jpg,stim_03/f.jpg,stim_03/e.jpg,1,3,f,4,6,246,40,j,0,0.79980105112,03,01,60.01514789,PLT_learning_3,N,2014_Mrz_10_1752,P24,
stim_fb/ques.jpg,stim_fb/negf.jpg,stim_fb/posf.jpg,stim_03/b.jpg,stim_03/a.jpg,1,1,f,4,7,247,4,f,1,0.899748994369,03,01,60.01514789,PLT_learning_3,N,2014_Mrz_10_1752,P24,
stim_fb/ques.jpg,stim_fb/negf.jpg,stim_fb/posf.jpg,stim_03/c.jpg,stim_03/d.jpg,2,2,j,4,8,248,33,j,1,0.933065504771,03,01,60.01514789,PLT_learning_3,N,2014_Mrz_10_1752,P24,
stim_fb/ques.jpg,stim_fb/negf.jpg,stim_fb/posf.jpg,stim_03/b.jpg,stim_03/a.jpg,1,1,f,4,9,249,0,f,1,0.699811914197,03,01,60.01514789,PLT_learning_3,N,2014_Mrz_10_1752,P24,
stim_fb/ques.jpg,stim_fb/negf.jpg,stim_fb/posf.jpg,stim_03/d.jpg,stim_03/c.jpg,1,2,f,4,10,250,22,f,1,0.699845959052,03,01,60.01514789,PLT_learning_3,N,2014_Mrz_10_1752,P24,
stim_fb/ques.jpg,stim_fb/negf.jpg,stim_fb/posf.jpg,stim_03/a.jpg,stim_03/b.jpg,2,1,j,4,11,251,15,j,1,0.73310907136,03,01,60.01514789,PLT_learning_3,N,2014_Mrz_10_1752,P24,
stim_fb/ques.jpg,stim_fb/negf.jpg,stim_fb/posf.jpg,stim_03/d.jpg,stim_03/c.jpg,1,2,f,4,12,252,25,f,1,0.733133239601,03,01,60.01514789,PLT_learning_3,N,2014_Mrz_10_1752,P24,
stim_fb/ques.jpg,stim_fb/negf.jpg,stim_fb/posf.jpg,stim_03/c.jpg,stim_03/d.jpg,2,2,j,4,13,253,31,j,1,1.01639418651,03,01,60.01514789,PLT_learning_3,N,2014_Mrz_10_1752,P24,
stim_fb/ques.jpg,stim_fb/negf.jpg,stim_fb/posf.jpg,stim_03/b.jpg,stim_03/a.jpg,1,1,f,4,14,254,5,f,1,0.666451304878,03,01,60.01514789,PLT_learning_3,N,2014_Mrz_10_1752,P24,
stim_fb/ques.jpg,stim_fb/negf.jpg,stim_fb/posf.jpg,stim_03/c.jpg,stim_03/d.jpg,2,2,j,4,15,255,32,j,1,0.71649803836,03,01,60.01514789,PLT_learning_3,N,2014_Mrz_10_1752,P24,
stim_fb/ques.jpg,stim_fb/negf.jpg,stim_fb/posf.jpg,stim_03/b.jpg,stim_03/a.jpg,1,1,f,4,16,256,1,f,1,0.73311910136,03,01,60.01514789,PLT_learning_3,N,2014_Mrz_10_1752,P24,
stim_fb/ques.jpg,stim_fb/negf.jpg,stim_fb/posf.jpg,stim_03/b.jpg,stim_03/a.jpg,1,1,f,4,17,257,3,f,1,0.766464655153,03,01,60.01514789,PLT_learning_3,N,2014_Mrz_10_1752,P24,
stim_fb/ques.jpg,stim_fb/negf.jpg,stim_fb/posf.jpg,stim_03/f.jpg,stim_03/e.jpg,1,3,f,4,18,258,41,f,1,0.916402099232,03,01,60.01514789,PLT_learning_3,N,2014_Mrz_10_1752,P24,
stim_fb/ques.jpg,stim_fb/negf.jpg,stim_fb/posf.jpg,stim_03/d.jpg,stim_03/c.jpg,1,2,f,4,19,259,24,f,1,0.949706925512,03,01,60.01514789,PLT_learning_3,N,2014_Mrz_10_1752,P24,
stim_fb/ques.jpg,stim_fb/posf.jpg,stim_fb/negf.jpg,stim_03/c.jpg,stim_03/d.jpg,2,2,j,4,20,260,38,j,1,0.916387118894,03,01,60.01514789,PLT_learning_3,N,2014_Mrz_10_1752,P24,
stim_fb/ques.jpg,stim_fb/negf.jpg,stim_fb/posf.jpg,stim_03/c.jpg,stim_03/d.jpg,2,2,j,4,21,261,30,None,0,,03,01,60.01514789,PLT_learning_3,N,2014_Mrz_10_1752,P24,
stim_fb/ques.jpg,stim_fb/negf.jpg,stim_fb/posf.jpg,stim_03/c.jpg,stim_03/d.jpg,2,2,j,4,22,262,34,j,1,0.699820623906,03,01,60.01514789,PLT_learning_3,N,2014_Mrz_10_1752,P24,
stim_fb/ques.jpg,stim_fb/negf.jpg,stim_fb/posf.jpg,stim_03/d.jpg,stim_03/c.jpg,1,2,f,4,23,263,21,f,1,0.633158875497,03,01,60.01514789,PLT_learning_3,N,2014_Mrz_10_1752,P24,
stim_fb/ques.jpg,stim_fb/negf.jpg,stim_fb/posf.jpg,stim_03/a.jpg,stim_03/b.jpg,2,1,j,4,24,264,13,j,1,0.999730931346,03,01,60.01514789,PLT_learning_3,N,2014_Mrz_10_1752,P24,
stim_fb/ques.jpg,stim_fb/posf.jpg,stim_fb/negf.jpg,stim_03/e.jpg,stim_03/f.jpg,2,3,j,4,25,265,56,j,1,0.866429100532,03,01,60.01514789,PLT_learning_3,N,2014_Mrz_10_1752,P24,
stim_fb/ques.jpg,stim_fb/posf.jpg,stim_fb/negf.jpg,stim_03/d.jpg,stim_03/c.jpg,1,2,f,4,26,266,28,f,1,0.733132295245,03,01,60.01514789,PLT_learning_3,N,2014_Mrz_10_1752,P24,
stim_fb/ques.jpg,stim_fb/negf.jpg,stim_fb/posf.jpg,stim_03/e.jpg,stim_03/f.jpg,2,3,j,4,27,267,53,j,1,0.966396655665,03,01,60.01514789,PLT_learning_3,N,2014_Mrz_10_1752,P24,
stim_fb/ques.jpg,stim_fb/negf.jpg,stim_fb/posf.jpg,stim_03/d.jpg,stim_03/c.jpg,1,2,f,4,28,268,26,f,1,0.766468643093,03,01,60.01514789,PLT_learning_3,N,2014_Mrz_10_1752,P24,
stim_fb/ques.jpg,stim_fb/posf.jpg,stim_fb/negf.jpg,stim_03/c.jpg,stim_03/d.jpg,2,2,j,4,29,269,37,j,1,1.04970720521,03,01,60.01514789,PLT_learning_3,N,2014_Mrz_10_1752,P24,
stim_fb/ques.jpg,stim_fb/negf.jpg,stim_fb/posf.jpg,stim_03/e.jpg,stim_03/f.jpg,2,3,j,4,30,270,55,j,1,1.34962931106,03,01,60.01514789,PLT_learning_3,N,2014_Mrz_10_1752,P24,
stim_fb/ques.jpg,stim_fb/posf.jpg,stim_fb/negf.jpg,stim_03/e.jpg,stim_03/f.jpg,2,3,j,4,31,271,57,j,1,0.933117952498,03,01,60.01514789,PLT_learning_3,N,2014_Mrz_10_1752,P24,
stim_fb/ques.jpg,stim_fb/posf.jpg,stim_fb/negf.jpg,stim_03/f.jpg,stim_03/e.jpg,1,3,f,4,32,272,46,f,1,0.899758347681,03,01,60.01514789,PLT_learning_3,N,2014_Mrz_10_1752,P24,
stim_fb/ques.jpg,stim_fb/negf.jpg,stim_fb/posf.jpg,stim_03/c.jpg,stim_03/d.jpg,2,2,j,4,33,273,35,j,1,0.916389148955,03,01,60.01514789,PLT_learning_3,N,2014_Mrz_10_1752,P24,
stim_fb/ques.jpg,stim_fb/posf.jpg,stim_fb/negf.jpg,stim_03/a.jpg,stim_03/b.jpg,2,1,j,4,34,274,18,j,1,0.799780825708,03,01,60.01514789,PLT_learning_3,N,2014_Mrz_10_1752,P24,
stim_fb/ques.jpg,stim_fb/negf.jpg,stim_fb/posf.jpg,stim_03/f.jpg,stim_03/e.jpg,1,3,f,4,35,275,44,f,1,1.01642096526,03,01,60.01514789,PLT_learning_3,N,2014_Mrz_10_1752,P24,
stim_fb/ques.jpg,stim_fb/negf.jpg,stim_fb/posf.jpg,stim_03/a.jpg,stim_03/b.jpg,2,1,j,4,36,276,16,j,1,0.816431726076,03,01,60.01514789,PLT_learning_3,N,2014_Mrz_10_1752,P24,
stim_fb/ques.jpg,stim_fb/negf.jpg,stim_fb/posf.jpg,stim_03/e.jpg,stim_03/f.jpg,2,3,j,4,37,277,52,f,0,1.34960831573,03,01,60.01514789,PLT_learning_3,N,2014_Mrz_10_1752,P24,
stim_fb/ques.jpg,stim_fb/posf.jpg,stim_fb/negf.jpg,stim_03/f.jpg,stim_03/e.jpg,1,3,f,4,38,278,47,f,1,0.883095892512,03,01,60.01514789,PLT_learning_3,N,2014_Mrz_10_1752,P24,
stim_fb/ques.jpg,stim_fb/negf.jpg,stim_fb/posf.jpg,stim_03/d.jpg,stim_03/c.jpg,1,2,f,4,39,279,20,f,1,0.949727018593,03,01,60.01514789,PLT_learning_3,N,2014_Mrz_10_1752,P24,
stim_fb/ques.jpg,stim_fb/negf.jpg,stim_fb/posf.jpg,stim_03/e.jpg,stim_03/f.jpg,2,3,j,4,40,280,54,j,1,0.733141702694,03,01,60.01514789,PLT_learning_3,N,2014_Mrz_10_1752,P24,
stim_fb/ques.jpg,stim_fb/negf.jpg,stim_fb/posf.jpg,stim_03/e.jpg,stim_03/f.jpg,2,3,j,4,41,281,50,j,1,0.933025616348,03,01,60.01514789,PLT_learning_3,N,2014_Mrz_10_1752,P24,
stim_fb/ques.jpg,stim_fb/negf.jpg,stim_fb/posf.jpg,stim_03/a.jpg,stim_03/b.jpg,2,1,j,4,42,282,17,j,1,0.816440450822,03,01,60.01514789,PLT_learning_3,N,2014_Mrz_10_1752,P24,
stim_fb/ques.jpg,stim_fb/posf.jpg,stim_fb/negf.jpg,stim_03/c.jpg,stim_03/d.jpg,2,2,j,4,43,283,39,j,1,1.04973440501,03,01,60.01514789,PLT_learning_3,N,2014_Mrz_10_1752,P24,
stim_fb/ques.jpg,stim_fb/negf.jpg,stim_fb/posf.jpg,stim_03/f.jpg,stim_03/e.jpg,1,3,f,4,44,284,45,f,1,0.766459798047,03,01,60.01514789,PLT_learning_3,N,2014_Mrz_10_1752,P24,
stim_fb/ques.jpg,stim_fb/negf.jpg,stim_fb/posf.jpg,stim_03/f.jpg,stim_03/e.jpg,1,3,f,4,45,285,42,f,1,0.583194237637,03,01,60.01514789,PLT_learning_3,N,2014_Mrz_10_1752,P24,
stim_fb/ques.jpg,stim_fb/negf.jpg,stim_fb/posf.jpg,stim_03/f.jpg,stim_03/e.jpg,1,3,f,4,46,286,43,f,1,0.733158051442,03,01,60.01514789,PLT_learning_3,N,2014_Mrz_10_1752,P24,
stim_fb/ques.jpg,stim_fb/negf.jpg,stim_fb/posf.jpg,stim_03/c.jpg,stim_03/d.jpg,2,2,j,4,47,287,36,j,1,0.999730257668,03,01,60.01514789,PLT_learning_3,N,2014_Mrz_10_1752,P24,
stim_fb/ques.jpg,stim_fb/negf.jpg,stim_fb/posf.jpg,stim_03/e.jpg,stim_03/f.jpg,2,3,j,4,48,288,51,j,1,1.04970276915,03,01,60.01514789,PLT_learning_3,N,2014_Mrz_10_1752,P24,
stim_fb/ques.jpg,stim_fb/posf.jpg,stim_fb/negf.jpg,stim_03/d.jpg,stim_03/c.jpg,1,2,f,4,49,289,29,f,1,0.699764365681,03,01,60.01514789,PLT_learning_3,N,2014_Mrz_10_1752,P24,
stim_fb/ques.jpg,stim_fb/negf.jpg,stim_fb/posf.jpg,stim_03/b.jpg,stim_03/a.jpg,1,1,f,4,50,290,6,f,1,0.89972632687,03,01,60.01514789,PLT_learning_3,N,2014_Mrz_10_1752,P24,
stim_fb/ques.jpg,stim_fb/posf.jpg,stim_fb/negf.jpg,stim_03/d.jpg,stim_03/c.jpg,1,2,f,4,51,291,27,f,1,0.633212835994,03,01,60.01514789,PLT_learning_3,N,2014_Mrz_10_1752,P24,
stim_fb/ques.jpg,stim_fb/posf.jpg,stim_fb/negf.jpg,stim_03/f.jpg,stim_03/e.jpg,1,3,f,4,52,292,49,f,1,0.916413509673,03,01,60.01514789,PLT_learning_3,N,2014_Mrz_10_1752,P24,
stim_fb/ques.jpg,stim_fb/negf.jpg,stim_fb/posf.jpg,stim_03/a.jpg,stim_03/b.jpg,2,1,j,4,53,293,11,j,1,0.799756371756,03,01,60.01514789,PLT_learning_3,N,2014_Mrz_10_1752,P24,
stim_fb/ques.jpg,stim_fb/posf.jpg,stim_fb/negf.jpg,stim_03/f.jpg,stim_03/e.jpg,1,3,f,4,54,294,48,f,1,0.64982476222,03,01,60.01514789,PLT_learning_3,N,2014_Mrz_10_1752,P24,
stim_fb/ques.jpg,stim_fb/posf.jpg,stim_fb/negf.jpg,stim_03/b.jpg,stim_03/a.jpg,1,1,f,4,55,295,8,f,1,0.983043171105,03,01,60.01514789,PLT_learning_3,N,2014_Mrz_10_1752,P24,
stim_fb/ques.jpg,stim_fb/negf.jpg,stim_fb/posf.jpg,stim_03/b.jpg,stim_03/a.jpg,1,1,f,4,56,296,2,f,1,0.633177419719,03,01,60.01514789,PLT_learning_3,N,2014_Mrz_10_1752,P24,
stim_fb/ques.jpg,stim_fb/negf.jpg,stim_fb/posf.jpg,stim_03/d.jpg,stim_03/c.jpg,1,2,f,4,57,297,23,f,1,1.36605310637,03,01,60.01514789,PLT_learning_3,N,2014_Mrz_10_1752,P24,
stim_fb/ques.jpg,stim_fb/posf.jpg,stim_fb/negf.jpg,stim_03/b.jpg,stim_03/a.jpg,1,1,f,4,58,298,9,f,1,0.71647145811,03,01,60.01514789,PLT_learning_3,N,2014_Mrz_10_1752,P24,
stim_fb/ques.jpg,stim_fb/posf.jpg,stim_fb/negf.jpg,stim_03/a.jpg,stim_03/b.jpg,2,1,j,4,59,299,19,j,1,0.83311092097,03,01,60.01514789,PLT_learning_3,N,2014_Mrz_10_1752,P24,
stim_fb/ques.jpg,stim_fb/posf.jpg,stim_fb/negf.jpg,stim_03/d.jpg,stim_03/c.jpg,1,2,f,5,0,300,28,f,1,0.883108123999,03,01,60.01514789,PLT_learning_3,N,2014_Mrz_10_1752,P24,
stim_fb/ques.jpg,stim_fb/negf.jpg,stim_fb/posf.jpg,stim_03/a.jpg,stim_03/b.jpg,2,1,j,5,1,301,14,j,1,0.716494576733,03,01,60.01514789,PLT_learning_3,N,2014_Mrz_10_1752,P24,
stim_fb/ques.jpg,stim_fb/negf.jpg,stim_fb/posf.jpg,stim_03/f.jpg,stim_03/e.jpg,1,3,f,5,2,302,43,f,1,0.883070506237,03,01,60.01514789,PLT_learning_3,N,2014_Mrz_10_1752,P24,
stim_fb/ques.jpg,stim_fb/negf.jpg,stim_fb/posf.jpg,stim_03/c.jpg,stim_03/d.jpg,2,2,j,5,3,303,34,j,1,0.666488399334,03,01,60.01514789,PLT_learning_3,N,2014_Mrz_10_1752,P24,
stim_fb/ques.jpg,stim_fb/negf.jpg,stim_fb/posf.jpg,stim_03/f.jpg,stim_03/e.jpg,1,3,f,5,4,304,41,f,1,0.683449622184,03,01,60.01514789,PLT_learning_3,N,2014_Mrz_10_1752,P24,
stim_fb/ques.jpg,stim_fb/negf.jpg,stim_fb/posf.jpg,stim_03/a.jpg,stim_03/b.jpg,2,1,j,5,5,305,11,j,1,0.866437834302,03,01,60.01514789,PLT_learning_3,N,2014_Mrz_10_1752,P24,
stim_fb/ques.jpg,stim_fb/negf.jpg,stim_fb/posf.jpg,stim_03/b.jpg,stim_03/a.jpg,1,1,f,5,6,306,7,f,1,0.733136586943,03,01,60.01514789,PLT_learning_3,N,2014_Mrz_10_1752,P24,
stim_fb/ques.jpg,stim_fb/negf.jpg,stim_fb/posf.jpg,stim_03/a.jpg,stim_03/b.jpg,2,1,j,5,7,307,15,j,1,0.59985735145,03,01,60.01514789,PLT_learning_3,N,2014_Mrz_10_1752,P24,
stim_fb/ques.jpg,stim_fb/negf.jpg,stim_fb/posf.jpg,stim_03/b.jpg,stim_03/a.jpg,1,1,f,5,8,308,2,f,1,0.699828470462,03,01,60.01514789,PLT_learning_3,N,2014_Mrz_10_1752,P24,
stim_fb/ques.jpg,stim_fb/negf.jpg,stim_fb/posf.jpg,stim_03/d.jpg,stim_03/c.jpg,1,2,f,5,9,309,23,f,1,0.549851050744,03,01,60.01514789,PLT_learning_3,N,2014_Mrz_10_1752,P24,
stim_fb/ques.jpg,stim_fb/posf.jpg,stim_fb/negf.jpg,stim_03/e.jpg,stim_03/f.jpg,2,3,j,5,10,310,56,j,1,0.899746077097,03,01,60.01514789,PLT_learning_3,N,2014_Mrz_10_1752,P24,
stim_fb/ques.jpg,stim_fb/negf.jpg,stim_fb/posf.jpg,stim_03/e.jpg,stim_03/f.jpg,2,3,j,5,11,311,50,f,0,0.833124833647,03,01,60.01514789,PLT_learning_3,N,2014_Mrz_10_1752,P24,
stim_fb/ques.jpg,stim_fb/negf.jpg,stim_fb/posf.jpg,stim_03/b.jpg,stim_03/a.jpg,1,1,f,5,12,312,1,f,1,1.01644319065,03,01,60.01514789,PLT_learning_3,N,2014_Mrz_10_1752,P24,
stim_fb/ques.jpg,stim_fb/negf.jpg,stim_fb/posf.jpg,stim_03/c.jpg,stim_03/d.jpg,2,2,j,5,13,313,32,j,1,0.733121344952,03,01,60.01514789,PLT_learning_3,N,2014_Mrz_10_1752,P24,
stim_fb/ques.jpg,stim_fb/negf.jpg,stim_fb/posf.jpg,stim_03/b.jpg,stim_03/a.jpg,1,1,f,5,14,314,6,f,1,0.816456321381,03,01,60.01514789,PLT_learning_3,N,2014_Mrz_10_1752,P24,
stim_fb/ques.jpg,stim_fb/negf.jpg,stim_fb/posf.jpg,stim_03/a.jpg,stim_03/b.jpg,2,1,j,5,15,315,12,j,1,0.766442077878,03,01,60.01514789,PLT_learning_3,N,2014_Mrz_10_1752,P24,
stim_fb/ques.jpg,stim_fb/posf.jpg,stim_fb/negf.jpg,stim_03/f.jpg,stim_03/e.jpg,1,3,f,5,16,316,47,f,1,0.816455404094,03,01,60.01514789,PLT_learning_3,N,2014_Mrz_10_1752,P24,
stim_fb/ques.jpg,stim_fb/posf.jpg,stim_fb/negf.jpg,stim_03/e.jpg,stim_03/f.jpg,2,3,j,5,17,317,59,f,0,0.833113293884,03,01,60.01514789,PLT_learning_3,N,2014_Mrz_10_1752,P24,
stim_fb/ques.jpg,stim_fb/negf.jpg,stim_fb/posf.jpg,stim_03/c.jpg,stim_03/d.jpg,2,2,j,5,18,318,30,j,1,0.799771078413,03,01,60.01514789,PLT_learning_3,N,2014_Mrz_10_1752,P24,
stim_fb/ques.jpg,stim_fb/posf.jpg,stim_fb/negf.jpg,stim_03/f.jpg,stim_03/e.jpg,1,3,f,5,19,319,46,j,0,0.733162388253,03,01,60.01514789,PLT_learning_3,N,2014_Mrz_10_1752,P24,
stim_fb/ques.jpg,stim_fb/negf.jpg,stim_fb/posf.jpg,stim_03/d.jpg,stim_03/c.jpg,1,2,f,5,20,320,25,f,1,0.766453737942,03,01,60.01514789,PLT_learning_3,N,2014_Mrz_10_1752,P24,
stim_fb/ques.jpg,stim_fb/negf.jpg,stim_fb/posf.jpg,stim_03/e.jpg,stim_03/f.jpg,2,3,j,5,21,321,51,f,0,0.599841300442,03,01,60.01514789,PLT_learning_3,N,2014_Mrz_10_1752,P24,
stim_fb/ques.jpg,stim_fb/negf.jpg,stim_fb/posf.jpg,stim_03/a.jpg,stim_03/b.jpg,2,1,j,5,22,322,17,j,1,0.88308554071,03,01,60.01514789,PLT_learning_3,N,2014_Mrz_10_1752,P24,
stim_fb/ques.jpg,stim_fb/negf.jpg,stim_fb/posf.jpg,stim_03/d.jpg,stim_03/c.jpg,1,2,f,5,23,323,20,f,1,0.6831620063,03,01,60.01514789,PLT_learning_3,N,2014_Mrz_10_1752,P24,
stim_fb/ques.jpg,stim_fb/negf.jpg,stim_fb/posf.jpg,stim_03/c.jpg,stim_03/d.jpg,2,2,j,5,24,324,31,j,1,0.833113723958,03,01,60.01514789,PLT_learning_3,N,2014_Mrz_10_1752,P24,
stim_fb/ques.jpg,stim_fb/negf.jpg,stim_fb/posf.jpg,stim_03/f.jpg,stim_03/e.jpg,1,3,f,5,25,325,42,j,0,0.933038798205,03,01,60.01514789,PLT_learning_3,N,2014_Mrz_10_1752,P24,
stim_fb/ques.jpg,stim_fb/negf.jpg,stim_fb/posf.jpg,stim_03/b.jpg,stim_03/a.jpg,1,1,f,5,26,326,3,f,1,0.716445969578,03,01,60.01514789,PLT_learning_3,N,2014_Mrz_10_1752,P24,
stim_fb/ques.jpg,stim_fb/negf.jpg,stim_fb/posf.jpg,stim_03/d.jpg,stim_03/c.jpg,1,2,f,5,27,327,22,f,1,0.716478781362,03,01,60.01514789,PLT_learning_3,N,2014_Mrz_10_1752,P24,
stim_fb/ques.jpg,stim_fb/negf.jpg,stim_fb/posf.jpg,stim_03/f.jpg,stim_03/e.jpg,1,3,f,5,28,328,44,f,1,0.816395906797,03,01,60.01514789,PLT_learning_3,N,2014_Mrz_10_1752,P24,
stim_fb/ques.jpg,stim_fb/posf.jpg,stim_fb/negf.jpg,stim_03/c.jpg,stim_03/d.jpg,2,2,j,5,29,329,38,j,1,0.749796464688,03,01,60.01514789,PLT_learning_3,N,2014_Mrz_10_1752,P24,
stim_fb/ques.jpg,stim_fb/posf.jpg,stim_fb/negf.jpg,stim_03/f.jpg,stim_03/e.jpg,1,3,f,5,30,330,49,f,1,0.649864184479,03,01,60.01514789,PLT_learning_3,N,2014_Mrz_10_1752,P24,
stim_fb/ques.jpg,stim_fb/negf.jpg,stim_fb/posf.jpg,stim_03/b.jpg,stim_03/a.jpg,1,1,f,5,31,331,5,f,1,0.616522008106,03,01,60.01514789,PLT_learning_3,N,2014_Mrz_10_1752,P24,
stim_fb/ques.jpg,stim_fb/negf.jpg,stim_fb/posf.jpg,stim_03/e.jpg,stim_03/f.jpg,2,3,j,5,32,332,54,f,0,0.899763051406,03,01,60.01514789,PLT_learning_3,N,2014_Mrz_10_1752,P24,
stim_fb/ques.jpg,stim_fb/negf.jpg,stim_fb/posf.jpg,stim_03/c.jpg,stim_03/d.jpg,2,2,j,5,33,333,36,j,1,0.76644467034,03,01,60.01514789,PLT_learning_3,N,2014_Mrz_10_1752,P24,
stim_fb/ques.jpg,stim_fb/negf.jpg,stim_fb/posf.jpg,stim_03/b.jpg,stim_03/a.jpg,1,1,f,5,34,334,4,f,1,0.699826407319,03,01,60.01514789,PLT_learning_3,N,2014_Mrz_10_1752,P24,
stim_fb/ques.jpg,stim_fb/negf.jpg,stim_fb/posf.jpg,stim_03/d.jpg,stim_03/c.jpg,1,2,f,5,35,335,24,f,1,0.649826951678,03,01,60.01514789,PLT_learning_3,N,2014_Mrz_10_1752,P24,
stim_fb/ques.jpg,stim_fb/posf.jpg,stim_fb/negf.jpg,stim_03/f.jpg,stim_03/e.jpg,1,3,f,5,36,336,48,f,1,0.983045387629,03,01,60.01514789,PLT_learning_3,N,2014_Mrz_10_1752,P24,
stim_fb/ques.jpg,stim_fb/negf.jpg,stim_fb/posf.jpg,stim_03/f.jpg,stim_03/e.jpg,1,3,f,5,37,337,40,j,0,0.883097588739,03,01,60.01514789,PLT_learning_3,N,2014_Mrz_10_1752,P24,
stim_fb/ques.jpg,stim_fb/posf.jpg,stim_fb/negf.jpg,stim_03/b.jpg,stim_03/a.jpg,1,1,f,5,38,338,9,f,1,0.916380418192,03,01,60.01514789,PLT_learning_3,N,2014_Mrz_10_1752,P24,
stim_fb/ques.jpg,stim_fb/posf.jpg,stim_fb/negf.jpg,stim_03/c.jpg,stim_03/d.jpg,2,2,j,5,39,339,39,j,1,0.816443353058,03,01,60.01514789,PLT_learning_3,N,2014_Mrz_10_1752,P24,
stim_fb/ques.jpg,stim_fb/posf.jpg,stim_fb/negf.jpg,stim_03/d.jpg,stim_03/c.jpg,1,2,f,5,40,340,27,f,1,0.683206598445,03,01,60.01514789,PLT_learning_3,N,2014_Mrz_10_1752,P24,
stim_fb/ques.jpg,stim_fb/posf.jpg,stim_fb/negf.jpg,stim_03/a.jpg,stim_03/b.jpg,2,1,j,5,41,341,18,j,1,0.766467400997,03,01,60.01514789,PLT_learning_3,N,2014_Mrz_10_1752,P24,
stim_fb/ques.jpg,stim_fb/posf.jpg,stim_fb/negf.jpg,stim_03/e.jpg,stim_03/f.jpg,2,3,j,5,42,342,58,j,1,1.08304147788,03,01,60.01514789,PLT_learning_3,N,2014_Mrz_10_1752,P24,
stim_fb/ques.jpg,stim_fb/negf.jpg,stim_fb/posf.jpg,stim_03/a.jpg,stim_03/b.jpg,2,1,j,5,43,343,16,j,1,0.999570147593,03,01,60.01514789,PLT_learning_3,N,2014_Mrz_10_1752,P24,
stim_fb/ques.jpg,stim_fb/negf.jpg,stim_fb/posf.jpg,stim_03/c.jpg,stim_03/d.jpg,2,2,j,5,44,344,33,j,1,0.833081390365,03,01,60.01514789,PLT_learning_3,N,2014_Mrz_10_1752,P24,
stim_fb/ques.jpg,stim_fb/posf.jpg,stim_fb/negf.jpg,stim_03/a.jpg,stim_03/b.jpg,2,1,j,5,45,345,19,j,1,0.716461097285,03,01,60.01514789,PLT_learning_3,N,2014_Mrz_10_1752,P24,
stim_fb/ques.jpg,stim_fb/negf.jpg,stim_fb/posf.jpg,stim_03/e.jpg,stim_03/f.jpg,2,3,j,5,46,346,52,j,1,0.899784594101,03,01,60.01514789,PLT_learning_3,N,2014_Mrz_10_1752,P24,
stim_fb/ques.jpg,stim_fb/posf.jpg,stim_fb/negf.jpg,stim_03/b.jpg,stim_03/a.jpg,1,1,f,5,47,347,8,f,1,0.683163699521,03,01,60.01514789,PLT_learning_3,N,2014_Mrz_10_1752,P24,
stim_fb/ques.jpg,stim_fb/posf.jpg,stim_fb/negf.jpg,stim_03/c.jpg,stim_03/d.jpg,2,2,j,5,48,348,37,j,1,0.749813631477,03,01,60.01514789,PLT_learning_3,N,2014_Mrz_10_1752,P24,
stim_fb/ques.jpg,stim_fb/negf.jpg,stim_fb/posf.jpg,stim_03/b.jpg,stim_03/a.jpg,1,1,f,5,49,349,0,f,1,0.749812374343,03,01,60.01514789,PLT_learning_3,N,2014_Mrz_10_1752,P24,
stim_fb/ques.jpg,stim_fb/posf.jpg,stim_fb/negf.jpg,stim_03/d.jpg,stim_03/c.jpg,1,2,f,5,50,350,29,f,1,0.499897718062,03,01,60.01514789,PLT_learning_3,N,2014_Mrz_10_1752,P24,
stim_fb/ques.jpg,stim_fb/negf.jpg,stim_fb/posf.jpg,stim_03/e.jpg,stim_03/f.jpg,2,3,j,5,51,351,55,j,1,0.849777340021,03,01,60.01514789,PLT_learning_3,N,2014_Mrz_10_1752,P24,
stim_fb/ques.jpg,stim_fb/negf.jpg,stim_fb/posf.jpg,stim_03/e.jpg,stim_03/f.jpg,2,3,j,5,52,352,53,j,1,0.716487000849,03,01,60.01514789,PLT_learning_3,N,2014_Mrz_10_1752,P24,
stim_fb/ques.jpg,stim_fb/negf.jpg,stim_fb/posf.jpg,stim_03/d.jpg,stim_03/c.jpg,1,2,f,5,53,353,21,f,1,0.816445076352,03,01,60.01514789,PLT_learning_3,N,2014_Mrz_10_1752,P24,
stim_fb/ques.jpg,stim_fb/negf.jpg,stim_fb/posf.jpg,stim_03/f.jpg,stim_03/e.jpg,1,3,f,5,54,354,45,f,1,0.749791400065,03,01,60.01514789,PLT_learning_3,N,2014_Mrz_10_1752,P24,
stim_fb/ques.jpg,stim_fb/negf.jpg,stim_fb/posf.jpg,stim_03/c.jpg,stim_03/d.jpg,2,2,j,5,55,355,35,j,1,0.63315383794,03,01,60.01514789,PLT_learning_3,N,2014_Mrz_10_1752,P24,
stim_fb/ques.jpg,stim_fb/negf.jpg,stim_fb/posf.jpg,stim_03/d.jpg,stim_03/c.jpg,1,2,f,5,56,356,26,f,1,0.53317642123,03,01,60.01514789,PLT_learning_3,N,2014_Mrz_10_1752,P24,
stim_fb/ques.jpg,stim_fb/negf.jpg,stim_fb/posf.jpg,stim_03/a.jpg,stim_03/b.jpg,2,1,j,5,57,357,13,j,1,0.866428093022,03,01,60.01514789,PLT_learning_3,N,2014_Mrz_10_1752,P24,
stim_fb/ques.jpg,stim_fb/posf.jpg,stim_fb/negf.jpg,stim_03/e.jpg,stim_03/f.jpg,2,3,j,5,58,358,57,j,1,0.899795138383,03,01,60.01514789,PLT_learning_3,N,2014_Mrz_10_1752,P24,
stim_fb/ques.jpg,stim_fb/negf.jpg,stim_fb/posf.jpg,stim_03/a.jpg,stim_03/b.jpg,2,1,j,5,59,359,10,j,1,0.649822584792,03,01,60.01514789,PLT_learning_3,N,2014_Mrz_10_1752,P24,
