Fb3,Fb2,Fb1,Symbol2,Symbol1,PosCond,Pair,Correct,trials.thisRepN,trials.thisTrialN,trials.thisN,trials.thisIndex,Response.keys,Response.corr,Response.rt,Version,Session Number,frameRate,expName,StimCondition,date,Participant,
stim_fb/ques.jpg,stim_fb/posf.jpg,stim_fb/negf.jpg,stim_01/c.jpg,stim_01/d.jpg,2,2,j,0,0,0,39,f,0,0.949729421096,01,01,60.0191705389,PLT_learning_01,N,2014_Mrz_11_1905,P25,
stim_fb/ques.jpg,stim_fb/negf.jpg,stim_fb/posf.jpg,stim_01/f.jpg,stim_01/e.jpg,1,3,f,0,1,1,43,None,0,,01,01,60.0191705389,PLT_learning_01,N,2014_Mrz_11_1905,P25,
stim_fb/ques.jpg,stim_fb/negf.jpg,stim_fb/posf.jpg,stim_01/d.jpg,stim_01/c.jpg,1,2,f,0,2,2,26,f,1,1.1163488081,01,01,60.0191705389,PLT_learning_01,N,2014_Mrz_11_1905,P25,
stim_fb/ques.jpg,stim_fb/negf.jpg,stim_fb/posf.jpg,stim_01/d.jpg,stim_01/c.jpg,1,2,f,0,3,3,22,j,0,1.28295802679,01,01,60.0191705389,PLT_learning_01,N,2014_Mrz_11_1905,P25,
stim_fb/ques.jpg,stim_fb/posf.jpg,stim_fb/negf.jpg,stim_01/c.jpg,stim_01/d.jpg,2,2,j,0,4,4,38,f,0,1.24964931974,01,01,60.0191705389,PLT_learning_01,N,2014_Mrz_11_1905,P25,
stim_fb/ques.jpg,stim_fb/negf.jpg,stim_fb/posf.jpg,stim_01/a.jpg,stim_01/b.jpg,2,1,j,0,5,5,15,j,1,1.03302185915,01,01,60.0191705389,PLT_learning_01,N,2014_Mrz_11_1905,P25,
stim_fb/ques.jpg,stim_fb/negf.jpg,stim_fb/posf.jpg,stim_01/b.jpg,stim_01/a.jpg,1,1,f,0,6,6,7,j,0,1.51640065112,01,01,60.0191705389,PLT_learning_01,N,2014_Mrz_11_1905,P25,
stim_fb/ques.jpg,stim_fb/posf.jpg,stim_fb/negf.jpg,stim_01/e.jpg,stim_01/f.jpg,2,3,j,0,7,7,56,j,1,1.28296725075,01,01,60.0191705389,PLT_learning_01,N,2014_Mrz_11_1905,P25,
stim_fb/ques.jpg,stim_fb/negf.jpg,stim_fb/posf.jpg,stim_01/a.jpg,stim_01/b.jpg,2,1,j,0,8,8,11,j,1,1.06635765461,01,01,60.0191705389,PLT_learning_01,N,2014_Mrz_11_1905,P25,
stim_fb/ques.jpg,stim_fb/negf.jpg,stim_fb/posf.jpg,stim_01/b.jpg,stim_01/a.jpg,1,1,f,0,9,9,3,f,1,1.33293589922,01,01,60.0191705389,PLT_learning_01,N,2014_Mrz_11_1905,P25,
stim_fb/ques.jpg,stim_fb/negf.jpg,stim_fb/posf.jpg,stim_01/b.jpg,stim_01/a.jpg,1,1,f,0,10,10,1,f,1,0.833110477703,01,01,60.0191705389,PLT_learning_01,N,2014_Mrz_11_1905,P25,
stim_fb/ques.jpg,stim_fb/negf.jpg,stim_fb/posf.jpg,stim_01/d.jpg,stim_01/c.jpg,1,2,f,0,11,11,20,f,1,1.18300244433,01,01,60.0191705389,PLT_learning_01,N,2014_Mrz_11_1905,P25,
stim_fb/ques.jpg,stim_fb/negf.jpg,stim_fb/posf.jpg,stim_01/f.jpg,stim_01/e.jpg,1,3,f,0,12,12,41,f,1,1.3663185122,01,01,60.0191705389,PLT_learning_01,N,2014_Mrz_11_1905,P25,
stim_fb/ques.jpg,stim_fb/negf.jpg,stim_fb/posf.jpg,stim_01/e.jpg,stim_01/f.jpg,2,3,j,0,13,13,55,j,1,0.999705098064,01,01,60.0191705389,PLT_learning_01,N,2014_Mrz_11_1905,P25,
stim_fb/ques.jpg,stim_fb/negf.jpg,stim_fb/posf.jpg,stim_01/c.jpg,stim_01/d.jpg,2,2,j,0,14,14,32,f,0,1.14968253742,01,01,60.0191705389,PLT_learning_01,N,2014_Mrz_11_1905,P25,
stim_fb/ques.jpg,stim_fb/negf.jpg,stim_fb/posf.jpg,stim_01/a.jpg,stim_01/b.jpg,2,1,j,0,15,15,12,j,1,1.16632634669,01,01,60.0191705389,PLT_learning_01,N,2014_Mrz_11_1905,P25,
stim_fb/ques.jpg,stim_fb/negf.jpg,stim_fb/posf.jpg,stim_01/a.jpg,stim_01/b.jpg,2,1,j,0,16,16,10,j,1,0.5665155596,01,01,60.0191705389,PLT_learning_01,N,2014_Mrz_11_1905,P25,
stim_fb/ques.jpg,stim_fb/negf.jpg,stim_fb/posf.jpg,stim_01/c.jpg,stim_01/d.jpg,2,2,j,0,17,17,31,f,0,1.03303257783,01,01,60.0191705389,PLT_learning_01,N,2014_Mrz_11_1905,P25,
stim_fb/ques.jpg,stim_fb/posf.jpg,stim_fb/negf.jpg,stim_01/d.jpg,stim_01/c.jpg,1,2,f,0,18,18,27,f,1,0.799794546678,01,01,60.0191705389,PLT_learning_01,N,2014_Mrz_11_1905,P25,
stim_fb/ques.jpg,stim_fb/negf.jpg,stim_fb/posf.jpg,stim_01/d.jpg,stim_01/c.jpg,1,2,f,0,19,19,25,j,0,1.01638011301,01,01,60.0191705389,PLT_learning_01,N,2014_Mrz_11_1905,P25,
stim_fb/ques.jpg,stim_fb/negf.jpg,stim_fb/posf.jpg,stim_01/d.jpg,stim_01/c.jpg,1,2,f,0,20,20,21,f,1,0.949759709478,01,01,60.0191705389,PLT_learning_01,N,2014_Mrz_11_1905,P25,
stim_fb/ques.jpg,stim_fb/negf.jpg,stim_fb/posf.jpg,stim_01/d.jpg,stim_01/c.jpg,1,2,f,0,21,21,24,f,1,0.649837296573,01,01,60.0191705389,PLT_learning_01,N,2014_Mrz_11_1905,P25,
stim_fb/ques.jpg,stim_fb/posf.jpg,stim_fb/negf.jpg,stim_01/e.jpg,stim_01/f.jpg,2,3,j,0,22,22,57,f,0,1.24963249287,01,01,60.0191705389,PLT_learning_01,N,2014_Mrz_11_1905,P25,
stim_fb/ques.jpg,stim_fb/posf.jpg,stim_fb/negf.jpg,stim_01/e.jpg,stim_01/f.jpg,2,3,j,0,23,23,58,f,0,0.916417604312,01,01,60.0191705389,PLT_learning_01,N,2014_Mrz_11_1905,P25,
stim_fb/ques.jpg,stim_fb/negf.jpg,stim_fb/posf.jpg,stim_01/f.jpg,stim_01/e.jpg,1,3,f,0,24,24,40,j,0,0.933060523377,01,01,60.0191705389,PLT_learning_01,N,2014_Mrz_11_1905,P25,
stim_fb/ques.jpg,stim_fb/negf.jpg,stim_fb/posf.jpg,stim_01/e.jpg,stim_01/f.jpg,2,3,j,0,25,25,54,j,1,0.866426255343,01,01,60.0191705389,PLT_learning_01,N,2014_Mrz_11_1905,P25,
stim_fb/ques.jpg,stim_fb/negf.jpg,stim_fb/posf.jpg,stim_01/c.jpg,stim_01/d.jpg,2,2,j,0,26,26,30,f,0,1.11634285027,01,01,60.0191705389,PLT_learning_01,N,2014_Mrz_11_1905,P25,
stim_fb/ques.jpg,stim_fb/negf.jpg,stim_fb/posf.jpg,stim_01/e.jpg,stim_01/f.jpg,2,3,j,0,27,27,52,f,0,1.26631126717,01,01,60.0191705389,PLT_learning_01,N,2014_Mrz_11_1905,P25,
stim_fb/ques.jpg,stim_fb/posf.jpg,stim_fb/negf.jpg,stim_01/f.jpg,stim_01/e.jpg,1,3,f,0,28,28,48,j,0,0.966408493136,01,01,60.0191705389,PLT_learning_01,N,2014_Mrz_11_1905,P25,
stim_fb/ques.jpg,stim_fb/posf.jpg,stim_fb/negf.jpg,stim_01/c.jpg,stim_01/d.jpg,2,2,j,0,29,29,37,f,0,1.16634771488,01,01,60.0191705389,PLT_learning_01,N,2014_Mrz_11_1905,P25,
stim_fb/ques.jpg,stim_fb/negf.jpg,stim_fb/posf.jpg,stim_01/c.jpg,stim_01/d.jpg,2,2,j,0,30,30,35,f,0,0.949732542864,01,01,60.0191705389,PLT_learning_01,N,2014_Mrz_11_1905,P25,
stim_fb/ques.jpg,stim_fb/negf.jpg,stim_fb/posf.jpg,stim_01/e.jpg,stim_01/f.jpg,2,3,j,0,31,31,51,f,0,1.03300531799,01,01,60.0191705389,PLT_learning_01,N,2014_Mrz_11_1905,P25,
stim_fb/ques.jpg,stim_fb/posf.jpg,stim_fb/negf.jpg,stim_01/b.jpg,stim_01/a.jpg,1,1,f,0,32,32,9,f,1,1.31625373849,01,01,60.0191705389,PLT_learning_01,N,2014_Mrz_11_1905,P25,
stim_fb/ques.jpg,stim_fb/negf.jpg,stim_fb/posf.jpg,stim_01/b.jpg,stim_01/a.jpg,1,1,f,0,33,33,4,f,1,0.933080378793,01,01,60.0191705389,PLT_learning_01,N,2014_Mrz_11_1905,P25,
stim_fb/ques.jpg,stim_fb/negf.jpg,stim_fb/posf.jpg,stim_01/d.jpg,stim_01/c.jpg,1,2,f,0,34,34,23,f,1,1.31629241475,01,01,60.0191705389,PLT_learning_01,N,2014_Mrz_11_1905,P25,
stim_fb/ques.jpg,stim_fb/negf.jpg,stim_fb/posf.jpg,stim_01/b.jpg,stim_01/a.jpg,1,1,f,0,35,35,6,f,1,1.48289224407,01,01,60.0191705389,PLT_learning_01,N,2014_Mrz_11_1905,P25,
stim_fb/ques.jpg,stim_fb/negf.jpg,stim_fb/posf.jpg,stim_01/a.jpg,stim_01/b.jpg,2,1,j,0,36,36,13,j,1,0.783148848699,01,01,60.0191705389,PLT_learning_01,N,2014_Mrz_11_1905,P25,
stim_fb/ques.jpg,stim_fb/negf.jpg,stim_fb/posf.jpg,stim_01/b.jpg,stim_01/a.jpg,1,1,f,0,37,37,5,j,0,0.633180266388,01,01,60.0191705389,PLT_learning_01,N,2014_Mrz_11_1905,P25,
stim_fb/ques.jpg,stim_fb/negf.jpg,stim_fb/posf.jpg,stim_01/c.jpg,stim_01/d.jpg,2,2,j,0,38,38,36,j,1,0.933069097719,01,01,60.0191705389,PLT_learning_01,N,2014_Mrz_11_1905,P25,
stim_fb/ques.jpg,stim_fb/negf.jpg,stim_fb/posf.jpg,stim_01/a.jpg,stim_01/b.jpg,2,1,j,0,39,39,16,f,0,1.13302470122,01,01,60.0191705389,PLT_learning_01,N,2014_Mrz_11_1905,P25,
stim_fb/ques.jpg,stim_fb/negf.jpg,stim_fb/posf.jpg,stim_01/e.jpg,stim_01/f.jpg,2,3,j,0,40,40,53,f,0,1.2493557411,01,01,60.0191705389,PLT_learning_01,N,2014_Mrz_11_1905,P25,
stim_fb/ques.jpg,stim_fb/negf.jpg,stim_fb/posf.jpg,stim_01/c.jpg,stim_01/d.jpg,2,2,j,0,41,41,34,j,1,0.899728715842,01,01,60.0191705389,PLT_learning_01,N,2014_Mrz_11_1905,P25,
stim_fb/ques.jpg,stim_fb/negf.jpg,stim_fb/posf.jpg,stim_01/f.jpg,stim_01/e.jpg,1,3,f,0,42,42,42,f,1,1.24965714221,01,01,60.0191705389,PLT_learning_01,N,2014_Mrz_11_1905,P25,
stim_fb/ques.jpg,stim_fb/negf.jpg,stim_fb/posf.jpg,stim_01/c.jpg,stim_01/d.jpg,2,2,j,0,43,43,33,j,1,1.29963912587,01,01,60.0191705389,PLT_learning_01,N,2014_Mrz_11_1905,P25,
stim_fb/ques.jpg,stim_fb/posf.jpg,stim_fb/negf.jpg,stim_01/d.jpg,stim_01/c.jpg,1,2,f,0,44,44,28,f,1,0.883086136622,01,01,60.0191705389,PLT_learning_01,N,2014_Mrz_11_1905,P25,
stim_fb/ques.jpg,stim_fb/posf.jpg,stim_fb/negf.jpg,stim_01/f.jpg,stim_01/e.jpg,1,3,f,0,45,45,47,f,1,1.2329318722,01,01,60.0191705389,PLT_learning_01,N,2014_Mrz_11_1905,P25,
stim_fb/ques.jpg,stim_fb/negf.jpg,stim_fb/posf.jpg,stim_01/a.jpg,stim_01/b.jpg,2,1,j,0,46,46,17,f,0,1.19960529468,01,01,60.0191705389,PLT_learning_01,N,2014_Mrz_11_1905,P25,
stim_fb/ques.jpg,stim_fb/negf.jpg,stim_fb/posf.jpg,stim_01/b.jpg,stim_01/a.jpg,1,1,f,0,47,47,0,j,0,1.19966899621,01,01,60.0191705389,PLT_learning_01,N,2014_Mrz_11_1905,P25,
stim_fb/ques.jpg,stim_fb/negf.jpg,stim_fb/posf.jpg,stim_01/b.jpg,stim_01/a.jpg,1,1,f,0,48,48,2,f,1,1.0330364244,01,01,60.0191705389,PLT_learning_01,N,2014_Mrz_11_1905,P25,
stim_fb/ques.jpg,stim_fb/posf.jpg,stim_fb/negf.jpg,stim_01/f.jpg,stim_01/e.jpg,1,3,f,0,49,49,49,j,0,1.08303469059,01,01,60.0191705389,PLT_learning_01,N,2014_Mrz_11_1905,P25,
stim_fb/ques.jpg,stim_fb/posf.jpg,stim_fb/negf.jpg,stim_01/d.jpg,stim_01/c.jpg,1,2,f,0,50,50,29,f,1,1.08303285301,01,01,60.0191705389,PLT_learning_01,N,2014_Mrz_11_1905,P25,
stim_fb/ques.jpg,stim_fb/negf.jpg,stim_fb/posf.jpg,stim_01/a.jpg,stim_01/b.jpg,2,1,j,0,51,51,14,j,1,1.09969181099,01,01,60.0191705389,PLT_learning_01,N,2014_Mrz_11_1905,P25,
stim_fb/ques.jpg,stim_fb/posf.jpg,stim_fb/negf.jpg,stim_01/f.jpg,stim_01/e.jpg,1,3,f,0,52,52,46,j,0,1.1829796476,01,01,60.0191705389,PLT_learning_01,N,2014_Mrz_11_1905,P25,
stim_fb/ques.jpg,stim_fb/negf.jpg,stim_fb/posf.jpg,stim_01/e.jpg,stim_01/f.jpg,2,3,j,0,53,53,50,j,1,1.116341536,01,01,60.0191705389,PLT_learning_01,N,2014_Mrz_11_1905,P25,
stim_fb/ques.jpg,stim_fb/posf.jpg,stim_fb/negf.jpg,stim_01/a.jpg,stim_01/b.jpg,2,1,j,0,54,54,19,f,0,1.24962665233,01,01,60.0191705389,PLT_learning_01,N,2014_Mrz_11_1905,P25,
stim_fb/ques.jpg,stim_fb/negf.jpg,stim_fb/posf.jpg,stim_01/f.jpg,stim_01/e.jpg,1,3,f,0,55,55,45,j,0,1.46619896768,01,01,60.0191705389,PLT_learning_01,N,2014_Mrz_11_1905,P25,
stim_fb/ques.jpg,stim_fb/posf.jpg,stim_fb/negf.jpg,stim_01/a.jpg,stim_01/b.jpg,2,1,j,0,56,56,18,j,1,1.13301225024,01,01,60.0191705389,PLT_learning_01,N,2014_Mrz_11_1905,P25,
stim_fb/ques.jpg,stim_fb/posf.jpg,stim_fb/negf.jpg,stim_01/e.jpg,stim_01/f.jpg,2,3,j,0,57,57,59,f,0,1.16631927008,01,01,60.0191705389,PLT_learning_01,N,2014_Mrz_11_1905,P25,
stim_fb/ques.jpg,stim_fb/negf.jpg,stim_fb/posf.jpg,stim_01/f.jpg,stim_01/e.jpg,1,3,f,0,58,58,44,f,1,0.799776799511,01,01,60.0191705389,PLT_learning_01,N,2014_Mrz_11_1905,P25,
stim_fb/ques.jpg,stim_fb/posf.jpg,stim_fb/negf.jpg,stim_01/b.jpg,stim_01/a.jpg,1,1,f,0,59,59,8,f,1,1.09971594907,01,01,60.0191705389,PLT_learning_01,N,2014_Mrz_11_1905,P25,
stim_fb/ques.jpg,stim_fb/negf.jpg,stim_fb/posf.jpg,stim_01/a.jpg,stim_01/b.jpg,2,1,j,1,0,60,14,j,1,1.16633046695,01,01,60.0191705389,PLT_learning_01,N,2014_Mrz_11_1905,P25,
stim_fb/ques.jpg,stim_fb/posf.jpg,stim_fb/negf.jpg,stim_01/d.jpg,stim_01/c.jpg,1,2,f,1,1,61,29,f,1,0.916452100166,01,01,60.0191705389,PLT_learning_01,N,2014_Mrz_11_1905,P25,
stim_fb/ques.jpg,stim_fb/negf.jpg,stim_fb/posf.jpg,stim_01/c.jpg,stim_01/d.jpg,2,2,j,1,2,62,33,j,1,0.966399843612,01,01,60.0191705389,PLT_learning_01,N,2014_Mrz_11_1905,P25,
stim_fb/ques.jpg,stim_fb/negf.jpg,stim_fb/posf.jpg,stim_01/d.jpg,stim_01/c.jpg,1,2,f,1,3,63,26,j,0,0.583216619361,01,01,60.0191705389,PLT_learning_01,N,2014_Mrz_11_1905,P25,
stim_fb/ques.jpg,stim_fb/posf.jpg,stim_fb/negf.jpg,stim_01/d.jpg,stim_01/c.jpg,1,2,f,1,4,64,27,f,1,0.599858079797,01,01,60.0191705389,PLT_learning_01,N,2014_Mrz_11_1905,P25,
stim_fb/ques.jpg,stim_fb/negf.jpg,stim_fb/posf.jpg,stim_01/f.jpg,stim_01/e.jpg,1,3,f,1,5,65,41,f,1,1.06615510652,01,01,60.0191705389,PLT_learning_01,N,2014_Mrz_11_1905,P25,
stim_fb/ques.jpg,stim_fb/negf.jpg,stim_fb/posf.jpg,stim_01/a.jpg,stim_01/b.jpg,2,1,j,1,6,66,12,j,1,1.11637624237,01,01,60.0191705389,PLT_learning_01,N,2014_Mrz_11_1905,P25,
stim_fb/ques.jpg,stim_fb/negf.jpg,stim_fb/posf.jpg,stim_01/d.jpg,stim_01/c.jpg,1,2,f,1,7,67,22,j,0,1.1163321737,01,01,60.0191705389,PLT_learning_01,N,2014_Mrz_11_1905,P25,
stim_fb/ques.jpg,stim_fb/negf.jpg,stim_fb/posf.jpg,stim_01/c.jpg,stim_01/d.jpg,2,2,j,1,8,68,35,j,1,1.26629889137,01,01,60.0191705389,PLT_learning_01,N,2014_Mrz_11_1905,P25,
stim_fb/ques.jpg,stim_fb/negf.jpg,stim_fb/posf.jpg,stim_01/c.jpg,stim_01/d.jpg,2,2,j,1,9,69,34,f,0,0.749835675535,01,01,60.0191705389,PLT_learning_01,N,2014_Mrz_11_1905,P25,
stim_fb/ques.jpg,stim_fb/negf.jpg,stim_fb/posf.jpg,stim_01/c.jpg,stim_01/d.jpg,2,2,j,1,10,70,36,j,1,1.38291212956,01,01,60.0191705389,PLT_learning_01,N,2014_Mrz_11_1905,P25,
stim_fb/ques.jpg,stim_fb/negf.jpg,stim_fb/posf.jpg,stim_01/b.jpg,stim_01/a.jpg,1,1,f,1,11,71,7,f,1,1.23297682507,01,01,60.0191705389,PLT_learning_01,N,2014_Mrz_11_1905,P25,
stim_fb/ques.jpg,stim_fb/posf.jpg,stim_fb/negf.jpg,stim_01/a.jpg,stim_01/b.jpg,2,1,j,1,12,72,18,j,1,0.816440855178,01,01,60.0191705389,PLT_learning_01,N,2014_Mrz_11_1905,P25,
stim_fb/ques.jpg,stim_fb/posf.jpg,stim_fb/negf.jpg,stim_01/e.jpg,stim_01/f.jpg,2,3,j,1,13,73,57,j,1,0.966381049839,01,01,60.0191705389,PLT_learning_01,N,2014_Mrz_11_1905,P25,
stim_fb/ques.jpg,stim_fb/negf.jpg,stim_fb/posf.jpg,stim_01/e.jpg,stim_01/f.jpg,2,3,j,1,14,74,50,f,0,0.933063151919,01,01,60.0191705389,PLT_learning_01,N,2014_Mrz_11_1905,P25,
stim_fb/ques.jpg,stim_fb/posf.jpg,stim_fb/negf.jpg,stim_01/f.jpg,stim_01/e.jpg,1,3,f,1,15,75,47,f,1,0.933082144187,01,01,60.0191705389,PLT_learning_01,N,2014_Mrz_11_1905,P25,
stim_fb/ques.jpg,stim_fb/posf.jpg,stim_fb/negf.jpg,stim_01/f.jpg,stim_01/e.jpg,1,3,f,1,16,76,48,j,0,0.799776901764,01,01,60.0191705389,PLT_learning_01,N,2014_Mrz_11_1905,P25,
stim_fb/ques.jpg,stim_fb/negf.jpg,stim_fb/posf.jpg,stim_01/c.jpg,stim_01/d.jpg,2,2,j,1,17,77,32,f,0,1.09967382323,01,01,60.0191705389,PLT_learning_01,N,2014_Mrz_11_1905,P25,
stim_fb/ques.jpg,stim_fb/negf.jpg,stim_fb/posf.jpg,stim_01/d.jpg,stim_01/c.jpg,1,2,f,1,18,78,25,j,0,0.916483359961,01,01,60.0191705389,PLT_learning_01,N,2014_Mrz_11_1905,P25,
stim_fb/ques.jpg,stim_fb/negf.jpg,stim_fb/posf.jpg,stim_01/d.jpg,stim_01/c.jpg,1,2,f,1,19,79,23,f,1,0.999713576162,01,01,60.0191705389,PLT_learning_01,N,2014_Mrz_11_1905,P25,
stim_fb/ques.jpg,stim_fb/posf.jpg,stim_fb/negf.jpg,stim_01/c.jpg,stim_01/d.jpg,2,2,j,1,20,80,39,j,1,0.73314546678,01,01,60.0191705389,PLT_learning_01,N,2014_Mrz_11_1905,P25,
stim_fb/ques.jpg,stim_fb/negf.jpg,stim_fb/posf.jpg,stim_01/b.jpg,stim_01/a.jpg,1,1,f,1,21,81,6,f,1,1.13301023522,01,01,60.0191705389,PLT_learning_01,N,2014_Mrz_11_1905,P25,
stim_fb/ques.jpg,stim_fb/negf.jpg,stim_fb/posf.jpg,stim_01/a.jpg,stim_01/b.jpg,2,1,j,1,22,82,15,f,0,0.69983852814,01,01,60.0191705389,PLT_learning_01,N,2014_Mrz_11_1905,P25,
stim_fb/ques.jpg,stim_fb/posf.jpg,stim_fb/negf.jpg,stim_01/e.jpg,stim_01/f.jpg,2,3,j,1,23,83,59,j,1,1.23299589854,01,01,60.0191705389,PLT_learning_01,N,2014_Mrz_11_1905,P25,
stim_fb/ques.jpg,stim_fb/negf.jpg,stim_fb/posf.jpg,stim_01/e.jpg,stim_01/f.jpg,2,3,j,1,24,84,54,f,0,1.11634426679,01,01,60.0191705389,PLT_learning_01,N,2014_Mrz_11_1905,P25,
stim_fb/ques.jpg,stim_fb/posf.jpg,stim_fb/negf.jpg,stim_01/f.jpg,stim_01/e.jpg,1,3,f,1,25,85,49,f,1,1.09972637902,01,01,60.0191705389,PLT_learning_01,N,2014_Mrz_11_1905,P25,
stim_fb/ques.jpg,stim_fb/posf.jpg,stim_fb/negf.jpg,stim_01/e.jpg,stim_01/f.jpg,2,3,j,1,26,86,58,f,0,1.14971713552,01,01,60.0191705389,PLT_learning_01,N,2014_Mrz_11_1905,P25,
stim_fb/ques.jpg,stim_fb/negf.jpg,stim_fb/posf.jpg,stim_01/e.jpg,stim_01/f.jpg,2,3,j,1,27,87,55,j,1,0.933075193891,01,01,60.0191705389,PLT_learning_01,N,2014_Mrz_11_1905,P25,
stim_fb/ques.jpg,stim_fb/negf.jpg,stim_fb/posf.jpg,stim_01/c.jpg,stim_01/d.jpg,2,2,j,1,28,88,30,f,0,1.29965140844,01,01,60.0191705389,PLT_learning_01,N,2014_Mrz_11_1905,P25,
stim_fb/ques.jpg,stim_fb/negf.jpg,stim_fb/posf.jpg,stim_01/b.jpg,stim_01/a.jpg,1,1,f,1,29,89,0,j,0,1.64936618008,01,01,60.0191705389,PLT_learning_01,N,2014_Mrz_11_1905,P25,
stim_fb/ques.jpg,stim_fb/posf.jpg,stim_fb/negf.jpg,stim_01/e.jpg,stim_01/f.jpg,2,3,j,1,30,90,56,f,0,1.41624760021,01,01,60.0191705389,PLT_learning_01,N,2014_Mrz_11_1905,P25,
stim_fb/ques.jpg,stim_fb/posf.jpg,stim_fb/negf.jpg,stim_01/d.jpg,stim_01/c.jpg,1,2,f,1,31,91,28,j,0,1.31628886892,01,01,60.0191705389,PLT_learning_01,N,2014_Mrz_11_1905,P25,
stim_fb/ques.jpg,stim_fb/negf.jpg,stim_fb/posf.jpg,stim_01/a.jpg,stim_01/b.jpg,2,1,j,1,32,92,13,f,0,0.982990471537,01,01,60.0191705389,PLT_learning_01,N,2014_Mrz_11_1905,P25,
stim_fb/ques.jpg,stim_fb/negf.jpg,stim_fb/posf.jpg,stim_01/b.jpg,stim_01/a.jpg,1,1,f,1,33,93,2,j,0,1.21632112721,01,01,60.0191705389,PLT_learning_01,N,2014_Mrz_11_1905,P25,
stim_fb/ques.jpg,stim_fb/negf.jpg,stim_fb/posf.jpg,stim_01/f.jpg,stim_01/e.jpg,1,3,f,1,34,94,44,f,1,0.783116623497,01,01,60.0191705389,PLT_learning_01,N,2014_Mrz_11_1905,P25,
stim_fb/ques.jpg,stim_fb/negf.jpg,stim_fb/posf.jpg,stim_01/e.jpg,stim_01/f.jpg,2,3,j,1,35,95,53,j,1,0.699807770587,01,01,60.0191705389,PLT_learning_01,N,2014_Mrz_11_1905,P25,
stim_fb/ques.jpg,stim_fb/negf.jpg,stim_fb/posf.jpg,stim_01/f.jpg,stim_01/e.jpg,1,3,f,1,36,96,45,f,1,1.21630691684,01,01,60.0191705389,PLT_learning_01,N,2014_Mrz_11_1905,P25,
stim_fb/ques.jpg,stim_fb/negf.jpg,stim_fb/posf.jpg,stim_01/b.jpg,stim_01/a.jpg,1,1,f,1,37,97,1,j,0,1.09967802468,01,01,60.0191705389,PLT_learning_01,N,2014_Mrz_11_1905,P25,
stim_fb/ques.jpg,stim_fb/posf.jpg,stim_fb/negf.jpg,stim_01/f.jpg,stim_01/e.jpg,1,3,f,1,38,98,46,j,0,1.11634433897,01,01,60.0191705389,PLT_learning_01,N,2014_Mrz_11_1905,P25,
stim_fb/ques.jpg,stim_fb/negf.jpg,stim_fb/posf.jpg,stim_01/f.jpg,stim_01/e.jpg,1,3,f,1,39,99,43,j,0,0.79979605343,01,01,60.0191705389,PLT_learning_01,N,2014_Mrz_11_1905,P25,
stim_fb/ques.jpg,stim_fb/negf.jpg,stim_fb/posf.jpg,stim_01/b.jpg,stim_01/a.jpg,1,1,f,1,40,100,5,f,1,1.08302515686,01,01,60.0191705389,PLT_learning_01,N,2014_Mrz_11_1905,P25,
stim_fb/ques.jpg,stim_fb/negf.jpg,stim_fb/posf.jpg,stim_01/e.jpg,stim_01/f.jpg,2,3,j,1,41,101,52,j,1,1.51623384097,01,01,60.0191705389,PLT_learning_01,N,2014_Mrz_11_1905,P25,
stim_fb/ques.jpg,stim_fb/posf.jpg,stim_fb/negf.jpg,stim_01/c.jpg,stim_01/d.jpg,2,2,j,1,42,102,37,j,1,1.49950184622,01,01,60.0191705389,PLT_learning_01,N,2014_Mrz_11_1905,P25,
stim_fb/ques.jpg,stim_fb/negf.jpg,stim_fb/posf.jpg,stim_01/f.jpg,stim_01/e.jpg,1,3,f,1,43,103,40,f,1,1.23289221249,01,01,60.0191705389,PLT_learning_01,N,2014_Mrz_11_1905,P25,
stim_fb/ques.jpg,stim_fb/negf.jpg,stim_fb/posf.jpg,stim_01/a.jpg,stim_01/b.jpg,2,1,j,1,44,104,17,j,1,1.11635777341,01,01,60.0191705389,PLT_learning_01,N,2014_Mrz_11_1905,P25,
stim_fb/ques.jpg,stim_fb/negf.jpg,stim_fb/posf.jpg,stim_01/b.jpg,stim_01/a.jpg,1,1,f,1,45,105,3,f,1,0.833101398104,01,01,60.0191705389,PLT_learning_01,N,2014_Mrz_11_1905,P25,
stim_fb/ques.jpg,stim_fb/negf.jpg,stim_fb/posf.jpg,stim_01/d.jpg,stim_01/c.jpg,1,2,f,1,46,106,21,f,1,1.19964780548,01,01,60.0191705389,PLT_learning_01,N,2014_Mrz_11_1905,P25,
stim_fb/ques.jpg,stim_fb/negf.jpg,stim_fb/posf.jpg,stim_01/b.jpg,stim_01/a.jpg,1,1,f,1,47,107,4,f,1,1.2496421108,01,01,60.0191705389,PLT_learning_01,N,2014_Mrz_11_1905,P25,
stim_fb/ques.jpg,stim_fb/negf.jpg,stim_fb/posf.jpg,stim_01/f.jpg,stim_01/e.jpg,1,3,f,1,48,108,42,f,1,1.06633187145,01,01,60.0191705389,PLT_learning_01,N,2014_Mrz_11_1905,P25,
stim_fb/ques.jpg,stim_fb/negf.jpg,stim_fb/posf.jpg,stim_01/a.jpg,stim_01/b.jpg,2,1,j,1,49,109,11,j,1,1.14963465224,01,01,60.0191705389,PLT_learning_01,N,2014_Mrz_11_1905,P25,
stim_fb/ques.jpg,stim_fb/negf.jpg,stim_fb/posf.jpg,stim_01/a.jpg,stim_01/b.jpg,2,1,j,1,50,110,16,j,1,0.733117127253,01,01,60.0191705389,PLT_learning_01,N,2014_Mrz_11_1905,P25,
stim_fb/ques.jpg,stim_fb/negf.jpg,stim_fb/posf.jpg,stim_01/d.jpg,stim_01/c.jpg,1,2,f,1,51,111,24,f,1,1.11634096157,01,01,60.0191705389,PLT_learning_01,N,2014_Mrz_11_1905,P25,
stim_fb/ques.jpg,stim_fb/negf.jpg,stim_fb/posf.jpg,stim_01/e.jpg,stim_01/f.jpg,2,3,j,1,52,112,51,j,1,1.06634675549,01,01,60.0191705389,PLT_learning_01,N,2014_Mrz_11_1905,P25,
stim_fb/ques.jpg,stim_fb/negf.jpg,stim_fb/posf.jpg,stim_01/d.jpg,stim_01/c.jpg,1,2,f,1,53,113,20,f,1,0.866436210119,01,01,60.0191705389,PLT_learning_01,N,2014_Mrz_11_1905,P25,
stim_fb/ques.jpg,stim_fb/negf.jpg,stim_fb/posf.jpg,stim_01/a.jpg,stim_01/b.jpg,2,1,j,1,54,114,10,j,1,0.999708463441,01,01,60.0191705389,PLT_learning_01,N,2014_Mrz_11_1905,P25,
stim_fb/ques.jpg,stim_fb/posf.jpg,stim_fb/negf.jpg,stim_01/b.jpg,stim_01/a.jpg,1,1,f,1,55,115,9,f,1,0.899788279079,01,01,60.0191705389,PLT_learning_01,N,2014_Mrz_11_1905,P25,
stim_fb/ques.jpg,stim_fb/posf.jpg,stim_fb/negf.jpg,stim_01/c.jpg,stim_01/d.jpg,2,2,j,1,56,116,38,j,1,0.899756748608,01,01,60.0191705389,PLT_learning_01,N,2014_Mrz_11_1905,P25,
stim_fb/ques.jpg,stim_fb/negf.jpg,stim_fb/posf.jpg,stim_01/c.jpg,stim_01/d.jpg,2,2,j,1,57,117,31,f,0,0.933057170034,01,01,60.0191705389,PLT_learning_01,N,2014_Mrz_11_1905,P25,
stim_fb/ques.jpg,stim_fb/posf.jpg,stim_fb/negf.jpg,stim_01/b.jpg,stim_01/a.jpg,1,1,f,1,58,118,8,f,1,0.983060136918,01,01,60.0191705389,PLT_learning_01,N,2014_Mrz_11_1905,P25,
stim_fb/ques.jpg,stim_fb/posf.jpg,stim_fb/negf.jpg,stim_01/a.jpg,stim_01/b.jpg,2,1,j,1,59,119,19,j,1,0.716464963178,01,01,60.0191705389,PLT_learning_01,N,2014_Mrz_11_1905,P25,
stim_fb/ques.jpg,stim_fb/negf.jpg,stim_fb/posf.jpg,stim_01/d.jpg,stim_01/c.jpg,1,2,f,2,0,120,23,j,0,0.916422686962,01,01,60.0191705389,PLT_learning_01,N,2014_Mrz_11_1905,P25,
stim_fb/ques.jpg,stim_fb/negf.jpg,stim_fb/posf.jpg,stim_01/a.jpg,stim_01/b.jpg,2,1,j,2,1,121,14,j,1,1.01636284102,01,01,60.0191705389,PLT_learning_01,N,2014_Mrz_11_1905,P25,
stim_fb/ques.jpg,stim_fb/posf.jpg,stim_fb/negf.jpg,stim_01/e.jpg,stim_01/f.jpg,2,3,j,2,2,122,56,f,0,1.04973237144,01,01,60.0191705389,PLT_learning_01,N,2014_Mrz_11_1905,P25,
stim_fb/ques.jpg,stim_fb/posf.jpg,stim_fb/negf.jpg,stim_01/e.jpg,stim_01/f.jpg,2,3,j,2,3,123,59,j,1,0.699818693774,01,01,60.0191705389,PLT_learning_01,N,2014_Mrz_11_1905,P25,
stim_fb/ques.jpg,stim_fb/posf.jpg,stim_fb/negf.jpg,stim_01/f.jpg,stim_01/e.jpg,1,3,f,2,4,124,48,f,1,0.699824344836,01,01,60.0191705389,PLT_learning_01,N,2014_Mrz_11_1905,P25,
stim_fb/ques.jpg,stim_fb/negf.jpg,stim_fb/posf.jpg,stim_01/a.jpg,stim_01/b.jpg,2,1,j,2,5,125,17,j,1,0.983073625484,01,01,60.0191705389,PLT_learning_01,N,2014_Mrz_11_1905,P25,
stim_fb/ques.jpg,stim_fb/negf.jpg,stim_fb/posf.jpg,stim_01/e.jpg,stim_01/f.jpg,2,3,j,2,6,126,53,j,1,0.666494233523,01,01,60.0191705389,PLT_learning_01,N,2014_Mrz_11_1905,P25,
stim_fb/ques.jpg,stim_fb/negf.jpg,stim_fb/posf.jpg,stim_01/f.jpg,stim_01/e.jpg,1,3,f,2,7,127,45,f,1,0.966390264774,01,01,60.0191705389,PLT_learning_01,N,2014_Mrz_11_1905,P25,
stim_fb/ques.jpg,stim_fb/negf.jpg,stim_fb/posf.jpg,stim_01/f.jpg,stim_01/e.jpg,1,3,f,2,8,128,43,f,1,0.866443007035,01,01,60.0191705389,PLT_learning_01,N,2014_Mrz_11_1905,P25,
stim_fb/ques.jpg,stim_fb/posf.jpg,stim_fb/negf.jpg,stim_01/f.jpg,stim_01/e.jpg,1,3,f,2,9,129,47,f,1,0.566531439119,01,01,60.0191705389,PLT_learning_01,N,2014_Mrz_11_1905,P25,
stim_fb/ques.jpg,stim_fb/negf.jpg,stim_fb/posf.jpg,stim_01/c.jpg,stim_01/d.jpg,2,2,j,2,10,130,31,f,0,1.28310917697,01,01,60.0191705389,PLT_learning_01,N,2014_Mrz_11_1905,P25,
stim_fb/ques.jpg,stim_fb/posf.jpg,stim_fb/negf.jpg,stim_01/f.jpg,stim_01/e.jpg,1,3,f,2,11,131,46,j,0,1.26628595618,01,01,60.0191705389,PLT_learning_01,N,2014_Mrz_11_1905,P25,
stim_fb/ques.jpg,stim_fb/negf.jpg,stim_fb/posf.jpg,stim_01/c.jpg,stim_01/d.jpg,2,2,j,2,12,132,35,j,1,1.28298535881,01,01,60.0191705389,PLT_learning_01,N,2014_Mrz_11_1905,P25,
stim_fb/ques.jpg,stim_fb/negf.jpg,stim_fb/posf.jpg,stim_01/d.jpg,stim_01/c.jpg,1,2,f,2,13,133,20,f,1,0.949777492733,01,01,60.0191705389,PLT_learning_01,N,2014_Mrz_11_1905,P25,
stim_fb/ques.jpg,stim_fb/negf.jpg,stim_fb/posf.jpg,stim_01/b.jpg,stim_01/a.jpg,1,1,f,2,14,134,3,f,1,1.06637275219,01,01,60.0191705389,PLT_learning_01,N,2014_Mrz_11_1905,P25,
stim_fb/ques.jpg,stim_fb/negf.jpg,stim_fb/posf.jpg,stim_01/b.jpg,stim_01/a.jpg,1,1,f,2,15,135,1,f,1,0.916424010255,01,01,60.0191705389,PLT_learning_01,N,2014_Mrz_11_1905,P25,
stim_fb/ques.jpg,stim_fb/negf.jpg,stim_fb/posf.jpg,stim_01/a.jpg,stim_01/b.jpg,2,1,j,2,16,136,10,j,1,1.26627244355,01,01,60.0191705389,PLT_learning_01,N,2014_Mrz_11_1905,P25,
stim_fb/ques.jpg,stim_fb/negf.jpg,stim_fb/posf.jpg,stim_01/a.jpg,stim_01/b.jpg,2,1,j,2,17,137,16,j,1,0.766468110513,01,01,60.0191705389,PLT_learning_01,N,2014_Mrz_11_1905,P25,
stim_fb/ques.jpg,stim_fb/posf.jpg,stim_fb/negf.jpg,stim_01/b.jpg,stim_01/a.jpg,1,1,f,2,18,138,8,f,1,0.716471832275,01,01,60.0191705389,PLT_learning_01,N,2014_Mrz_11_1905,P25,
stim_fb/ques.jpg,stim_fb/posf.jpg,stim_fb/negf.jpg,stim_01/a.jpg,stim_01/b.jpg,2,1,j,2,19,139,19,f,0,0.799806832256,01,01,60.0191705389,PLT_learning_01,N,2014_Mrz_11_1905,P25,
stim_fb/ques.jpg,stim_fb/negf.jpg,stim_fb/posf.jpg,stim_01/e.jpg,stim_01/f.jpg,2,3,j,2,20,140,50,f,0,1.3162869321,01,01,60.0191705389,PLT_learning_01,N,2014_Mrz_11_1905,P25,
stim_fb/ques.jpg,stim_fb/negf.jpg,stim_fb/posf.jpg,stim_01/c.jpg,stim_01/d.jpg,2,2,j,2,21,141,30,j,1,1.14963102221,01,01,60.0191705389,PLT_learning_01,N,2014_Mrz_11_1905,P25,
stim_fb/ques.jpg,stim_fb/negf.jpg,stim_fb/posf.jpg,stim_01/a.jpg,stim_01/b.jpg,2,1,j,2,22,142,13,f,0,1.31625690237,01,01,60.0191705389,PLT_learning_01,N,2014_Mrz_11_1905,P25,
stim_fb/ques.jpg,stim_fb/negf.jpg,stim_fb/posf.jpg,stim_01/e.jpg,stim_01/f.jpg,2,3,j,2,23,143,52,f,0,0.966399858651,01,01,60.0191705389,PLT_learning_01,N,2014_Mrz_11_1905,P25,
stim_fb/ques.jpg,stim_fb/negf.jpg,stim_fb/posf.jpg,stim_01/b.jpg,stim_01/a.jpg,1,1,f,2,24,144,6,j,0,1.26630531836,01,01,60.0191705389,PLT_learning_01,N,2014_Mrz_11_1905,P25,
stim_fb/ques.jpg,stim_fb/posf.jpg,stim_fb/negf.jpg,stim_01/c.jpg,stim_01/d.jpg,2,2,j,2,25,145,39,j,1,0.999722054265,01,01,60.0191705389,PLT_learning_01,N,2014_Mrz_11_1905,P25,
stim_fb/ques.jpg,stim_fb/posf.jpg,stim_fb/negf.jpg,stim_01/d.jpg,stim_01/c.jpg,1,2,f,2,26,146,29,j,0,0.783106043164,01,01,60.0191705389,PLT_learning_01,N,2014_Mrz_11_1905,P25,
stim_fb/ques.jpg,stim_fb/negf.jpg,stim_fb/posf.jpg,stim_01/b.jpg,stim_01/a.jpg,1,1,f,2,27,147,7,f,1,0.916295879368,01,01,60.0191705389,PLT_learning_01,N,2014_Mrz_11_1905,P25,
stim_fb/ques.jpg,stim_fb/negf.jpg,stim_fb/posf.jpg,stim_01/f.jpg,stim_01/e.jpg,1,3,f,2,28,148,40,f,1,1.29961375774,01,01,60.0191705389,PLT_learning_01,N,2014_Mrz_11_1905,P25,
stim_fb/ques.jpg,stim_fb/posf.jpg,stim_fb/negf.jpg,stim_01/d.jpg,stim_01/c.jpg,1,2,f,2,29,149,27,j,0,1.24965104604,01,01,60.0191705389,PLT_learning_01,N,2014_Mrz_11_1905,P25,
stim_fb/ques.jpg,stim_fb/posf.jpg,stim_fb/negf.jpg,stim_01/d.jpg,stim_01/c.jpg,1,2,f,2,30,150,28,j,0,0.733153620069,01,01,60.0191705389,PLT_learning_01,N,2014_Mrz_11_1905,P25,
stim_fb/ques.jpg,stim_fb/negf.jpg,stim_fb/posf.jpg,stim_01/a.jpg,stim_01/b.jpg,2,1,j,2,31,151,12,j,1,0.933066607522,01,01,60.0191705389,PLT_learning_01,N,2014_Mrz_11_1905,P25,
stim_fb/ques.jpg,stim_fb/negf.jpg,stim_fb/posf.jpg,stim_01/a.jpg,stim_01/b.jpg,2,1,j,2,32,152,15,j,1,0.683217677994,01,01,60.0191705389,PLT_learning_01,N,2014_Mrz_11_1905,P25,
stim_fb/ques.jpg,stim_fb/negf.jpg,stim_fb/posf.jpg,stim_01/d.jpg,stim_01/c.jpg,1,2,f,2,33,153,26,j,0,0.699823081693,01,01,60.0191705389,PLT_learning_01,N,2014_Mrz_11_1905,P25,
stim_fb/ques.jpg,stim_fb/posf.jpg,stim_fb/negf.jpg,stim_01/e.jpg,stim_01/f.jpg,2,3,j,2,34,154,57,f,0,1.29959732484,01,01,60.0191705389,PLT_learning_01,N,2014_Mrz_11_1905,P25,
stim_fb/ques.jpg,stim_fb/negf.jpg,stim_fb/posf.jpg,stim_01/d.jpg,stim_01/c.jpg,1,2,f,2,35,155,25,j,0,1.0330437777,01,01,60.0191705389,PLT_learning_01,N,2014_Mrz_11_1905,P25,
stim_fb/ques.jpg,stim_fb/negf.jpg,stim_fb/posf.jpg,stim_01/a.jpg,stim_01/b.jpg,2,1,j,2,36,156,11,f,0,0.899754760663,01,01,60.0191705389,PLT_learning_01,N,2014_Mrz_11_1905,P25,
stim_fb/ques.jpg,stim_fb/posf.jpg,stim_fb/negf.jpg,stim_01/c.jpg,stim_01/d.jpg,2,2,j,2,37,157,38,j,1,0.899836483048,01,01,60.0191705389,PLT_learning_01,N,2014_Mrz_11_1905,P25,
stim_fb/ques.jpg,stim_fb/posf.jpg,stim_fb/negf.jpg,stim_01/a.jpg,stim_01/b.jpg,2,1,j,2,38,158,18,f,0,0.799772378508,01,01,60.0191705389,PLT_learning_01,N,2014_Mrz_11_1905,P25,
stim_fb/ques.jpg,stim_fb/posf.jpg,stim_fb/negf.jpg,stim_01/b.jpg,stim_01/a.jpg,1,1,f,2,39,159,9,j,0,0.616518487386,01,01,60.0191705389,PLT_learning_01,N,2014_Mrz_11_1905,P25,
stim_fb/ques.jpg,stim_fb/negf.jpg,stim_fb/posf.jpg,stim_01/e.jpg,stim_01/f.jpg,2,3,j,2,40,160,51,j,1,1.08301604719,01,01,60.0191705389,PLT_learning_01,N,2014_Mrz_11_1905,P25,
stim_fb/ques.jpg,stim_fb/negf.jpg,stim_fb/posf.jpg,stim_01/f.jpg,stim_01/e.jpg,1,3,f,2,41,161,41,f,1,0.783126695565,01,01,60.0191705389,PLT_learning_01,N,2014_Mrz_11_1905,P25,
stim_fb/ques.jpg,stim_fb/negf.jpg,stim_fb/posf.jpg,stim_01/c.jpg,stim_01/d.jpg,2,2,j,2,42,162,34,j,1,0.983075306671,01,01,60.0191705389,PLT_learning_01,N,2014_Mrz_11_1905,P25,
stim_fb/ques.jpg,stim_fb/negf.jpg,stim_fb/posf.jpg,stim_01/b.jpg,stim_01/a.jpg,1,1,f,2,43,163,2,j,0,0.899783900182,01,01,60.0191705389,PLT_learning_01,N,2014_Mrz_11_1905,P25,
stim_fb/ques.jpg,stim_fb/posf.jpg,stim_fb/negf.jpg,stim_01/e.jpg,stim_01/f.jpg,2,3,j,2,44,164,58,j,1,1.06635650876,01,01,60.0191705389,PLT_learning_01,N,2014_Mrz_11_1905,P25,
stim_fb/ques.jpg,stim_fb/negf.jpg,stim_fb/posf.jpg,stim_01/f.jpg,stim_01/e.jpg,1,3,f,2,45,165,44,f,1,0.849767937958,01,01,60.0191705389,PLT_learning_01,N,2014_Mrz_11_1905,P25,
stim_fb/ques.jpg,stim_fb/negf.jpg,stim_fb/posf.jpg,stim_01/c.jpg,stim_01/d.jpg,2,2,j,2,46,166,32,j,1,1.24962843577,01,01,60.0191705389,PLT_learning_01,N,2014_Mrz_11_1905,P25,
stim_fb/ques.jpg,stim_fb/negf.jpg,stim_fb/posf.jpg,stim_01/e.jpg,stim_01/f.jpg,2,3,j,2,47,167,55,j,1,0.849803982663,01,01,60.0191705389,PLT_learning_01,N,2014_Mrz_11_1905,P25,
stim_fb/ques.jpg,stim_fb/negf.jpg,stim_fb/posf.jpg,stim_01/d.jpg,stim_01/c.jpg,1,2,f,2,48,168,24,f,1,1.11633977361,01,01,60.0191705389,PLT_learning_01,N,2014_Mrz_11_1905,P25,
stim_fb/ques.jpg,stim_fb/negf.jpg,stim_fb/posf.jpg,stim_01/b.jpg,stim_01/a.jpg,1,1,f,2,49,169,5,f,1,1.11636334327,01,01,60.0191705389,PLT_learning_01,N,2014_Mrz_11_1905,P25,
stim_fb/ques.jpg,stim_fb/negf.jpg,stim_fb/posf.jpg,stim_01/e.jpg,stim_01/f.jpg,2,3,j,2,50,170,54,j,1,0.749810481837,01,01,60.0191705389,PLT_learning_01,N,2014_Mrz_11_1905,P25,
stim_fb/ques.jpg,stim_fb/negf.jpg,stim_fb/posf.jpg,stim_01/c.jpg,stim_01/d.jpg,2,2,j,2,51,171,36,j,1,1.03303920031,01,01,60.0191705389,PLT_learning_01,N,2014_Mrz_11_1905,P25,
stim_fb/ques.jpg,stim_fb/posf.jpg,stim_fb/negf.jpg,stim_01/c.jpg,stim_01/d.jpg,2,2,j,2,52,172,37,j,1,0.733141969078,01,01,60.0191705389,PLT_learning_01,N,2014_Mrz_11_1905,P25,
stim_fb/ques.jpg,stim_fb/negf.jpg,stim_fb/posf.jpg,stim_01/c.jpg,stim_01/d.jpg,2,2,j,2,53,173,33,f,0,0.949737306724,01,01,60.0191705389,PLT_learning_01,N,2014_Mrz_11_1905,P25,
stim_fb/ques.jpg,stim_fb/negf.jpg,stim_fb/posf.jpg,stim_01/f.jpg,stim_01/e.jpg,1,3,f,2,54,174,42,j,0,0.866442192008,01,01,60.0191705389,PLT_learning_01,N,2014_Mrz_11_1905,P25,
stim_fb/ques.jpg,stim_fb/posf.jpg,stim_fb/negf.jpg,stim_01/f.jpg,stim_01/e.jpg,1,3,f,2,55,175,49,f,1,0.966405085659,01,01,60.0191705389,PLT_learning_01,N,2014_Mrz_11_1905,P25,
stim_fb/ques.jpg,stim_fb/negf.jpg,stim_fb/posf.jpg,stim_01/b.jpg,stim_01/a.jpg,1,1,f,2,56,176,4,j,0,1.44963535299,01,01,60.0191705389,PLT_learning_01,N,2014_Mrz_11_1905,P25,
stim_fb/ques.jpg,stim_fb/negf.jpg,stim_fb/posf.jpg,stim_01/d.jpg,stim_01/c.jpg,1,2,f,2,57,177,22,f,1,1.29962429897,01,01,60.0191705389,PLT_learning_01,N,2014_Mrz_11_1905,P25,
stim_fb/ques.jpg,stim_fb/negf.jpg,stim_fb/posf.jpg,stim_01/d.jpg,stim_01/c.jpg,1,2,f,2,58,178,21,f,1,0.599860903825,01,01,60.0191705389,PLT_learning_01,N,2014_Mrz_11_1905,P25,
stim_fb/ques.jpg,stim_fb/negf.jpg,stim_fb/posf.jpg,stim_01/b.jpg,stim_01/a.jpg,1,1,f,2,59,179,0,f,1,1.2495908783,01,01,60.0191705389,PLT_learning_01,N,2014_Mrz_11_1905,P25,
stim_fb/ques.jpg,stim_fb/posf.jpg,stim_fb/negf.jpg,stim_01/d.jpg,stim_01/c.jpg,1,2,f,3,0,180,29,f,1,0.849783537778,01,01,60.0191705389,PLT_learning_01,N,2014_Mrz_11_1905,P25,
stim_fb/ques.jpg,stim_fb/posf.jpg,stim_fb/negf.jpg,stim_01/f.jpg,stim_01/e.jpg,1,3,f,3,1,181,47,f,1,1.03304511002,01,01,60.0191705389,PLT_learning_01,N,2014_Mrz_11_1905,P25,
stim_fb/ques.jpg,stim_fb/negf.jpg,stim_fb/posf.jpg,stim_01/b.jpg,stim_01/a.jpg,1,1,f,3,2,182,0,f,1,0.999717254319,01,01,60.0191705389,PLT_learning_01,N,2014_Mrz_11_1905,P25,
stim_fb/ques.jpg,stim_fb/negf.jpg,stim_fb/posf.jpg,stim_01/c.jpg,stim_01/d.jpg,2,2,j,3,3,183,32,j,1,1.06633572704,01,01,60.0191705389,PLT_learning_01,N,2014_Mrz_11_1905,P25,
stim_fb/ques.jpg,stim_fb/negf.jpg,stim_fb/posf.jpg,stim_01/d.jpg,stim_01/c.jpg,1,2,f,3,4,184,25,f,1,0.583186661806,01,01,60.0191705389,PLT_learning_01,N,2014_Mrz_11_1905,P25,
stim_fb/ques.jpg,stim_fb/negf.jpg,stim_fb/posf.jpg,stim_01/a.jpg,stim_01/b.jpg,2,1,j,3,5,185,12,j,1,1.29962695158,01,01,60.0191705389,PLT_learning_01,N,2014_Mrz_11_1905,P25,
stim_fb/ques.jpg,stim_fb/posf.jpg,stim_fb/negf.jpg,stim_01/e.jpg,stim_01/f.jpg,2,3,j,3,6,186,57,j,1,1.36629165836,01,01,60.0191705389,PLT_learning_01,N,2014_Mrz_11_1905,P25,
stim_fb/ques.jpg,stim_fb/negf.jpg,stim_fb/posf.jpg,stim_01/f.jpg,stim_01/e.jpg,1,3,f,3,7,187,45,j,0,0.966355356897,01,01,60.0191705389,PLT_learning_01,N,2014_Mrz_11_1905,P25,
stim_fb/ques.jpg,stim_fb/negf.jpg,stim_fb/posf.jpg,stim_01/f.jpg,stim_01/e.jpg,1,3,f,3,8,188,42,f,1,0.566490386951,01,01,60.0191705389,PLT_learning_01,N,2014_Mrz_11_1905,P25,
stim_fb/ques.jpg,stim_fb/negf.jpg,stim_fb/posf.jpg,stim_01/c.jpg,stim_01/d.jpg,2,2,j,3,9,189,33,j,1,1.31626345267,01,01,60.0191705389,PLT_learning_01,N,2014_Mrz_11_1905,P25,
stim_fb/ques.jpg,stim_fb/negf.jpg,stim_fb/posf.jpg,stim_01/c.jpg,stim_01/d.jpg,2,2,j,3,10,190,35,j,1,0.749805444299,01,01,60.0191705389,PLT_learning_01,N,2014_Mrz_11_1905,P25,
stim_fb/ques.jpg,stim_fb/negf.jpg,stim_fb/posf.jpg,stim_01/a.jpg,stim_01/b.jpg,2,1,j,3,11,191,14,j,1,1.28300435409,01,01,60.0191705389,PLT_learning_01,N,2014_Mrz_11_1905,P25,
stim_fb/ques.jpg,stim_fb/negf.jpg,stim_fb/posf.jpg,stim_01/b.jpg,stim_01/a.jpg,1,1,f,3,12,192,6,f,1,0.966392628656,01,01,60.0191705389,PLT_learning_01,N,2014_Mrz_11_1905,P25,
stim_fb/ques.jpg,stim_fb/negf.jpg,stim_fb/posf.jpg,stim_01/c.jpg,stim_01/d.jpg,2,2,j,3,13,193,30,j,1,1.24963706725,01,01,60.0191705389,PLT_learning_01,N,2014_Mrz_11_1905,P25,
stim_fb/ques.jpg,stim_fb/negf.jpg,stim_fb/posf.jpg,stim_01/d.jpg,stim_01/c.jpg,1,2,f,3,14,194,23,f,1,0.599842392756,01,01,60.0191705389,PLT_learning_01,N,2014_Mrz_11_1905,P25,
stim_fb/ques.jpg,stim_fb/negf.jpg,stim_fb/posf.jpg,stim_01/f.jpg,stim_01/e.jpg,1,3,f,3,15,195,43,j,0,1.21631656485,01,01,60.0191705389,PLT_learning_01,N,2014_Mrz_11_1905,P25,
stim_fb/ques.jpg,stim_fb/negf.jpg,stim_fb/posf.jpg,stim_01/d.jpg,stim_01/c.jpg,1,2,f,3,16,196,20,f,1,0.949730942884,01,01,60.0191705389,PLT_learning_01,N,2014_Mrz_11_1905,P25,
stim_fb/ques.jpg,stim_fb/negf.jpg,stim_fb/posf.jpg,stim_01/b.jpg,stim_01/a.jpg,1,1,f,3,17,197,3,f,1,1.09966483085,01,01,60.0191705389,PLT_learning_01,N,2014_Mrz_11_1905,P25,
stim_fb/ques.jpg,stim_fb/negf.jpg,stim_fb/posf.jpg,stim_01/a.jpg,stim_01/b.jpg,2,1,j,3,18,198,15,j,1,0.816451447539,01,01,60.0191705389,PLT_learning_01,N,2014_Mrz_11_1905,P25,
stim_fb/ques.jpg,stim_fb/negf.jpg,stim_fb/posf.jpg,stim_01/e.jpg,stim_01/f.jpg,2,3,j,3,19,199,51,f,0,1.08300396612,01,01,60.0191705389,PLT_learning_01,N,2014_Mrz_11_1905,P25,
stim_fb/ques.jpg,stim_fb/posf.jpg,stim_fb/negf.jpg,stim_01/a.jpg,stim_01/b.jpg,2,1,j,3,20,200,18,j,1,0.983081429909,01,01,60.0191705389,PLT_learning_01,N,2014_Mrz_11_1905,P25,
stim_fb/ques.jpg,stim_fb/negf.jpg,stim_fb/posf.jpg,stim_01/b.jpg,stim_01/a.jpg,1,1,f,3,21,201,4,f,1,0.683185561065,01,01,60.0191705389,PLT_learning_01,N,2014_Mrz_11_1905,P25,
stim_fb/ques.jpg,stim_fb/posf.jpg,stim_fb/negf.jpg,stim_01/c.jpg,stim_01/d.jpg,2,2,j,3,22,202,38,j,1,1.34960731421,01,01,60.0191705389,PLT_learning_01,N,2014_Mrz_11_1905,P25,
stim_fb/ques.jpg,stim_fb/negf.jpg,stim_fb/posf.jpg,stim_01/b.jpg,stim_01/a.jpg,1,1,f,3,23,203,7,f,1,1.23306204516,01,01,60.0191705389,PLT_learning_01,N,2014_Mrz_11_1905,P25,
stim_fb/ques.jpg,stim_fb/negf.jpg,stim_fb/posf.jpg,stim_01/f.jpg,stim_01/e.jpg,1,3,f,3,24,204,40,j,0,1.24921726146,01,01,60.0191705389,PLT_learning_01,N,2014_Mrz_11_1905,P25,
stim_fb/ques.jpg,stim_fb/posf.jpg,stim_fb/negf.jpg,stim_01/f.jpg,stim_01/e.jpg,1,3,f,3,25,205,49,f,1,0.882955545614,01,01,60.0191705389,PLT_learning_01,N,2014_Mrz_11_1905,P25,
stim_fb/ques.jpg,stim_fb/negf.jpg,stim_fb/posf.jpg,stim_01/d.jpg,stim_01/c.jpg,1,2,f,3,26,206,24,f,1,1.08297870024,01,01,60.0191705389,PLT_learning_01,N,2014_Mrz_11_1905,P25,
stim_fb/ques.jpg,stim_fb/posf.jpg,stim_fb/negf.jpg,stim_01/c.jpg,stim_01/d.jpg,2,2,j,3,27,207,37,j,1,0.599901498856,01,01,60.0191705389,PLT_learning_01,N,2014_Mrz_11_1905,P25,
stim_fb/ques.jpg,stim_fb/posf.jpg,stim_fb/negf.jpg,stim_01/b.jpg,stim_01/a.jpg,1,1,f,3,28,208,8,f,1,0.916423877923,01,01,60.0191705389,PLT_learning_01,N,2014_Mrz_11_1905,P25,
stim_fb/ques.jpg,stim_fb/negf.jpg,stim_fb/posf.jpg,stim_01/b.jpg,stim_01/a.jpg,1,1,f,3,29,209,1,j,0,0.749786232489,01,01,60.0191705389,PLT_learning_01,N,2014_Mrz_11_1905,P25,
stim_fb/ques.jpg,stim_fb/negf.jpg,stim_fb/posf.jpg,stim_01/c.jpg,stim_01/d.jpg,2,2,j,3,30,210,36,j,1,0.816437543937,01,01,60.0191705389,PLT_learning_01,N,2014_Mrz_11_1905,P25,
stim_fb/ques.jpg,stim_fb/posf.jpg,stim_fb/negf.jpg,stim_01/d.jpg,stim_01/c.jpg,1,2,f,3,31,211,27,f,1,0.533149340423,01,01,60.0191705389,PLT_learning_01,N,2014_Mrz_11_1905,P25,
stim_fb/ques.jpg,stim_fb/posf.jpg,stim_fb/negf.jpg,stim_01/c.jpg,stim_01/d.jpg,2,2,j,3,32,212,39,j,1,1.11635159303,01,01,60.0191705389,PLT_learning_01,N,2014_Mrz_11_1905,P25,
stim_fb/ques.jpg,stim_fb/negf.jpg,stim_fb/posf.jpg,stim_01/d.jpg,stim_01/c.jpg,1,2,f,3,33,213,26,j,0,0.649855296368,01,01,60.0191705389,PLT_learning_01,N,2014_Mrz_11_1905,P25,
stim_fb/ques.jpg,stim_fb/negf.jpg,stim_fb/posf.jpg,stim_01/c.jpg,stim_01/d.jpg,2,2,j,3,34,214,31,j,1,0.933070306724,01,01,60.0191705389,PLT_learning_01,N,2014_Mrz_11_1905,P25,
stim_fb/ques.jpg,stim_fb/negf.jpg,stim_fb/posf.jpg,stim_01/f.jpg,stim_01/e.jpg,1,3,f,3,35,215,41,f,1,1.08301527426,01,01,60.0191705389,PLT_learning_01,N,2014_Mrz_11_1905,P25,
stim_fb/ques.jpg,stim_fb/negf.jpg,stim_fb/posf.jpg,stim_01/b.jpg,stim_01/a.jpg,1,1,f,3,36,216,5,f,1,1.09972409334,01,01,60.0191705389,PLT_learning_01,N,2014_Mrz_11_1905,P25,
stim_fb/ques.jpg,stim_fb/negf.jpg,stim_fb/posf.jpg,stim_01/c.jpg,stim_01/d.jpg,2,2,j,3,37,217,34,j,1,1.06632937523,01,01,60.0191705389,PLT_learning_01,N,2014_Mrz_11_1905,P25,
stim_fb/ques.jpg,stim_fb/negf.jpg,stim_fb/posf.jpg,stim_01/d.jpg,stim_01/c.jpg,1,2,f,3,38,218,22,f,1,0.683149678764,01,01,60.0191705389,PLT_learning_01,N,2014_Mrz_11_1905,P25,
stim_fb/ques.jpg,stim_fb/posf.jpg,stim_fb/negf.jpg,stim_01/d.jpg,stim_01/c.jpg,1,2,f,3,39,219,28,f,1,0.549882291554,01,01,60.0191705389,PLT_learning_01,N,2014_Mrz_11_1905,P25,
stim_fb/ques.jpg,stim_fb/posf.jpg,stim_fb/negf.jpg,stim_01/f.jpg,stim_01/e.jpg,1,3,f,3,40,220,46,j,0,1.0497266903,01,01,60.0191705389,PLT_learning_01,N,2014_Mrz_11_1905,P25,
stim_fb/ques.jpg,stim_fb/posf.jpg,stim_fb/negf.jpg,stim_01/b.jpg,stim_01/a.jpg,1,1,f,3,41,221,9,f,1,0.766473746538,01,01,60.0191705389,PLT_learning_01,N,2014_Mrz_11_1905,P25,
stim_fb/ques.jpg,stim_fb/posf.jpg,stim_fb/negf.jpg,stim_01/e.jpg,stim_01/f.jpg,2,3,j,3,42,222,59,j,1,0.949759489929,01,01,60.0191705389,PLT_learning_01,N,2014_Mrz_11_1905,P25,
stim_fb/ques.jpg,stim_fb/negf.jpg,stim_fb/posf.jpg,stim_01/a.jpg,stim_01/b.jpg,2,1,j,3,43,223,17,j,1,0.916453567817,01,01,60.0191705389,PLT_learning_01,N,2014_Mrz_11_1905,P25,
stim_fb/ques.jpg,stim_fb/negf.jpg,stim_fb/posf.jpg,stim_01/e.jpg,stim_01/f.jpg,2,3,j,3,44,224,54,j,1,0.783120833978,01,01,60.0191705389,PLT_learning_01,N,2014_Mrz_11_1905,P25,
stim_fb/ques.jpg,stim_fb/negf.jpg,stim_fb/posf.jpg,stim_01/a.jpg,stim_01/b.jpg,2,1,j,3,45,225,11,j,1,1.09969909512,01,01,60.0191705389,PLT_learning_01,N,2014_Mrz_11_1905,P25,
stim_fb/ques.jpg,stim_fb/negf.jpg,stim_fb/posf.jpg,stim_01/e.jpg,stim_01/f.jpg,2,3,j,3,46,226,53,j,1,0.683152334372,01,01,60.0191705389,PLT_learning_01,N,2014_Mrz_11_1905,P25,
stim_fb/ques.jpg,stim_fb/posf.jpg,stim_fb/negf.jpg,stim_01/e.jpg,stim_01/f.jpg,2,3,j,3,47,227,58,j,1,0.58321358481,01,01,60.0191705389,PLT_learning_01,N,2014_Mrz_11_1905,P25,
stim_fb/ques.jpg,stim_fb/negf.jpg,stim_fb/posf.jpg,stim_01/e.jpg,stim_01/f.jpg,2,3,j,3,48,228,52,j,1,1.11635342158,01,01,60.0191705389,PLT_learning_01,N,2014_Mrz_11_1905,P25,
stim_fb/ques.jpg,stim_fb/negf.jpg,stim_fb/posf.jpg,stim_01/d.jpg,stim_01/c.jpg,1,2,f,3,49,229,21,j,0,1.34963272143,01,01,60.0191705389,PLT_learning_01,N,2014_Mrz_11_1905,P25,
stim_fb/ques.jpg,stim_fb/negf.jpg,stim_fb/posf.jpg,stim_01/a.jpg,stim_01/b.jpg,2,1,j,3,50,230,13,j,1,0.816447312249,01,01,60.0191705389,PLT_learning_01,N,2014_Mrz_11_1905,P25,
stim_fb/ques.jpg,stim_fb/negf.jpg,stim_fb/posf.jpg,stim_01/a.jpg,stim_01/b.jpg,2,1,j,3,51,231,10,f,0,0.633176795749,01,01,60.0191705389,PLT_learning_01,N,2014_Mrz_11_1905,P25,
stim_fb/ques.jpg,stim_fb/negf.jpg,stim_fb/posf.jpg,stim_01/b.jpg,stim_01/a.jpg,1,1,f,3,52,232,2,f,1,1.01636785149,01,01,60.0191705389,PLT_learning_01,N,2014_Mrz_11_1905,P25,
stim_fb/ques.jpg,stim_fb/negf.jpg,stim_fb/posf.jpg,stim_01/e.jpg,stim_01/f.jpg,2,3,j,3,53,233,50,j,1,1.21631424608,01,01,60.0191705389,PLT_learning_01,N,2014_Mrz_11_1905,P25,
stim_fb/ques.jpg,stim_fb/posf.jpg,stim_fb/negf.jpg,stim_01/e.jpg,stim_01/f.jpg,2,3,j,3,54,234,56,j,1,0.683186457296,01,01,60.0191705389,PLT_learning_01,N,2014_Mrz_11_1905,P25,
stim_fb/ques.jpg,stim_fb/negf.jpg,stim_fb/posf.jpg,stim_01/a.jpg,stim_01/b.jpg,2,1,j,3,55,235,16,j,1,0.866434222171,01,01,60.0191705389,PLT_learning_01,N,2014_Mrz_11_1905,P25,
stim_fb/ques.jpg,stim_fb/posf.jpg,stim_fb/negf.jpg,stim_01/a.jpg,stim_01/b.jpg,2,1,j,3,56,236,19,f,0,0.633174164199,01,01,60.0191705389,PLT_learning_01,N,2014_Mrz_11_1905,P25,
stim_fb/ques.jpg,stim_fb/posf.jpg,stim_fb/negf.jpg,stim_01/f.jpg,stim_01/e.jpg,1,3,f,3,57,237,48,f,1,0.949724305367,01,01,60.0191705389,PLT_learning_01,N,2014_Mrz_11_1905,P25,
stim_fb/ques.jpg,stim_fb/negf.jpg,stim_fb/posf.jpg,stim_01/f.jpg,stim_01/e.jpg,1,3,f,3,58,238,44,f,1,0.599826798949,01,01,60.0191705389,PLT_learning_01,N,2014_Mrz_11_1905,P25,
stim_fb/ques.jpg,stim_fb/negf.jpg,stim_fb/posf.jpg,stim_01/e.jpg,stim_01/f.jpg,2,3,j,3,59,239,55,f,0,0.716347214129,01,01,60.0191705389,PLT_learning_01,N,2014_Mrz_11_1905,P25,
stim_fb/ques.jpg,stim_fb/negf.jpg,stim_fb/posf.jpg,stim_01/c.jpg,stim_01/d.jpg,2,2,j,4,0,240,35,j,1,0.849717421232,01,01,60.0191705389,PLT_learning_01,N,2014_Mrz_11_1905,P25,
stim_fb/ques.jpg,stim_fb/posf.jpg,stim_fb/negf.jpg,stim_01/b.jpg,stim_01/a.jpg,1,1,f,4,1,241,9,f,1,0.89974801788,01,01,60.0191705389,PLT_learning_01,N,2014_Mrz_11_1905,P25,
stim_fb/ques.jpg,stim_fb/posf.jpg,stim_fb/negf.jpg,stim_01/f.jpg,stim_01/e.jpg,1,3,f,4,2,242,48,f,1,0.933054938479,01,01,60.0191705389,PLT_learning_01,N,2014_Mrz_11_1905,P25,
stim_fb/ques.jpg,stim_fb/posf.jpg,stim_fb/negf.jpg,stim_01/a.jpg,stim_01/b.jpg,2,1,j,4,3,243,18,f,0,0.933085521592,01,01,60.0191705389,PLT_learning_01,N,2014_Mrz_11_1905,P25,
stim_fb/ques.jpg,stim_fb/posf.jpg,stim_fb/negf.jpg,stim_01/f.jpg,stim_01/e.jpg,1,3,f,4,4,244,49,f,1,0.89975642681,01,01,60.0191705389,PLT_learning_01,N,2014_Mrz_11_1905,P25,
stim_fb/ques.jpg,stim_fb/negf.jpg,stim_fb/posf.jpg,stim_01/f.jpg,stim_01/e.jpg,1,3,f,4,5,245,44,f,1,1.36627691267,01,01,60.0191705389,PLT_learning_01,N,2014_Mrz_11_1905,P25,
stim_fb/ques.jpg,stim_fb/negf.jpg,stim_fb/posf.jpg,stim_01/b.jpg,stim_01/a.jpg,1,1,f,4,6,246,7,j,0,0.983042356664,01,01,60.0191705389,PLT_learning_01,N,2014_Mrz_11_1905,P25,
stim_fb/ques.jpg,stim_fb/negf.jpg,stim_fb/posf.jpg,stim_01/c.jpg,stim_01/d.jpg,2,2,j,4,7,247,30,j,1,0.949731547389,01,01,60.0191705389,PLT_learning_01,N,2014_Mrz_11_1905,P25,
stim_fb/ques.jpg,stim_fb/negf.jpg,stim_fb/posf.jpg,stim_01/b.jpg,stim_01/a.jpg,1,1,f,4,8,248,5,f,1,1.04974256982,01,01,60.0191705389,PLT_learning_01,N,2014_Mrz_11_1905,P25,
stim_fb/ques.jpg,stim_fb/negf.jpg,stim_fb/posf.jpg,stim_01/e.jpg,stim_01/f.jpg,2,3,j,4,9,249,53,j,1,0.716509904025,01,01,60.0191705389,PLT_learning_01,N,2014_Mrz_11_1905,P25,
stim_fb/ques.jpg,stim_fb/negf.jpg,stim_fb/posf.jpg,stim_01/d.jpg,stim_01/c.jpg,1,2,f,4,10,250,23,f,1,0.766469866881,01,01,60.0191705389,PLT_learning_01,N,2014_Mrz_11_1905,P25,
stim_fb/ques.jpg,stim_fb/negf.jpg,stim_fb/posf.jpg,stim_01/f.jpg,stim_01/e.jpg,1,3,f,4,11,251,42,f,1,0.833125412872,01,01,60.0191705389,PLT_learning_01,N,2014_Mrz_11_1905,P25,
stim_fb/ques.jpg,stim_fb/negf.jpg,stim_fb/posf.jpg,stim_01/e.jpg,stim_01/f.jpg,2,3,j,4,12,252,51,j,1,0.749821495247,01,01,60.0191705389,PLT_learning_01,N,2014_Mrz_11_1905,P25,
stim_fb/ques.jpg,stim_fb/negf.jpg,stim_fb/posf.jpg,stim_01/e.jpg,stim_01/f.jpg,2,3,j,4,13,253,55,j,1,0.88309766732,01,01,60.0191705389,PLT_learning_01,N,2014_Mrz_11_1905,P25,
stim_fb/ques.jpg,stim_fb/posf.jpg,stim_fb/negf.jpg,stim_01/b.jpg,stim_01/a.jpg,1,1,f,4,14,254,8,j,0,1.14966438424,01,01,60.0191705389,PLT_learning_01,N,2014_Mrz_11_1905,P25,
stim_fb/ques.jpg,stim_fb/posf.jpg,stim_fb/negf.jpg,stim_01/e.jpg,stim_01/f.jpg,2,3,j,4,15,255,58,j,1,1.13299633162,01,01,60.0191705389,PLT_learning_01,N,2014_Mrz_11_1905,P25,
stim_fb/ques.jpg,stim_fb/posf.jpg,stim_fb/negf.jpg,stim_01/f.jpg,stim_01/e.jpg,1,3,f,4,16,256,47,j,0,0.883091841821,01,01,60.0191705389,PLT_learning_01,N,2014_Mrz_11_1905,P25,
stim_fb/ques.jpg,stim_fb/posf.jpg,stim_fb/negf.jpg,stim_01/e.jpg,stim_01/f.jpg,2,3,j,4,17,257,57,f,0,0.649835022912,01,01,60.0191705389,PLT_learning_01,N,2014_Mrz_11_1905,P25,
stim_fb/ques.jpg,stim_fb/negf.jpg,stim_fb/posf.jpg,stim_01/d.jpg,stim_01/c.jpg,1,2,f,4,18,258,24,f,1,1.01637732507,01,01,60.0191705389,PLT_learning_01,N,2014_Mrz_11_1905,P25,
stim_fb/ques.jpg,stim_fb/negf.jpg,stim_fb/posf.jpg,stim_01/a.jpg,stim_01/b.jpg,2,1,j,4,19,259,11,f,0,0.866495385391,01,01,60.0191705389,PLT_learning_01,N,2014_Mrz_11_1905,P25,
stim_fb/ques.jpg,stim_fb/posf.jpg,stim_fb/negf.jpg,stim_01/d.jpg,stim_01/c.jpg,1,2,f,4,20,260,28,f,1,0.716487838105,01,01,60.0191705389,PLT_learning_01,N,2014_Mrz_11_1905,P25,
stim_fb/ques.jpg,stim_fb/posf.jpg,stim_fb/negf.jpg,stim_01/c.jpg,stim_01/d.jpg,2,2,j,4,21,261,39,j,1,0.666528693284,01,01,60.0191705389,PLT_learning_01,N,2014_Mrz_11_1905,P25,
stim_fb/ques.jpg,stim_fb/negf.jpg,stim_fb/posf.jpg,stim_01/e.jpg,stim_01/f.jpg,2,3,j,4,22,262,52,j,1,0.983016615603,01,01,60.0191705389,PLT_learning_01,N,2014_Mrz_11_1905,P25,
stim_fb/ques.jpg,stim_fb/negf.jpg,stim_fb/posf.jpg,stim_01/f.jpg,stim_01/e.jpg,1,3,f,4,23,263,41,f,1,0.666699569552,01,01,60.0191705389,PLT_learning_01,N,2014_Mrz_11_1905,P25,
stim_fb/ques.jpg,stim_fb/negf.jpg,stim_fb/posf.jpg,stim_01/b.jpg,stim_01/a.jpg,1,1,f,4,24,264,4,f,1,1.11633851348,01,01,60.0191705389,PLT_learning_01,N,2014_Mrz_11_1905,P25,
stim_fb/ques.jpg,stim_fb/negf.jpg,stim_fb/posf.jpg,stim_01/c.jpg,stim_01/d.jpg,2,2,j,4,25,265,36,j,1,0.833120089621,01,01,60.0191705389,PLT_learning_01,N,2014_Mrz_11_1905,P25,
stim_fb/ques.jpg,stim_fb/negf.jpg,stim_fb/posf.jpg,stim_01/a.jpg,stim_01/b.jpg,2,1,j,4,26,266,10,j,1,1.31628153367,01,01,60.0191705389,PLT_learning_01,N,2014_Mrz_11_1905,P25,
stim_fb/ques.jpg,stim_fb/posf.jpg,stim_fb/negf.jpg,stim_01/a.jpg,stim_01/b.jpg,2,1,j,4,27,267,19,j,1,1.28294957876,01,01,60.0191705389,PLT_learning_01,N,2014_Mrz_11_1905,P25,
stim_fb/ques.jpg,stim_fb/posf.jpg,stim_fb/negf.jpg,stim_01/e.jpg,stim_01/f.jpg,2,3,j,4,28,268,56,j,1,0.933092715495,01,01,60.0191705389,PLT_learning_01,N,2014_Mrz_11_1905,P25,
stim_fb/ques.jpg,stim_fb/negf.jpg,stim_fb/posf.jpg,stim_01/e.jpg,stim_01/f.jpg,2,3,j,4,29,269,50,f,0,0.666480059248,01,01,60.0191705389,PLT_learning_01,N,2014_Mrz_11_1905,P25,
stim_fb/ques.jpg,stim_fb/negf.jpg,stim_fb/posf.jpg,stim_01/d.jpg,stim_01/c.jpg,1,2,f,4,30,270,21,f,1,0.799793707589,01,01,60.0191705389,PLT_learning_01,N,2014_Mrz_11_1905,P25,
stim_fb/ques.jpg,stim_fb/negf.jpg,stim_fb/posf.jpg,stim_01/c.jpg,stim_01/d.jpg,2,2,j,4,31,271,34,j,1,0.699825689182,01,01,60.0191705389,PLT_learning_01,N,2014_Mrz_11_1905,P25,
stim_fb/ques.jpg,stim_fb/negf.jpg,stim_fb/posf.jpg,stim_01/a.jpg,stim_01/b.jpg,2,1,j,4,32,272,17,j,1,1.01637641681,01,01,60.0191705389,PLT_learning_01,N,2014_Mrz_11_1905,P25,
stim_fb/ques.jpg,stim_fb/negf.jpg,stim_fb/posf.jpg,stim_01/b.jpg,stim_01/a.jpg,1,1,f,4,33,273,6,f,1,0.749808286375,01,01,60.0191705389,PLT_learning_01,N,2014_Mrz_11_1905,P25,
stim_fb/ques.jpg,stim_fb/posf.jpg,stim_fb/negf.jpg,stim_01/d.jpg,stim_01/c.jpg,1,2,f,4,34,274,29,f,1,0.933127782766,01,01,60.0191705389,PLT_learning_01,N,2014_Mrz_11_1905,P25,
stim_fb/ques.jpg,stim_fb/negf.jpg,stim_fb/posf.jpg,stim_01/b.jpg,stim_01/a.jpg,1,1,f,4,35,275,3,f,1,0.816374789756,01,01,60.0191705389,PLT_learning_01,N,2014_Mrz_11_1905,P25,
stim_fb/ques.jpg,stim_fb/negf.jpg,stim_fb/posf.jpg,stim_01/b.jpg,stim_01/a.jpg,1,1,f,4,36,276,0,f,1,0.499894680888,01,01,60.0191705389,PLT_learning_01,N,2014_Mrz_11_1905,P25,
stim_fb/ques.jpg,stim_fb/negf.jpg,stim_fb/posf.jpg,stim_01/d.jpg,stim_01/c.jpg,1,2,f,4,37,277,22,f,1,0.999710264921,01,01,60.0191705389,PLT_learning_01,N,2014_Mrz_11_1905,P25,
stim_fb/ques.jpg,stim_fb/posf.jpg,stim_fb/negf.jpg,stim_01/f.jpg,stim_01/e.jpg,1,3,f,4,38,278,46,j,0,1.18299018583,01,01,60.0191705389,PLT_learning_01,N,2014_Mrz_11_1905,P25,
stim_fb/ques.jpg,stim_fb/negf.jpg,stim_fb/posf.jpg,stim_01/d.jpg,stim_01/c.jpg,1,2,f,4,39,279,26,j,0,0.916463721085,01,01,60.0191705389,PLT_learning_01,N,2014_Mrz_11_1905,P25,
stim_fb/ques.jpg,stim_fb/negf.jpg,stim_fb/posf.jpg,stim_01/b.jpg,stim_01/a.jpg,1,1,f,4,40,280,1,f,1,0.899760255335,01,01,60.0191705389,PLT_learning_01,N,2014_Mrz_11_1905,P25,
stim_fb/ques.jpg,stim_fb/negf.jpg,stim_fb/posf.jpg,stim_01/d.jpg,stim_01/c.jpg,1,2,f,4,41,281,20,f,1,0.849749511097,01,01,60.0191705389,PLT_learning_01,N,2014_Mrz_11_1905,P25,
stim_fb/ques.jpg,stim_fb/posf.jpg,stim_fb/negf.jpg,stim_01/c.jpg,stim_01/d.jpg,2,2,j,4,42,282,38,j,1,0.766447091199,01,01,60.0191705389,PLT_learning_01,N,2014_Mrz_11_1905,P25,
stim_fb/ques.jpg,stim_fb/negf.jpg,stim_fb/posf.jpg,stim_01/f.jpg,stim_01/e.jpg,1,3,f,4,43,283,40,j,0,0.933057840703,01,01,60.0191705389,PLT_learning_01,N,2014_Mrz_11_1905,P25,
stim_fb/ques.jpg,stim_fb/negf.jpg,stim_fb/posf.jpg,stim_01/b.jpg,stim_01/a.jpg,1,1,f,4,44,284,2,f,1,0.766455593359,01,01,60.0191705389,PLT_learning_01,N,2014_Mrz_11_1905,P25,
stim_fb/ques.jpg,stim_fb/posf.jpg,stim_fb/negf.jpg,stim_01/d.jpg,stim_01/c.jpg,1,2,f,4,45,285,27,f,1,0.683195988018,01,01,60.0191705389,PLT_learning_01,N,2014_Mrz_11_1905,P25,
stim_fb/ques.jpg,stim_fb/posf.jpg,stim_fb/negf.jpg,stim_01/e.jpg,stim_01/f.jpg,2,3,j,4,46,286,59,j,1,0.633151202052,01,01,60.0191705389,PLT_learning_01,N,2014_Mrz_11_1905,P25,
stim_fb/ques.jpg,stim_fb/negf.jpg,stim_fb/posf.jpg,stim_01/f.jpg,stim_01/e.jpg,1,3,f,4,47,287,45,f,1,0.866431380098,01,01,60.0191705389,PLT_learning_01,N,2014_Mrz_11_1905,P25,
stim_fb/ques.jpg,stim_fb/negf.jpg,stim_fb/posf.jpg,stim_01/a.jpg,stim_01/b.jpg,2,1,j,4,48,288,16,f,0,1.26628261486,01,01,60.0191705389,PLT_learning_01,N,2014_Mrz_11_1905,P25,
stim_fb/ques.jpg,stim_fb/negf.jpg,stim_fb/posf.jpg,stim_01/a.jpg,stim_01/b.jpg,2,1,j,4,49,289,12,f,0,0.899751578741,01,01,60.0191705389,PLT_learning_01,N,2014_Mrz_11_1905,P25,
stim_fb/ques.jpg,stim_fb/posf.jpg,stim_fb/negf.jpg,stim_01/c.jpg,stim_01/d.jpg,2,2,j,4,50,290,37,j,1,1.01637656117,01,01,60.0191705389,PLT_learning_01,N,2014_Mrz_11_1905,P25,
stim_fb/ques.jpg,stim_fb/negf.jpg,stim_fb/posf.jpg,stim_01/c.jpg,stim_01/d.jpg,2,2,j,4,51,291,33,j,1,0.833183198687,01,01,60.0191705389,PLT_learning_01,N,2014_Mrz_11_1905,P25,
stim_fb/ques.jpg,stim_fb/negf.jpg,stim_fb/posf.jpg,stim_01/e.jpg,stim_01/f.jpg,2,3,j,4,52,292,54,f,0,1.24963229437,01,01,60.0191705389,PLT_learning_01,N,2014_Mrz_11_1905,P25,
stim_fb/ques.jpg,stim_fb/negf.jpg,stim_fb/posf.jpg,stim_01/a.jpg,stim_01/b.jpg,2,1,j,4,53,293,14,j,1,1.01641866896,01,01,60.0191705389,PLT_learning_01,N,2014_Mrz_11_1905,P25,
stim_fb/ques.jpg,stim_fb/negf.jpg,stim_fb/posf.jpg,stim_01/c.jpg,stim_01/d.jpg,2,2,j,4,54,294,32,j,1,1.04964539798,01,01,60.0191705389,PLT_learning_01,N,2014_Mrz_11_1905,P25,
stim_fb/ques.jpg,stim_fb/negf.jpg,stim_fb/posf.jpg,stim_01/d.jpg,stim_01/c.jpg,1,2,f,4,55,295,25,f,1,1.0162831156,01,01,60.0191705389,PLT_learning_01,N,2014_Mrz_11_1905,P25,
stim_fb/ques.jpg,stim_fb/negf.jpg,stim_fb/posf.jpg,stim_01/c.jpg,stim_01/d.jpg,2,2,j,4,56,296,31,j,1,0.833088135096,01,01,60.0191705389,PLT_learning_01,N,2014_Mrz_11_1905,P25,
stim_fb/ques.jpg,stim_fb/negf.jpg,stim_fb/posf.jpg,stim_01/f.jpg,stim_01/e.jpg,1,3,f,4,57,297,43,f,1,0.89978001752,01,01,60.0191705389,PLT_learning_01,N,2014_Mrz_11_1905,P25,
stim_fb/ques.jpg,stim_fb/negf.jpg,stim_fb/posf.jpg,stim_01/a.jpg,stim_01/b.jpg,2,1,j,4,58,298,13,j,1,1.16629338166,01,01,60.0191705389,PLT_learning_01,N,2014_Mrz_11_1905,P25,
stim_fb/ques.jpg,stim_fb/negf.jpg,stim_fb/posf.jpg,stim_01/a.jpg,stim_01/b.jpg,2,1,j,4,59,299,15,j,1,0.849784307695,01,01,60.0191705389,PLT_learning_01,N,2014_Mrz_11_1905,P25,
stim_fb/ques.jpg,stim_fb/negf.jpg,stim_fb/posf.jpg,stim_01/d.jpg,stim_01/c.jpg,1,2,f,5,0,300,26,f,1,0.816369385306,01,01,60.0191705389,PLT_learning_01,N,2014_Mrz_11_1905,P25,
stim_fb/ques.jpg,stim_fb/negf.jpg,stim_fb/posf.jpg,stim_01/b.jpg,stim_01/a.jpg,1,1,f,5,1,301,3,f,1,0.983074651038,01,01,60.0191705389,PLT_learning_01,N,2014_Mrz_11_1905,P25,
stim_fb/ques.jpg,stim_fb/posf.jpg,stim_fb/negf.jpg,stim_01/a.jpg,stim_01/b.jpg,2,1,j,5,2,302,19,j,1,0.699853565562,01,01,60.0191705389,PLT_learning_01,N,2014_Mrz_11_1905,P25,
stim_fb/ques.jpg,stim_fb/negf.jpg,stim_fb/posf.jpg,stim_01/b.jpg,stim_01/a.jpg,1,1,f,5,3,303,1,j,0,1.11632389108,01,01,60.0191705389,PLT_learning_01,N,2014_Mrz_11_1905,P25,
stim_fb/ques.jpg,stim_fb/posf.jpg,stim_fb/negf.jpg,stim_01/c.jpg,stim_01/d.jpg,2,2,j,5,4,304,38,j,1,0.816751910319,01,01,60.0191705389,PLT_learning_01,N,2014_Mrz_11_1905,P25,
stim_fb/ques.jpg,stim_fb/negf.jpg,stim_fb/posf.jpg,stim_01/c.jpg,stim_01/d.jpg,2,2,j,5,5,305,34,f,0,0.866441172468,01,01,60.0191705389,PLT_learning_01,N,2014_Mrz_11_1905,P25,
stim_fb/ques.jpg,stim_fb/posf.jpg,stim_fb/negf.jpg,stim_01/f.jpg,stim_01/e.jpg,1,3,f,5,6,306,46,j,0,0.833118420469,01,01,60.0191705389,PLT_learning_01,N,2014_Mrz_11_1905,P25,
stim_fb/ques.jpg,stim_fb/posf.jpg,stim_fb/negf.jpg,stim_01/a.jpg,stim_01/b.jpg,2,1,j,5,7,307,18,j,1,1.09971802123,01,01,60.0191705389,PLT_learning_01,N,2014_Mrz_11_1905,P25,
stim_fb/ques.jpg,stim_fb/posf.jpg,stim_fb/negf.jpg,stim_01/e.jpg,stim_01/f.jpg,2,3,j,5,8,308,56,f,0,0.832981131793,01,01,60.0191705389,PLT_learning_01,N,2014_Mrz_11_1905,P25,
stim_fb/ques.jpg,stim_fb/posf.jpg,stim_fb/negf.jpg,stim_01/f.jpg,stim_01/e.jpg,1,3,f,5,9,309,49,j,0,0.966396282747,01,01,60.0191705389,PLT_learning_01,N,2014_Mrz_11_1905,P25,
stim_fb/ques.jpg,stim_fb/negf.jpg,stim_fb/posf.jpg,stim_01/f.jpg,stim_01/e.jpg,1,3,f,5,10,310,42,j,0,0.849777204014,01,01,60.0191705389,PLT_learning_01,N,2014_Mrz_11_1905,P25,
stim_fb/ques.jpg,stim_fb/posf.jpg,stim_fb/negf.jpg,stim_01/f.jpg,stim_01/e.jpg,1,3,f,5,11,311,47,f,1,0.916419634366,01,01,60.0191705389,PLT_learning_01,N,2014_Mrz_11_1905,P25,
stim_fb/ques.jpg,stim_fb/posf.jpg,stim_fb/negf.jpg,stim_01/c.jpg,stim_01/d.jpg,2,2,j,5,12,312,39,f,0,0.916415769745,01,01,60.0191705389,PLT_learning_01,N,2014_Mrz_11_1905,P25,
stim_fb/ques.jpg,stim_fb/negf.jpg,stim_fb/posf.jpg,stim_01/c.jpg,stim_01/d.jpg,2,2,j,5,13,313,32,f,0,0.766505710086,01,01,60.0191705389,PLT_learning_01,N,2014_Mrz_11_1905,P25,
stim_fb/ques.jpg,stim_fb/posf.jpg,stim_fb/negf.jpg,stim_01/b.jpg,stim_01/a.jpg,1,1,f,5,14,314,9,f,1,0.766492820007,01,01,60.0191705389,PLT_learning_01,N,2014_Mrz_11_1905,P25,
stim_fb/ques.jpg,stim_fb/posf.jpg,stim_fb/negf.jpg,stim_01/e.jpg,stim_01/f.jpg,2,3,j,5,15,315,58,f,0,1.01639170686,01,01,60.0191705389,PLT_learning_01,N,2014_Mrz_11_1905,P25,
stim_fb/ques.jpg,stim_fb/negf.jpg,stim_fb/posf.jpg,stim_01/e.jpg,stim_01/f.jpg,2,3,j,5,16,316,55,f,0,0.933084123113,01,01,60.0191705389,PLT_learning_01,N,2014_Mrz_11_1905,P25,
stim_fb/ques.jpg,stim_fb/negf.jpg,stim_fb/posf.jpg,stim_01/b.jpg,stim_01/a.jpg,1,1,f,5,17,317,0,f,1,0.699743251014,01,01,60.0191705389,PLT_learning_01,N,2014_Mrz_11_1905,P25,
stim_fb/ques.jpg,stim_fb/negf.jpg,stim_fb/posf.jpg,stim_01/a.jpg,stim_01/b.jpg,2,1,j,5,18,318,12,f,0,0.683174219837,01,01,60.0191705389,PLT_learning_01,N,2014_Mrz_11_1905,P25,
stim_fb/ques.jpg,stim_fb/negf.jpg,stim_fb/posf.jpg,stim_01/c.jpg,stim_01/d.jpg,2,2,j,5,19,319,36,j,1,0.799794402315,01,01,60.0191705389,PLT_learning_01,N,2014_Mrz_11_1905,P25,
stim_fb/ques.jpg,stim_fb/negf.jpg,stim_fb/posf.jpg,stim_01/d.jpg,stim_01/c.jpg,1,2,f,5,20,320,23,f,1,0.549878438964,01,01,60.0191705389,PLT_learning_01,N,2014_Mrz_11_1905,P25,
stim_fb/ques.jpg,stim_fb/posf.jpg,stim_fb/negf.jpg,stim_01/e.jpg,stim_01/f.jpg,2,3,j,5,21,321,57,f,0,0.966417632884,01,01,60.0191705389,PLT_learning_01,N,2014_Mrz_11_1905,P25,
stim_fb/ques.jpg,stim_fb/negf.jpg,stim_fb/posf.jpg,stim_01/c.jpg,stim_01/d.jpg,2,2,j,5,22,322,31,j,1,0.833092574143,01,01,60.0191705389,PLT_learning_01,N,2014_Mrz_11_1905,P25,
stim_fb/ques.jpg,stim_fb/negf.jpg,stim_fb/posf.jpg,stim_01/e.jpg,stim_01/f.jpg,2,3,j,5,23,323,50,f,0,0.916348329909,01,01,60.0191705389,PLT_learning_01,N,2014_Mrz_11_1905,P25,
stim_fb/ques.jpg,stim_fb/negf.jpg,stim_fb/posf.jpg,stim_01/a.jpg,stim_01/b.jpg,2,1,j,5,24,324,14,j,1,0.999739813462,01,01,60.0191705389,PLT_learning_01,N,2014_Mrz_11_1905,P25,
stim_fb/ques.jpg,stim_fb/posf.jpg,stim_fb/negf.jpg,stim_01/c.jpg,stim_01/d.jpg,2,2,j,5,25,325,37,j,1,0.783089745604,01,01,60.0191705389,PLT_learning_01,N,2014_Mrz_11_1905,P25,
stim_fb/ques.jpg,stim_fb/negf.jpg,stim_fb/posf.jpg,stim_01/a.jpg,stim_01/b.jpg,2,1,j,5,26,326,13,j,1,0.933085786251,01,01,60.0191705389,PLT_learning_01,N,2014_Mrz_11_1905,P25,
stim_fb/ques.jpg,stim_fb/posf.jpg,stim_fb/negf.jpg,stim_01/e.jpg,stim_01/f.jpg,2,3,j,5,27,327,59,f,0,0.833122191856,01,01,60.0191705389,PLT_learning_01,N,2014_Mrz_11_1905,P25,
stim_fb/ques.jpg,stim_fb/posf.jpg,stim_fb/negf.jpg,stim_01/d.jpg,stim_01/c.jpg,1,2,f,5,28,328,29,f,1,1.16639845716,01,01,60.0191705389,PLT_learning_01,N,2014_Mrz_11_1905,P25,
stim_fb/ques.jpg,stim_fb/negf.jpg,stim_fb/posf.jpg,stim_01/f.jpg,stim_01/e.jpg,1,3,f,5,29,329,40,j,0,0.866446757369,01,01,60.0191705389,PLT_learning_01,N,2014_Mrz_11_1905,P25,
stim_fb/ques.jpg,stim_fb/negf.jpg,stim_fb/posf.jpg,stim_01/b.jpg,stim_01/a.jpg,1,1,f,5,30,330,7,j,0,0.816451805433,01,01,60.0191705389,PLT_learning_01,N,2014_Mrz_11_1905,P25,
stim_fb/ques.jpg,stim_fb/negf.jpg,stim_fb/posf.jpg,stim_01/d.jpg,stim_01/c.jpg,1,2,f,5,31,331,25,f,1,0.84975480126,01,01,60.0191705389,PLT_learning_01,N,2014_Mrz_11_1905,P25,
stim_fb/ques.jpg,stim_fb/negf.jpg,stim_fb/posf.jpg,stim_01/d.jpg,stim_01/c.jpg,1,2,f,5,32,332,21,f,1,0.566501737198,01,01,60.0191705389,PLT_learning_01,N,2014_Mrz_11_1905,P25,
stim_fb/ques.jpg,stim_fb/negf.jpg,stim_fb/posf.jpg,stim_01/d.jpg,stim_01/c.jpg,1,2,f,5,33,333,20,f,1,1.01639674741,01,01,60.0191705389,PLT_learning_01,N,2014_Mrz_11_1905,P25,
stim_fb/ques.jpg,stim_fb/negf.jpg,stim_fb/posf.jpg,stim_01/d.jpg,stim_01/c.jpg,1,2,f,5,34,334,22,f,1,0.833116143804,01,01,60.0191705389,PLT_learning_01,N,2014_Mrz_11_1905,P25,
stim_fb/ques.jpg,stim_fb/negf.jpg,stim_fb/posf.jpg,stim_01/c.jpg,stim_01/d.jpg,2,2,j,5,35,335,35,j,1,0.916402612002,01,01,60.0191705389,PLT_learning_01,N,2014_Mrz_11_1905,P25,
stim_fb/ques.jpg,stim_fb/negf.jpg,stim_fb/posf.jpg,stim_01/b.jpg,stim_01/a.jpg,1,1,f,5,36,336,2,f,1,1.04970143645,01,01,60.0191705389,PLT_learning_01,N,2014_Mrz_11_1905,P25,
stim_fb/ques.jpg,stim_fb/negf.jpg,stim_fb/posf.jpg,stim_01/c.jpg,stim_01/d.jpg,2,2,j,5,37,337,30,j,1,0.999737290178,01,01,60.0191705389,PLT_learning_01,N,2014_Mrz_11_1905,P25,
stim_fb/ques.jpg,stim_fb/negf.jpg,stim_fb/posf.jpg,stim_01/a.jpg,stim_01/b.jpg,2,1,j,5,38,338,11,j,1,0.949748314117,01,01,60.0191705389,PLT_learning_01,N,2014_Mrz_11_1905,P25,
stim_fb/ques.jpg,stim_fb/negf.jpg,stim_fb/posf.jpg,stim_01/a.jpg,stim_01/b.jpg,2,1,j,5,39,339,16,j,1,0.649822045616,01,01,60.0191705389,PLT_learning_01,N,2014_Mrz_11_1905,P25,
stim_fb/ques.jpg,stim_fb/negf.jpg,stim_fb/posf.jpg,stim_01/d.jpg,stim_01/c.jpg,1,2,f,5,40,340,24,f,1,0.783136921014,01,01,60.0191705389,PLT_learning_01,N,2014_Mrz_11_1905,P25,
stim_fb/ques.jpg,stim_fb/posf.jpg,stim_fb/negf.jpg,stim_01/f.jpg,stim_01/e.jpg,1,3,f,5,41,341,48,j,0,1.01634519611,01,01,60.0191705389,PLT_learning_01,N,2014_Mrz_11_1905,P25,
stim_fb/ques.jpg,stim_fb/negf.jpg,stim_fb/posf.jpg,stim_01/b.jpg,stim_01/a.jpg,1,1,f,5,42,342,6,f,1,0.666454429462,01,01,60.0191705389,PLT_learning_01,N,2014_Mrz_11_1905,P25,
stim_fb/ques.jpg,stim_fb/negf.jpg,stim_fb/posf.jpg,stim_01/f.jpg,stim_01/e.jpg,1,3,f,5,43,343,45,j,0,0.799772916849,01,01,60.0191705389,PLT_learning_01,N,2014_Mrz_11_1905,P25,
stim_fb/ques.jpg,stim_fb/posf.jpg,stim_fb/negf.jpg,stim_01/b.jpg,stim_01/a.jpg,1,1,f,5,44,344,8,f,1,0.666470360109,01,01,60.0191705389,PLT_learning_01,N,2014_Mrz_11_1905,P25,
stim_fb/ques.jpg,stim_fb/negf.jpg,stim_fb/posf.jpg,stim_01/c.jpg,stim_01/d.jpg,2,2,j,5,45,345,33,f,0,0.799791003861,01,01,60.0191705389,PLT_learning_01,N,2014_Mrz_11_1905,P25,
stim_fb/ques.jpg,stim_fb/posf.jpg,stim_fb/negf.jpg,stim_01/d.jpg,stim_01/c.jpg,1,2,f,5,46,346,28,f,1,0.649842610797,01,01,60.0191705389,PLT_learning_01,N,2014_Mrz_11_1905,P25,
stim_fb/ques.jpg,stim_fb/negf.jpg,stim_fb/posf.jpg,stim_01/f.jpg,stim_01/e.jpg,1,3,f,5,47,347,41,f,1,1.03302926659,01,01,60.0191705389,PLT_learning_01,N,2014_Mrz_11_1905,P25,
stim_fb/ques.jpg,stim_fb/negf.jpg,stim_fb/posf.jpg,stim_01/a.jpg,stim_01/b.jpg,2,1,j,5,48,348,17,f,0,0.799823370413,01,01,60.0191705389,PLT_learning_01,N,2014_Mrz_11_1905,P25,
stim_fb/ques.jpg,stim_fb/negf.jpg,stim_fb/posf.jpg,stim_01/f.jpg,stim_01/e.jpg,1,3,f,5,49,349,44,j,0,0.98305104228,01,01,60.0191705389,PLT_learning_01,N,2014_Mrz_11_1905,P25,
stim_fb/ques.jpg,stim_fb/posf.jpg,stim_fb/negf.jpg,stim_01/d.jpg,stim_01/c.jpg,1,2,f,5,50,350,27,f,1,0.683153341881,01,01,60.0191705389,PLT_learning_01,N,2014_Mrz_11_1905,P25,
stim_fb/ques.jpg,stim_fb/negf.jpg,stim_fb/posf.jpg,stim_01/e.jpg,stim_01/f.jpg,2,3,j,5,51,351,53,f,0,1.1330175795,01,01,60.0191705389,PLT_learning_01,N,2014_Mrz_11_1905,P25,
stim_fb/ques.jpg,stim_fb/negf.jpg,stim_fb/posf.jpg,stim_01/e.jpg,stim_01/f.jpg,2,3,j,5,52,352,52,j,1,0.66650099435,01,01,60.0191705389,PLT_learning_01,N,2014_Mrz_11_1905,P25,
stim_fb/ques.jpg,stim_fb/negf.jpg,stim_fb/posf.jpg,stim_01/e.jpg,stim_01/f.jpg,2,3,j,5,53,353,51,j,1,0.549820388489,01,01,60.0191705389,PLT_learning_01,N,2014_Mrz_11_1905,P25,
stim_fb/ques.jpg,stim_fb/negf.jpg,stim_fb/posf.jpg,stim_01/e.jpg,stim_01/f.jpg,2,3,j,5,54,354,54,j,1,0.649842616815,01,01,60.0191705389,PLT_learning_01,N,2014_Mrz_11_1905,P25,
stim_fb/ques.jpg,stim_fb/negf.jpg,stim_fb/posf.jpg,stim_01/b.jpg,stim_01/a.jpg,1,1,f,5,55,355,5,j,0,0.883058750467,01,01,60.0191705389,PLT_learning_01,N,2014_Mrz_11_1905,P25,
stim_fb/ques.jpg,stim_fb/negf.jpg,stim_fb/posf.jpg,stim_01/f.jpg,stim_01/e.jpg,1,3,f,5,56,356,43,j,0,0.933044622805,01,01,60.0191705389,PLT_learning_01,N,2014_Mrz_11_1905,P25,
stim_fb/ques.jpg,stim_fb/negf.jpg,stim_fb/posf.jpg,stim_01/a.jpg,stim_01/b.jpg,2,1,j,5,57,357,10,j,1,0.833077281084,01,01,60.0191705389,PLT_learning_01,N,2014_Mrz_11_1905,P25,
stim_fb/ques.jpg,stim_fb/negf.jpg,stim_fb/posf.jpg,stim_01/b.jpg,stim_01/a.jpg,1,1,f,5,58,358,4,f,1,0.599809526961,01,01,60.0191705389,PLT_learning_01,N,2014_Mrz_11_1905,P25,
stim_fb/ques.jpg,stim_fb/negf.jpg,stim_fb/posf.jpg,stim_01/a.jpg,stim_01/b.jpg,2,1,j,5,59,359,15,j,1,0.599838582275,01,01,60.0191705389,PLT_learning_01,N,2014_Mrz_11_1905,P25,
