Fb3,Fb2,Fb1,Symbol2,Symbol1,PosCond,Pair,Correct,trials.thisRepN,trials.thisTrialN,trials.thisN,trials.thisIndex,Response.keys,Response.corr,Response.rt,Version,Session Number,frameRate,expName,StimCondition,date,Participant,
stim_fb/ques.jpg,stim_fb/posf.jpg,stim_fb/negf.jpg,stim_01/f.jpg,stim_01/e.jpg,1,3,f,0,0,0,47,j,0,1.66615321782,01,01,60.0118694018,PLT_learning_01,N,2014_Mrz_11_1628,P26,
stim_fb/ques.jpg,stim_fb/negf.jpg,stim_fb/posf.jpg,stim_01/c.jpg,stim_01/d.jpg,2,2,j,0,1,1,32,f,0,0.899743019441,01,01,60.0118694018,PLT_learning_01,N,2014_Mrz_11_1628,P26,
stim_fb/ques.jpg,stim_fb/posf.jpg,stim_fb/negf.jpg,stim_01/e.jpg,stim_01/f.jpg,2,3,j,0,2,2,57,f,0,1.11636938531,01,01,60.0118694018,PLT_learning_01,N,2014_Mrz_11_1628,P26,
stim_fb/ques.jpg,stim_fb/negf.jpg,stim_fb/posf.jpg,stim_01/b.jpg,stim_01/a.jpg,1,1,f,0,3,3,6,j,0,1.08302792675,01,01,60.0118694018,PLT_learning_01,N,2014_Mrz_11_1628,P26,
stim_fb/ques.jpg,stim_fb/posf.jpg,stim_fb/negf.jpg,stim_01/b.jpg,stim_01/a.jpg,1,1,f,0,4,4,8,j,0,0.999709855905,01,01,60.0118694018,PLT_learning_01,N,2014_Mrz_11_1628,P26,
stim_fb/ques.jpg,stim_fb/negf.jpg,stim_fb/posf.jpg,stim_01/c.jpg,stim_01/d.jpg,2,2,j,0,5,5,31,j,1,1.26630000113,01,01,60.0118694018,PLT_learning_01,N,2014_Mrz_11_1628,P26,
stim_fb/ques.jpg,stim_fb/negf.jpg,stim_fb/posf.jpg,stim_01/a.jpg,stim_01/b.jpg,2,1,j,0,6,6,14,j,1,1.34960881193,01,01,60.0118694018,PLT_learning_01,N,2014_Mrz_11_1628,P26,
stim_fb/ques.jpg,stim_fb/negf.jpg,stim_fb/posf.jpg,stim_01/c.jpg,stim_01/d.jpg,2,2,j,0,7,7,33,f,0,1.16629792897,01,01,60.0118694018,PLT_learning_01,N,2014_Mrz_11_1628,P26,
stim_fb/ques.jpg,stim_fb/posf.jpg,stim_fb/negf.jpg,stim_01/c.jpg,stim_01/d.jpg,2,2,j,0,8,8,38,j,1,0.816437561982,01,01,60.0118694018,PLT_learning_01,N,2014_Mrz_11_1628,P26,
stim_fb/ques.jpg,stim_fb/negf.jpg,stim_fb/posf.jpg,stim_01/a.jpg,stim_01/b.jpg,2,1,j,0,9,9,15,j,1,0.916434605624,01,01,60.0118694018,PLT_learning_01,N,2014_Mrz_11_1628,P26,
stim_fb/ques.jpg,stim_fb/negf.jpg,stim_fb/posf.jpg,stim_01/d.jpg,stim_01/c.jpg,1,2,f,0,10,10,25,j,0,1.29963746273,01,01,60.0118694018,PLT_learning_01,N,2014_Mrz_11_1628,P26,
stim_fb/ques.jpg,stim_fb/posf.jpg,stim_fb/negf.jpg,stim_01/c.jpg,stim_01/d.jpg,2,2,j,0,11,11,39,j,1,1.01641372466,01,01,60.0118694018,PLT_learning_01,N,2014_Mrz_11_1628,P26,
stim_fb/ques.jpg,stim_fb/posf.jpg,stim_fb/negf.jpg,stim_01/d.jpg,stim_01/c.jpg,1,2,f,0,12,12,28,j,0,0.949745011898,01,01,60.0118694018,PLT_learning_01,N,2014_Mrz_11_1628,P26,
stim_fb/ques.jpg,stim_fb/negf.jpg,stim_fb/posf.jpg,stim_01/f.jpg,stim_01/e.jpg,1,3,f,0,13,13,45,j,0,0.983069192453,01,01,60.0118694018,PLT_learning_01,N,2014_Mrz_11_1628,P26,
stim_fb/ques.jpg,stim_fb/negf.jpg,stim_fb/posf.jpg,stim_01/e.jpg,stim_01/f.jpg,2,3,j,0,14,14,50,j,1,0.799784576866,01,01,60.0118694018,PLT_learning_01,N,2014_Mrz_11_1628,P26,
stim_fb/ques.jpg,stim_fb/negf.jpg,stim_fb/posf.jpg,stim_01/b.jpg,stim_01/a.jpg,1,1,f,0,15,15,0,f,1,0.983069706734,01,01,60.0118694018,PLT_learning_01,N,2014_Mrz_11_1628,P26,
stim_fb/ques.jpg,stim_fb/negf.jpg,stim_fb/posf.jpg,stim_01/d.jpg,stim_01/c.jpg,1,2,f,0,16,16,22,j,0,0.916410909651,01,01,60.0118694018,PLT_learning_01,N,2014_Mrz_11_1628,P26,
stim_fb/ques.jpg,stim_fb/negf.jpg,stim_fb/posf.jpg,stim_01/d.jpg,stim_01/c.jpg,1,2,f,0,17,17,21,j,0,0.733148705842,01,01,60.0118694018,PLT_learning_01,N,2014_Mrz_11_1628,P26,
stim_fb/ques.jpg,stim_fb/negf.jpg,stim_fb/posf.jpg,stim_01/c.jpg,stim_01/d.jpg,2,2,j,0,18,18,30,j,1,0.999700051503,01,01,60.0118694018,PLT_learning_01,N,2014_Mrz_11_1628,P26,
stim_fb/ques.jpg,stim_fb/negf.jpg,stim_fb/posf.jpg,stim_01/d.jpg,stim_01/c.jpg,1,2,f,0,19,19,24,f,1,1.03304415965,01,01,60.0118694018,PLT_learning_01,N,2014_Mrz_11_1628,P26,
stim_fb/ques.jpg,stim_fb/negf.jpg,stim_fb/posf.jpg,stim_01/c.jpg,stim_01/d.jpg,2,2,j,0,20,20,36,j,1,0.949670693939,01,01,60.0118694018,PLT_learning_01,N,2014_Mrz_11_1628,P26,
stim_fb/ques.jpg,stim_fb/negf.jpg,stim_fb/posf.jpg,stim_01/b.jpg,stim_01/a.jpg,1,1,f,0,21,21,4,j,0,1.39959057905,01,01,60.0118694018,PLT_learning_01,N,2014_Mrz_11_1628,P26,
stim_fb/ques.jpg,stim_fb/negf.jpg,stim_fb/posf.jpg,stim_01/e.jpg,stim_01/f.jpg,2,3,j,0,22,22,55,j,1,1.18294930207,01,01,60.0118694018,PLT_learning_01,N,2014_Mrz_11_1628,P26,
stim_fb/ques.jpg,stim_fb/negf.jpg,stim_fb/posf.jpg,stim_01/b.jpg,stim_01/a.jpg,1,1,f,0,23,23,7,f,1,0.883078927682,01,01,60.0118694018,PLT_learning_01,N,2014_Mrz_11_1628,P26,
stim_fb/ques.jpg,stim_fb/negf.jpg,stim_fb/posf.jpg,stim_01/a.jpg,stim_01/b.jpg,2,1,j,0,24,24,11,j,1,0.816438467235,01,01,60.0118694018,PLT_learning_01,N,2014_Mrz_11_1628,P26,
stim_fb/ques.jpg,stim_fb/negf.jpg,stim_fb/posf.jpg,stim_01/e.jpg,stim_01/f.jpg,2,3,j,0,25,25,53,j,1,0.983050741532,01,01,60.0118694018,PLT_learning_01,N,2014_Mrz_11_1628,P26,
stim_fb/ques.jpg,stim_fb/posf.jpg,stim_fb/negf.jpg,stim_01/e.jpg,stim_01/f.jpg,2,3,j,0,26,26,58,j,1,0.766552223848,01,01,60.0118694018,PLT_learning_01,N,2014_Mrz_11_1628,P26,
stim_fb/ques.jpg,stim_fb/negf.jpg,stim_fb/posf.jpg,stim_01/a.jpg,stim_01/b.jpg,2,1,j,0,27,27,16,j,1,1.29961170363,01,01,60.0118694018,PLT_learning_01,N,2014_Mrz_11_1628,P26,
stim_fb/ques.jpg,stim_fb/negf.jpg,stim_fb/posf.jpg,stim_01/c.jpg,stim_01/d.jpg,2,2,j,0,28,28,34,j,1,0.799750508077,01,01,60.0118694018,PLT_learning_01,N,2014_Mrz_11_1628,P26,
stim_fb/ques.jpg,stim_fb/negf.jpg,stim_fb/posf.jpg,stim_01/f.jpg,stim_01/e.jpg,1,3,f,0,29,29,40,j,0,0.883102001106,01,01,60.0118694018,PLT_learning_01,N,2014_Mrz_11_1628,P26,
stim_fb/ques.jpg,stim_fb/negf.jpg,stim_fb/posf.jpg,stim_01/f.jpg,stim_01/e.jpg,1,3,f,0,30,30,41,f,1,1.11635510276,01,01,60.0118694018,PLT_learning_01,N,2014_Mrz_11_1628,P26,
stim_fb/ques.jpg,stim_fb/posf.jpg,stim_fb/negf.jpg,stim_01/c.jpg,stim_01/d.jpg,2,2,j,0,31,31,37,j,1,1.19966618722,01,01,60.0118694018,PLT_learning_01,N,2014_Mrz_11_1628,P26,
stim_fb/ques.jpg,stim_fb/negf.jpg,stim_fb/posf.jpg,stim_01/b.jpg,stim_01/a.jpg,1,1,f,0,32,32,1,f,1,1.26636860186,01,01,60.0118694018,PLT_learning_01,N,2014_Mrz_11_1628,P26,
stim_fb/ques.jpg,stim_fb/posf.jpg,stim_fb/negf.jpg,stim_01/b.jpg,stim_01/a.jpg,1,1,f,0,33,33,9,j,0,0.633159000461,01,01,60.0118694018,PLT_learning_01,N,2014_Mrz_11_1628,P26,
stim_fb/ques.jpg,stim_fb/posf.jpg,stim_fb/negf.jpg,stim_01/d.jpg,stim_01/c.jpg,1,2,f,0,34,34,29,f,1,0.933056156509,01,01,60.0118694018,PLT_learning_01,N,2014_Mrz_11_1628,P26,
stim_fb/ques.jpg,stim_fb/negf.jpg,stim_fb/posf.jpg,stim_01/f.jpg,stim_01/e.jpg,1,3,f,0,35,35,43,j,0,1.21631263407,01,01,60.0118694018,PLT_learning_01,N,2014_Mrz_11_1628,P26,
stim_fb/ques.jpg,stim_fb/negf.jpg,stim_fb/posf.jpg,stim_01/a.jpg,stim_01/b.jpg,2,1,j,0,36,36,12,j,1,0.866402072157,01,01,60.0118694018,PLT_learning_01,N,2014_Mrz_11_1628,P26,
stim_fb/ques.jpg,stim_fb/posf.jpg,stim_fb/negf.jpg,stim_01/f.jpg,stim_01/e.jpg,1,3,f,0,37,37,49,j,0,0.71647800664,01,01,60.0118694018,PLT_learning_01,N,2014_Mrz_11_1628,P26,
stim_fb/ques.jpg,stim_fb/negf.jpg,stim_fb/posf.jpg,stim_01/a.jpg,stim_01/b.jpg,2,1,j,0,38,38,17,j,1,0.883091742575,01,01,60.0118694018,PLT_learning_01,N,2014_Mrz_11_1628,P26,
stim_fb/ques.jpg,stim_fb/posf.jpg,stim_fb/negf.jpg,stim_01/d.jpg,stim_01/c.jpg,1,2,f,0,39,39,27,f,1,0.86642726285,01,01,60.0118694018,PLT_learning_01,N,2014_Mrz_11_1628,P26,
stim_fb/ques.jpg,stim_fb/posf.jpg,stim_fb/negf.jpg,stim_01/e.jpg,stim_01/f.jpg,2,3,j,0,40,40,59,f,0,0.949741757799,01,01,60.0118694018,PLT_learning_01,N,2014_Mrz_11_1628,P26,
stim_fb/ques.jpg,stim_fb/posf.jpg,stim_fb/negf.jpg,stim_01/a.jpg,stim_01/b.jpg,2,1,j,0,41,41,19,j,1,0.783127543675,01,01,60.0118694018,PLT_learning_01,N,2014_Mrz_11_1628,P26,
stim_fb/ques.jpg,stim_fb/posf.jpg,stim_fb/negf.jpg,stim_01/f.jpg,stim_01/e.jpg,1,3,f,0,42,42,48,j,0,1.08306815186,01,01,60.0118694018,PLT_learning_01,N,2014_Mrz_11_1628,P26,
stim_fb/ques.jpg,stim_fb/negf.jpg,stim_fb/posf.jpg,stim_01/b.jpg,stim_01/a.jpg,1,1,f,0,43,43,2,f,1,1.0163950963,01,01,60.0118694018,PLT_learning_01,N,2014_Mrz_11_1628,P26,
stim_fb/ques.jpg,stim_fb/negf.jpg,stim_fb/posf.jpg,stim_01/d.jpg,stim_01/c.jpg,1,2,f,0,44,44,26,f,1,1.0497005342,01,01,60.0118694018,PLT_learning_01,N,2014_Mrz_11_1628,P26,
stim_fb/ques.jpg,stim_fb/negf.jpg,stim_fb/posf.jpg,stim_01/c.jpg,stim_01/d.jpg,2,2,j,0,45,45,35,j,1,1.14965162047,01,01,60.0118694018,PLT_learning_01,N,2014_Mrz_11_1628,P26,
stim_fb/ques.jpg,stim_fb/negf.jpg,stim_fb/posf.jpg,stim_01/d.jpg,stim_01/c.jpg,1,2,f,0,46,46,20,f,1,1.03305302572,01,01,60.0118694018,PLT_learning_01,N,2014_Mrz_11_1628,P26,
stim_fb/ques.jpg,stim_fb/posf.jpg,stim_fb/negf.jpg,stim_01/e.jpg,stim_01/f.jpg,2,3,j,0,47,47,56,f,0,0.899784360327,01,01,60.0118694018,PLT_learning_01,N,2014_Mrz_11_1628,P26,
stim_fb/ques.jpg,stim_fb/posf.jpg,stim_fb/negf.jpg,stim_01/a.jpg,stim_01/b.jpg,2,1,j,0,48,48,18,j,1,0.799785202424,01,01,60.0118694018,PLT_learning_01,N,2014_Mrz_11_1628,P26,
stim_fb/ques.jpg,stim_fb/negf.jpg,stim_fb/posf.jpg,stim_01/f.jpg,stim_01/e.jpg,1,3,f,0,49,49,44,f,1,0.683117868595,01,01,60.0118694018,PLT_learning_01,N,2014_Mrz_11_1628,P26,
stim_fb/ques.jpg,stim_fb/negf.jpg,stim_fb/posf.jpg,stim_01/a.jpg,stim_01/b.jpg,2,1,j,0,50,50,13,j,1,0.699804519498,01,01,60.0118694018,PLT_learning_01,N,2014_Mrz_11_1628,P26,
stim_fb/ques.jpg,stim_fb/negf.jpg,stim_fb/posf.jpg,stim_01/e.jpg,stim_01/f.jpg,2,3,j,0,51,51,52,j,1,0.799786417445,01,01,60.0118694018,PLT_learning_01,N,2014_Mrz_11_1628,P26,
stim_fb/ques.jpg,stim_fb/negf.jpg,stim_fb/posf.jpg,stim_01/e.jpg,stim_01/f.jpg,2,3,j,0,52,52,54,f,0,0.79976078766,01,01,60.0118694018,PLT_learning_01,N,2014_Mrz_11_1628,P26,
stim_fb/ques.jpg,stim_fb/negf.jpg,stim_fb/posf.jpg,stim_01/f.jpg,stim_01/e.jpg,1,3,f,0,53,53,42,f,1,0.916473236768,01,01,60.0118694018,PLT_learning_01,N,2014_Mrz_11_1628,P26,
stim_fb/ques.jpg,stim_fb/negf.jpg,stim_fb/posf.jpg,stim_01/a.jpg,stim_01/b.jpg,2,1,j,0,54,54,10,j,1,1.1329675921,01,01,60.0118694018,PLT_learning_01,N,2014_Mrz_11_1628,P26,
stim_fb/ques.jpg,stim_fb/negf.jpg,stim_fb/posf.jpg,stim_01/d.jpg,stim_01/c.jpg,1,2,f,0,55,55,23,f,1,0.916405129265,01,01,60.0118694018,PLT_learning_01,N,2014_Mrz_11_1628,P26,
stim_fb/ques.jpg,stim_fb/posf.jpg,stim_fb/negf.jpg,stim_01/f.jpg,stim_01/e.jpg,1,3,f,0,56,56,46,j,0,0.816473465336,01,01,60.0118694018,PLT_learning_01,N,2014_Mrz_11_1628,P26,
stim_fb/ques.jpg,stim_fb/negf.jpg,stim_fb/posf.jpg,stim_01/e.jpg,stim_01/f.jpg,2,3,j,0,57,57,51,f,0,0.716467564651,01,01,60.0118694018,PLT_learning_01,N,2014_Mrz_11_1628,P26,
stim_fb/ques.jpg,stim_fb/negf.jpg,stim_fb/posf.jpg,stim_01/b.jpg,stim_01/a.jpg,1,1,f,0,58,58,3,f,1,1.09969242753,01,01,60.0118694018,PLT_learning_01,N,2014_Mrz_11_1628,P26,
stim_fb/ques.jpg,stim_fb/negf.jpg,stim_fb/posf.jpg,stim_01/b.jpg,stim_01/a.jpg,1,1,f,0,59,59,5,f,1,0.933076457033,01,01,60.0118694018,PLT_learning_01,N,2014_Mrz_11_1628,P26,
stim_fb/ques.jpg,stim_fb/posf.jpg,stim_fb/negf.jpg,stim_01/d.jpg,stim_01/c.jpg,1,2,f,1,0,60,28,f,1,1.033048319,01,01,60.0118694018,PLT_learning_01,N,2014_Mrz_11_1628,P26,
stim_fb/ques.jpg,stim_fb/posf.jpg,stim_fb/negf.jpg,stim_01/f.jpg,stim_01/e.jpg,1,3,f,1,1,61,49,j,0,0.816406434515,01,01,60.0118694018,PLT_learning_01,N,2014_Mrz_11_1628,P26,
stim_fb/ques.jpg,stim_fb/negf.jpg,stim_fb/posf.jpg,stim_01/c.jpg,stim_01/d.jpg,2,2,j,1,2,62,36,f,0,0.849729842146,01,01,60.0118694018,PLT_learning_01,N,2014_Mrz_11_1628,P26,
stim_fb/ques.jpg,stim_fb/negf.jpg,stim_fb/posf.jpg,stim_01/a.jpg,stim_01/b.jpg,2,1,j,1,3,63,14,j,1,0.916380534054,01,01,60.0118694018,PLT_learning_01,N,2014_Mrz_11_1628,P26,
stim_fb/ques.jpg,stim_fb/posf.jpg,stim_fb/negf.jpg,stim_01/b.jpg,stim_01/a.jpg,1,1,f,1,4,64,9,f,1,0.983057463262,01,01,60.0118694018,PLT_learning_01,N,2014_Mrz_11_1628,P26,
stim_fb/ques.jpg,stim_fb/negf.jpg,stim_fb/posf.jpg,stim_01/f.jpg,stim_01/e.jpg,1,3,f,1,5,65,43,j,0,0.683157934309,01,01,60.0118694018,PLT_learning_01,N,2014_Mrz_11_1628,P26,
stim_fb/ques.jpg,stim_fb/negf.jpg,stim_fb/posf.jpg,stim_01/c.jpg,stim_01/d.jpg,2,2,j,1,6,66,34,j,1,0.783100891344,01,01,60.0118694018,PLT_learning_01,N,2014_Mrz_11_1628,P26,
stim_fb/ques.jpg,stim_fb/negf.jpg,stim_fb/posf.jpg,stim_01/d.jpg,stim_01/c.jpg,1,2,f,1,7,67,23,f,1,0.799729395532,01,01,60.0118694018,PLT_learning_01,N,2014_Mrz_11_1628,P26,
stim_fb/ques.jpg,stim_fb/negf.jpg,stim_fb/posf.jpg,stim_01/d.jpg,stim_01/c.jpg,1,2,f,1,8,68,20,f,1,0.666503695073,01,01,60.0118694018,PLT_learning_01,N,2014_Mrz_11_1628,P26,
stim_fb/ques.jpg,stim_fb/posf.jpg,stim_fb/negf.jpg,stim_01/b.jpg,stim_01/a.jpg,1,1,f,1,9,69,8,j,0,0.9833084078,01,01,60.0118694018,PLT_learning_01,N,2014_Mrz_11_1628,P26,
stim_fb/ques.jpg,stim_fb/negf.jpg,stim_fb/posf.jpg,stim_01/c.jpg,stim_01/d.jpg,2,2,j,1,10,70,31,j,1,0.983096819209,01,01,60.0118694018,PLT_learning_01,N,2014_Mrz_11_1628,P26,
stim_fb/ques.jpg,stim_fb/negf.jpg,stim_fb/posf.jpg,stim_01/b.jpg,stim_01/a.jpg,1,1,f,1,11,71,5,j,0,0.86644844156,01,01,60.0118694018,PLT_learning_01,N,2014_Mrz_11_1628,P26,
stim_fb/ques.jpg,stim_fb/negf.jpg,stim_fb/posf.jpg,stim_01/b.jpg,stim_01/a.jpg,1,1,f,1,12,72,4,f,1,0.883088497498,01,01,60.0118694018,PLT_learning_01,N,2014_Mrz_11_1628,P26,
stim_fb/ques.jpg,stim_fb/negf.jpg,stim_fb/posf.jpg,stim_01/c.jpg,stim_01/d.jpg,2,2,j,1,13,73,33,j,1,0.733107990511,01,01,60.0118694018,PLT_learning_01,N,2014_Mrz_11_1628,P26,
stim_fb/ques.jpg,stim_fb/negf.jpg,stim_fb/posf.jpg,stim_01/e.jpg,stim_01/f.jpg,2,3,j,1,14,74,54,f,0,0.78313918264,01,01,60.0118694018,PLT_learning_01,N,2014_Mrz_11_1628,P26,
stim_fb/ques.jpg,stim_fb/negf.jpg,stim_fb/posf.jpg,stim_01/b.jpg,stim_01/a.jpg,1,1,f,1,15,75,2,j,0,1.01626918193,01,01,60.0118694018,PLT_learning_01,N,2014_Mrz_11_1628,P26,
stim_fb/ques.jpg,stim_fb/negf.jpg,stim_fb/posf.jpg,stim_01/c.jpg,stim_01/d.jpg,2,2,j,1,16,76,35,j,1,0.649830944763,01,01,60.0118694018,PLT_learning_01,N,2014_Mrz_11_1628,P26,
stim_fb/ques.jpg,stim_fb/negf.jpg,stim_fb/posf.jpg,stim_01/a.jpg,stim_01/b.jpg,2,1,j,1,17,77,16,f,0,0.816452833989,01,01,60.0118694018,PLT_learning_01,N,2014_Mrz_11_1628,P26,
stim_fb/ques.jpg,stim_fb/negf.jpg,stim_fb/posf.jpg,stim_01/d.jpg,stim_01/c.jpg,1,2,f,1,18,78,24,f,1,0.766471081906,01,01,60.0118694018,PLT_learning_01,N,2014_Mrz_11_1628,P26,
stim_fb/ques.jpg,stim_fb/negf.jpg,stim_fb/posf.jpg,stim_01/b.jpg,stim_01/a.jpg,1,1,f,1,19,79,0,f,1,0.849776334853,01,01,60.0118694018,PLT_learning_01,N,2014_Mrz_11_1628,P26,
stim_fb/ques.jpg,stim_fb/negf.jpg,stim_fb/posf.jpg,stim_01/b.jpg,stim_01/a.jpg,1,1,f,1,20,80,6,f,1,0.683161931256,01,01,60.0118694018,PLT_learning_01,N,2014_Mrz_11_1628,P26,
stim_fb/ques.jpg,stim_fb/posf.jpg,stim_fb/negf.jpg,stim_01/e.jpg,stim_01/f.jpg,2,3,j,1,21,81,59,f,0,0.999712884442,01,01,60.0118694018,PLT_learning_01,N,2014_Mrz_11_1628,P26,
stim_fb/ques.jpg,stim_fb/negf.jpg,stim_fb/posf.jpg,stim_01/a.jpg,stim_01/b.jpg,2,1,j,1,22,82,10,f,0,0.816403099212,01,01,60.0118694018,PLT_learning_01,N,2014_Mrz_11_1628,P26,
stim_fb/ques.jpg,stim_fb/posf.jpg,stim_fb/negf.jpg,stim_01/e.jpg,stim_01/f.jpg,2,3,j,1,23,83,58,f,0,0.949687764423,01,01,60.0118694018,PLT_learning_01,N,2014_Mrz_11_1628,P26,
stim_fb/ques.jpg,stim_fb/posf.jpg,stim_fb/negf.jpg,stim_01/d.jpg,stim_01/c.jpg,1,2,f,1,24,84,29,f,1,0.983043144626,01,01,60.0118694018,PLT_learning_01,N,2014_Mrz_11_1628,P26,
stim_fb/ques.jpg,stim_fb/negf.jpg,stim_fb/posf.jpg,stim_01/e.jpg,stim_01/f.jpg,2,3,j,1,25,85,55,f,0,0.766453274588,01,01,60.0118694018,PLT_learning_01,N,2014_Mrz_11_1628,P26,
stim_fb/ques.jpg,stim_fb/negf.jpg,stim_fb/posf.jpg,stim_01/e.jpg,stim_01/f.jpg,2,3,j,1,26,86,53,f,0,0.716562980117,01,01,60.0118694018,PLT_learning_01,N,2014_Mrz_11_1628,P26,
stim_fb/ques.jpg,stim_fb/negf.jpg,stim_fb/posf.jpg,stim_01/f.jpg,stim_01/e.jpg,1,3,f,1,27,87,42,j,0,0.966391157996,01,01,60.0118694018,PLT_learning_01,N,2014_Mrz_11_1628,P26,
stim_fb/ques.jpg,stim_fb/posf.jpg,stim_fb/negf.jpg,stim_01/c.jpg,stim_01/d.jpg,2,2,j,1,28,88,37,j,1,0.76647156611,01,01,60.0118694018,PLT_learning_01,N,2014_Mrz_11_1628,P26,
stim_fb/ques.jpg,stim_fb/negf.jpg,stim_fb/posf.jpg,stim_01/e.jpg,stim_01/f.jpg,2,3,j,1,29,89,50,f,0,0.783130208307,01,01,60.0118694018,PLT_learning_01,N,2014_Mrz_11_1628,P26,
stim_fb/ques.jpg,stim_fb/posf.jpg,stim_fb/negf.jpg,stim_01/a.jpg,stim_01/b.jpg,2,1,j,1,30,90,19,j,1,1.04966840224,01,01,60.0118694018,PLT_learning_01,N,2014_Mrz_11_1628,P26,
stim_fb/ques.jpg,stim_fb/negf.jpg,stim_fb/posf.jpg,stim_01/d.jpg,stim_01/c.jpg,1,2,f,1,31,91,21,j,0,0.933065187986,01,01,60.0118694018,PLT_learning_01,N,2014_Mrz_11_1628,P26,
stim_fb/ques.jpg,stim_fb/posf.jpg,stim_fb/negf.jpg,stim_01/d.jpg,stim_01/c.jpg,1,2,f,1,32,92,27,f,1,0.716352209562,01,01,60.0118694018,PLT_learning_01,N,2014_Mrz_11_1628,P26,
stim_fb/ques.jpg,stim_fb/negf.jpg,stim_fb/posf.jpg,stim_01/f.jpg,stim_01/e.jpg,1,3,f,1,33,93,41,f,1,0.999744114164,01,01,60.0118694018,PLT_learning_01,N,2014_Mrz_11_1628,P26,
stim_fb/ques.jpg,stim_fb/negf.jpg,stim_fb/posf.jpg,stim_01/d.jpg,stim_01/c.jpg,1,2,f,1,34,94,22,j,0,0.83309994549,01,01,60.0118694018,PLT_learning_01,N,2014_Mrz_11_1628,P26,
stim_fb/ques.jpg,stim_fb/negf.jpg,stim_fb/posf.jpg,stim_01/a.jpg,stim_01/b.jpg,2,1,j,1,35,95,17,f,0,0.916429168092,01,01,60.0118694018,PLT_learning_01,N,2014_Mrz_11_1628,P26,
stim_fb/ques.jpg,stim_fb/negf.jpg,stim_fb/posf.jpg,stim_01/c.jpg,stim_01/d.jpg,2,2,j,1,36,96,32,f,0,0.766461662462,01,01,60.0118694018,PLT_learning_01,N,2014_Mrz_11_1628,P26,
stim_fb/ques.jpg,stim_fb/posf.jpg,stim_fb/negf.jpg,stim_01/f.jpg,stim_01/e.jpg,1,3,f,1,37,97,48,j,0,1.11639453089,01,01,60.0118694018,PLT_learning_01,N,2014_Mrz_11_1628,P26,
stim_fb/ques.jpg,stim_fb/posf.jpg,stim_fb/negf.jpg,stim_01/f.jpg,stim_01/e.jpg,1,3,f,1,38,98,46,j,0,0.516515380654,01,01,60.0118694018,PLT_learning_01,N,2014_Mrz_11_1628,P26,
stim_fb/ques.jpg,stim_fb/posf.jpg,stim_fb/negf.jpg,stim_01/a.jpg,stim_01/b.jpg,2,1,j,1,39,99,18,f,0,0.799764029729,01,01,60.0118694018,PLT_learning_01,N,2014_Mrz_11_1628,P26,
stim_fb/ques.jpg,stim_fb/negf.jpg,stim_fb/posf.jpg,stim_01/f.jpg,stim_01/e.jpg,1,3,f,1,40,100,40,j,0,0.833114739307,01,01,60.0118694018,PLT_learning_01,N,2014_Mrz_11_1628,P26,
stim_fb/ques.jpg,stim_fb/negf.jpg,stim_fb/posf.jpg,stim_01/a.jpg,stim_01/b.jpg,2,1,j,1,41,101,12,f,0,0.866419268954,01,01,60.0118694018,PLT_learning_01,N,2014_Mrz_11_1628,P26,
stim_fb/ques.jpg,stim_fb/negf.jpg,stim_fb/posf.jpg,stim_01/d.jpg,stim_01/c.jpg,1,2,f,1,42,102,26,f,1,0.916368711632,01,01,60.0118694018,PLT_learning_01,N,2014_Mrz_11_1628,P26,
stim_fb/ques.jpg,stim_fb/posf.jpg,stim_fb/negf.jpg,stim_01/e.jpg,stim_01/f.jpg,2,3,j,1,43,103,57,f,0,0.933063025606,01,01,60.0118694018,PLT_learning_01,N,2014_Mrz_11_1628,P26,
stim_fb/ques.jpg,stim_fb/posf.jpg,stim_fb/negf.jpg,stim_01/c.jpg,stim_01/d.jpg,2,2,j,1,44,104,39,j,1,0.783120530219,01,01,60.0118694018,PLT_learning_01,N,2014_Mrz_11_1628,P26,
stim_fb/ques.jpg,stim_fb/posf.jpg,stim_fb/negf.jpg,stim_01/e.jpg,stim_01/f.jpg,2,3,j,1,45,105,56,f,0,0.799781524269,01,01,60.0118694018,PLT_learning_01,N,2014_Mrz_11_1628,P26,
stim_fb/ques.jpg,stim_fb/negf.jpg,stim_fb/posf.jpg,stim_01/b.jpg,stim_01/a.jpg,1,1,f,1,46,106,3,j,0,0.83305898956,01,01,60.0118694018,PLT_learning_01,N,2014_Mrz_11_1628,P26,
stim_fb/ques.jpg,stim_fb/negf.jpg,stim_fb/posf.jpg,stim_01/a.jpg,stim_01/b.jpg,2,1,j,1,47,107,13,f,0,0.683126190304,01,01,60.0118694018,PLT_learning_01,N,2014_Mrz_11_1628,P26,
stim_fb/ques.jpg,stim_fb/negf.jpg,stim_fb/posf.jpg,stim_01/e.jpg,stim_01/f.jpg,2,3,j,1,48,108,52,f,0,0.599846446845,01,01,60.0118694018,PLT_learning_01,N,2014_Mrz_11_1628,P26,
stim_fb/ques.jpg,stim_fb/negf.jpg,stim_fb/posf.jpg,stim_01/a.jpg,stim_01/b.jpg,2,1,j,1,49,109,15,f,0,0.816459645943,01,01,60.0118694018,PLT_learning_01,N,2014_Mrz_11_1628,P26,
stim_fb/ques.jpg,stim_fb/posf.jpg,stim_fb/negf.jpg,stim_01/f.jpg,stim_01/e.jpg,1,3,f,1,50,110,47,j,0,0.783076635978,01,01,60.0118694018,PLT_learning_01,N,2014_Mrz_11_1628,P26,
stim_fb/ques.jpg,stim_fb/negf.jpg,stim_fb/posf.jpg,stim_01/c.jpg,stim_01/d.jpg,2,2,j,1,51,111,30,j,1,0.849738154831,01,01,60.0118694018,PLT_learning_01,N,2014_Mrz_11_1628,P26,
stim_fb/ques.jpg,stim_fb/negf.jpg,stim_fb/posf.jpg,stim_01/f.jpg,stim_01/e.jpg,1,3,f,1,52,112,45,j,0,0.833133418797,01,01,60.0118694018,PLT_learning_01,N,2014_Mrz_11_1628,P26,
stim_fb/ques.jpg,stim_fb/negf.jpg,stim_fb/posf.jpg,stim_01/d.jpg,stim_01/c.jpg,1,2,f,1,53,113,25,f,1,0.616459143694,01,01,60.0118694018,PLT_learning_01,N,2014_Mrz_11_1628,P26,
stim_fb/ques.jpg,stim_fb/negf.jpg,stim_fb/posf.jpg,stim_01/b.jpg,stim_01/a.jpg,1,1,f,1,54,114,1,j,0,0.583150072744,01,01,60.0118694018,PLT_learning_01,N,2014_Mrz_11_1628,P26,
stim_fb/ques.jpg,stim_fb/negf.jpg,stim_fb/posf.jpg,stim_01/e.jpg,stim_01/f.jpg,2,3,j,1,55,115,51,f,0,0.783208595392,01,01,60.0118694018,PLT_learning_01,N,2014_Mrz_11_1628,P26,
stim_fb/ques.jpg,stim_fb/negf.jpg,stim_fb/posf.jpg,stim_01/a.jpg,stim_01/b.jpg,2,1,j,1,56,116,11,f,0,0.949734696225,01,01,60.0118694018,PLT_learning_01,N,2014_Mrz_11_1628,P26,
stim_fb/ques.jpg,stim_fb/negf.jpg,stim_fb/posf.jpg,stim_01/b.jpg,stim_01/a.jpg,1,1,f,1,57,117,7,f,1,0.883099928948,01,01,60.0118694018,PLT_learning_01,N,2014_Mrz_11_1628,P26,
stim_fb/ques.jpg,stim_fb/negf.jpg,stim_fb/posf.jpg,stim_01/f.jpg,stim_01/e.jpg,1,3,f,1,58,118,44,j,0,0.716447342324,01,01,60.0118694018,PLT_learning_01,N,2014_Mrz_11_1628,P26,
stim_fb/ques.jpg,stim_fb/posf.jpg,stim_fb/negf.jpg,stim_01/c.jpg,stim_01/d.jpg,2,2,j,1,59,119,38,j,1,0.866426243312,01,01,60.0118694018,PLT_learning_01,N,2014_Mrz_11_1628,P26,
stim_fb/ques.jpg,stim_fb/negf.jpg,stim_fb/posf.jpg,stim_01/c.jpg,stim_01/d.jpg,2,2,j,2,0,120,33,f,0,0.866425560613,01,01,60.0118694018,PLT_learning_01,N,2014_Mrz_11_1628,P26,
stim_fb/ques.jpg,stim_fb/negf.jpg,stim_fb/posf.jpg,stim_01/b.jpg,stim_01/a.jpg,1,1,f,2,1,121,5,f,1,1.04974196531,01,01,60.0118694018,PLT_learning_01,N,2014_Mrz_11_1628,P26,
stim_fb/ques.jpg,stim_fb/negf.jpg,stim_fb/posf.jpg,stim_01/f.jpg,stim_01/e.jpg,1,3,f,2,2,122,43,j,0,0.733124682052,01,01,60.0118694018,PLT_learning_01,N,2014_Mrz_11_1628,P26,
stim_fb/ques.jpg,stim_fb/negf.jpg,stim_fb/posf.jpg,stim_01/c.jpg,stim_01/d.jpg,2,2,j,2,3,123,36,f,0,1.23302877938,01,01,60.0118694018,PLT_learning_01,N,2014_Mrz_11_1628,P26,
stim_fb/ques.jpg,stim_fb/posf.jpg,stim_fb/negf.jpg,stim_01/b.jpg,stim_01/a.jpg,1,1,f,2,4,124,9,f,1,1.06637616568,01,01,60.0118694018,PLT_learning_01,N,2014_Mrz_11_1628,P26,
stim_fb/ques.jpg,stim_fb/posf.jpg,stim_fb/negf.jpg,stim_01/d.jpg,stim_01/c.jpg,1,2,f,2,5,125,29,j,0,1.14970618828,01,01,60.0118694018,PLT_learning_01,N,2014_Mrz_11_1628,P26,
stim_fb/ques.jpg,stim_fb/negf.jpg,stim_fb/posf.jpg,stim_01/e.jpg,stim_01/f.jpg,2,3,j,2,6,126,52,f,0,0.833110619054,01,01,60.0118694018,PLT_learning_01,N,2014_Mrz_11_1628,P26,
stim_fb/ques.jpg,stim_fb/posf.jpg,stim_fb/negf.jpg,stim_01/f.jpg,stim_01/e.jpg,1,3,f,2,7,127,47,j,0,0.649811501373,01,01,60.0118694018,PLT_learning_01,N,2014_Mrz_11_1628,P26,
stim_fb/ques.jpg,stim_fb/negf.jpg,stim_fb/posf.jpg,stim_01/f.jpg,stim_01/e.jpg,1,3,f,2,8,128,45,j,0,0.54986995485,01,01,60.0118694018,PLT_learning_01,N,2014_Mrz_11_1628,P26,
stim_fb/ques.jpg,stim_fb/negf.jpg,stim_fb/posf.jpg,stim_01/a.jpg,stim_01/b.jpg,2,1,j,2,9,129,17,j,1,0.983056973042,01,01,60.0118694018,PLT_learning_01,N,2014_Mrz_11_1628,P26,
stim_fb/ques.jpg,stim_fb/negf.jpg,stim_fb/posf.jpg,stim_01/b.jpg,stim_01/a.jpg,1,1,f,2,10,130,1,f,1,0.783307619839,01,01,60.0118694018,PLT_learning_01,N,2014_Mrz_11_1628,P26,
stim_fb/ques.jpg,stim_fb/negf.jpg,stim_fb/posf.jpg,stim_01/d.jpg,stim_01/c.jpg,1,2,f,2,11,131,25,f,1,0.933035561253,01,01,60.0118694018,PLT_learning_01,N,2014_Mrz_11_1628,P26,
stim_fb/ques.jpg,stim_fb/negf.jpg,stim_fb/posf.jpg,stim_01/c.jpg,stim_01/d.jpg,2,2,j,2,12,132,31,j,1,0.93307014733,01,01,60.0118694018,PLT_learning_01,N,2014_Mrz_11_1628,P26,
stim_fb/ques.jpg,stim_fb/negf.jpg,stim_fb/posf.jpg,stim_01/c.jpg,stim_01/d.jpg,2,2,j,2,13,133,35,j,1,0.666518669337,01,01,60.0118694018,PLT_learning_01,N,2014_Mrz_11_1628,P26,
stim_fb/ques.jpg,stim_fb/negf.jpg,stim_fb/posf.jpg,stim_01/f.jpg,stim_01/e.jpg,1,3,f,2,14,134,44,f,1,0.849769246212,01,01,60.0118694018,PLT_learning_01,N,2014_Mrz_11_1628,P26,
stim_fb/ques.jpg,stim_fb/negf.jpg,stim_fb/posf.jpg,stim_01/a.jpg,stim_01/b.jpg,2,1,j,2,15,135,16,j,1,0.966432486852,01,01,60.0118694018,PLT_learning_01,N,2014_Mrz_11_1628,P26,
stim_fb/ques.jpg,stim_fb/posf.jpg,stim_fb/negf.jpg,stim_01/e.jpg,stim_01/f.jpg,2,3,j,2,16,136,57,j,1,1.01638616106,01,01,60.0118694018,PLT_learning_01,N,2014_Mrz_11_1628,P26,
stim_fb/ques.jpg,stim_fb/posf.jpg,stim_fb/negf.jpg,stim_01/e.jpg,stim_01/f.jpg,2,3,j,2,17,137,58,f,0,0.583200436085,01,01,60.0118694018,PLT_learning_01,N,2014_Mrz_11_1628,P26,
stim_fb/ques.jpg,stim_fb/posf.jpg,stim_fb/negf.jpg,stim_01/a.jpg,stim_01/b.jpg,2,1,j,2,18,138,18,j,1,0.799799987219,01,01,60.0118694018,PLT_learning_01,N,2014_Mrz_11_1628,P26,
stim_fb/ques.jpg,stim_fb/negf.jpg,stim_fb/posf.jpg,stim_01/b.jpg,stim_01/a.jpg,1,1,f,2,19,139,0,j,0,1.13299978722,01,01,60.0118694018,PLT_learning_01,N,2014_Mrz_11_1628,P26,
stim_fb/ques.jpg,stim_fb/negf.jpg,stim_fb/posf.jpg,stim_01/a.jpg,stim_01/b.jpg,2,1,j,2,20,140,10,f,0,0.799784080631,01,01,60.0118694018,PLT_learning_01,N,2014_Mrz_11_1628,P26,
stim_fb/ques.jpg,stim_fb/posf.jpg,stim_fb/negf.jpg,stim_01/b.jpg,stim_01/a.jpg,1,1,f,2,21,141,8,f,1,0.716339196175,01,01,60.0118694018,PLT_learning_01,N,2014_Mrz_11_1628,P26,
stim_fb/ques.jpg,stim_fb/negf.jpg,stim_fb/posf.jpg,stim_01/b.jpg,stim_01/a.jpg,1,1,f,2,22,142,2,f,1,0.999703720634,01,01,60.0118694018,PLT_learning_01,N,2014_Mrz_11_1628,P26,
stim_fb/ques.jpg,stim_fb/negf.jpg,stim_fb/posf.jpg,stim_01/e.jpg,stim_01/f.jpg,2,3,j,2,23,143,55,f,0,1.03308762082,01,01,60.0118694018,PLT_learning_01,N,2014_Mrz_11_1628,P26,
stim_fb/ques.jpg,stim_fb/negf.jpg,stim_fb/posf.jpg,stim_01/f.jpg,stim_01/e.jpg,1,3,f,2,24,144,40,j,0,0.616507813822,01,01,60.0118694018,PLT_learning_01,N,2014_Mrz_11_1628,P26,
stim_fb/ques.jpg,stim_fb/negf.jpg,stim_fb/posf.jpg,stim_01/d.jpg,stim_01/c.jpg,1,2,f,2,25,145,20,f,1,0.81645049116,01,01,60.0118694018,PLT_learning_01,N,2014_Mrz_11_1628,P26,
stim_fb/ques.jpg,stim_fb/negf.jpg,stim_fb/posf.jpg,stim_01/a.jpg,stim_01/b.jpg,2,1,j,2,26,146,13,j,1,0.849782385912,01,01,60.0118694018,PLT_learning_01,N,2014_Mrz_11_1628,P26,
stim_fb/ques.jpg,stim_fb/negf.jpg,stim_fb/posf.jpg,stim_01/d.jpg,stim_01/c.jpg,1,2,f,2,27,147,24,f,1,0.949746088578,01,01,60.0118694018,PLT_learning_01,N,2014_Mrz_11_1628,P26,
stim_fb/ques.jpg,stim_fb/negf.jpg,stim_fb/posf.jpg,stim_01/c.jpg,stim_01/d.jpg,2,2,j,2,28,148,34,j,1,0.983047063379,01,01,60.0118694018,PLT_learning_01,N,2014_Mrz_11_1628,P26,
stim_fb/ques.jpg,stim_fb/negf.jpg,stim_fb/posf.jpg,stim_01/e.jpg,stim_01/f.jpg,2,3,j,2,29,149,50,f,0,1.11636099142,01,01,60.0118694018,PLT_learning_01,N,2014_Mrz_11_1628,P26,
stim_fb/ques.jpg,stim_fb/posf.jpg,stim_fb/negf.jpg,stim_01/f.jpg,stim_01/e.jpg,1,3,f,2,30,150,48,j,0,0.666502371778,01,01,60.0118694018,PLT_learning_01,N,2014_Mrz_11_1628,P26,
stim_fb/ques.jpg,stim_fb/negf.jpg,stim_fb/posf.jpg,stim_01/b.jpg,stim_01/a.jpg,1,1,f,2,31,151,7,f,1,1.01637053116,01,01,60.0118694018,PLT_learning_01,N,2014_Mrz_11_1628,P26,
stim_fb/ques.jpg,stim_fb/negf.jpg,stim_fb/posf.jpg,stim_01/d.jpg,stim_01/c.jpg,1,2,f,2,32,152,21,f,1,0.516470818749,01,01,60.0118694018,PLT_learning_01,N,2014_Mrz_11_1628,P26,
stim_fb/ques.jpg,stim_fb/negf.jpg,stim_fb/posf.jpg,stim_01/f.jpg,stim_01/e.jpg,1,3,f,2,33,153,41,f,1,0.866419957669,01,01,60.0118694018,PLT_learning_01,N,2014_Mrz_11_1628,P26,
stim_fb/ques.jpg,stim_fb/posf.jpg,stim_fb/negf.jpg,stim_01/a.jpg,stim_01/b.jpg,2,1,j,2,34,154,19,j,1,0.816392942937,01,01,60.0118694018,PLT_learning_01,N,2014_Mrz_11_1628,P26,
stim_fb/ques.jpg,stim_fb/negf.jpg,stim_fb/posf.jpg,stim_01/b.jpg,stim_01/a.jpg,1,1,f,2,35,155,3,j,0,0.899746309628,01,01,60.0118694018,PLT_learning_01,N,2014_Mrz_11_1628,P26,
stim_fb/ques.jpg,stim_fb/negf.jpg,stim_fb/posf.jpg,stim_01/c.jpg,stim_01/d.jpg,2,2,j,2,36,156,30,j,1,0.883098924449,01,01,60.0118694018,PLT_learning_01,N,2014_Mrz_11_1628,P26,
stim_fb/ques.jpg,stim_fb/posf.jpg,stim_fb/negf.jpg,stim_01/d.jpg,stim_01/c.jpg,1,2,f,2,37,157,28,f,1,0.58322645083,01,01,60.0118694018,PLT_learning_01,N,2014_Mrz_11_1628,P26,
stim_fb/ques.jpg,stim_fb/negf.jpg,stim_fb/posf.jpg,stim_01/b.jpg,stim_01/a.jpg,1,1,f,2,38,158,6,f,1,0.949772166479,01,01,60.0118694018,PLT_learning_01,N,2014_Mrz_11_1628,P26,
stim_fb/ques.jpg,stim_fb/posf.jpg,stim_fb/negf.jpg,stim_01/c.jpg,stim_01/d.jpg,2,2,j,2,39,159,39,j,1,0.933082417867,01,01,60.0118694018,PLT_learning_01,N,2014_Mrz_11_1628,P26,
stim_fb/ques.jpg,stim_fb/negf.jpg,stim_fb/posf.jpg,stim_01/e.jpg,stim_01/f.jpg,2,3,j,2,40,160,54,j,1,0.916417005823,01,01,60.0118694018,PLT_learning_01,N,2014_Mrz_11_1628,P26,
stim_fb/ques.jpg,stim_fb/negf.jpg,stim_fb/posf.jpg,stim_01/d.jpg,stim_01/c.jpg,1,2,f,2,41,161,23,j,0,0.949733793979,01,01,60.0118694018,PLT_learning_01,N,2014_Mrz_11_1628,P26,
stim_fb/ques.jpg,stim_fb/negf.jpg,stim_fb/posf.jpg,stim_01/d.jpg,stim_01/c.jpg,1,2,f,2,42,162,26,f,1,0.833081945693,01,01,60.0118694018,PLT_learning_01,N,2014_Mrz_11_1628,P26,
stim_fb/ques.jpg,stim_fb/negf.jpg,stim_fb/posf.jpg,stim_01/a.jpg,stim_01/b.jpg,2,1,j,2,43,163,15,j,1,1.01633729244,01,01,60.0118694018,PLT_learning_01,N,2014_Mrz_11_1628,P26,
stim_fb/ques.jpg,stim_fb/negf.jpg,stim_fb/posf.jpg,stim_01/a.jpg,stim_01/b.jpg,2,1,j,2,44,164,12,j,1,1.31626375943,01,01,60.0118694018,PLT_learning_01,N,2014_Mrz_11_1628,P26,
stim_fb/ques.jpg,stim_fb/posf.jpg,stim_fb/negf.jpg,stim_01/c.jpg,stim_01/d.jpg,2,2,j,2,45,165,37,j,1,1.14954125179,01,01,60.0118694018,PLT_learning_01,N,2014_Mrz_11_1628,P26,
stim_fb/ques.jpg,stim_fb/negf.jpg,stim_fb/posf.jpg,stim_01/a.jpg,stim_01/b.jpg,2,1,j,2,46,166,14,j,1,0.983045027311,01,01,60.0118694018,PLT_learning_01,N,2014_Mrz_11_1628,P26,
stim_fb/ques.jpg,stim_fb/posf.jpg,stim_fb/negf.jpg,stim_01/e.jpg,stim_01/f.jpg,2,3,j,2,47,167,56,f,0,1.08306336094,01,01,60.0118694018,PLT_learning_01,N,2014_Mrz_11_1628,P26,
stim_fb/ques.jpg,stim_fb/negf.jpg,stim_fb/posf.jpg,stim_01/e.jpg,stim_01/f.jpg,2,3,j,2,48,168,53,f,0,0.983060470746,01,01,60.0118694018,PLT_learning_01,N,2014_Mrz_11_1628,P26,
stim_fb/ques.jpg,stim_fb/negf.jpg,stim_fb/posf.jpg,stim_01/d.jpg,stim_01/c.jpg,1,2,f,2,49,169,22,f,1,0.749792999328,01,01,60.0118694018,PLT_learning_01,N,2014_Mrz_11_1628,P26,
stim_fb/ques.jpg,stim_fb/posf.jpg,stim_fb/negf.jpg,stim_01/d.jpg,stim_01/c.jpg,1,2,f,2,50,170,27,f,1,0.69981213445,01,01,60.0118694018,PLT_learning_01,N,2014_Mrz_11_1628,P26,
stim_fb/ques.jpg,stim_fb/posf.jpg,stim_fb/negf.jpg,stim_01/f.jpg,stim_01/e.jpg,1,3,f,2,51,171,49,j,0,0.899758784675,01,01,60.0118694018,PLT_learning_01,N,2014_Mrz_11_1628,P26,
stim_fb/ques.jpg,stim_fb/negf.jpg,stim_fb/posf.jpg,stim_01/c.jpg,stim_01/d.jpg,2,2,j,2,52,172,32,j,1,0.733166065043,01,01,60.0118694018,PLT_learning_01,N,2014_Mrz_11_1628,P26,
stim_fb/ques.jpg,stim_fb/negf.jpg,stim_fb/posf.jpg,stim_01/e.jpg,stim_01/f.jpg,2,3,j,2,53,173,51,f,0,0.733131683477,01,01,60.0118694018,PLT_learning_01,N,2014_Mrz_11_1628,P26,
stim_fb/ques.jpg,stim_fb/negf.jpg,stim_fb/posf.jpg,stim_01/b.jpg,stim_01/a.jpg,1,1,f,2,54,174,4,f,1,0.933094772616,01,01,60.0118694018,PLT_learning_01,N,2014_Mrz_11_1628,P26,
stim_fb/ques.jpg,stim_fb/posf.jpg,stim_fb/negf.jpg,stim_01/f.jpg,stim_01/e.jpg,1,3,f,2,55,175,46,j,0,0.866968910877,01,01,60.0118694018,PLT_learning_01,N,2014_Mrz_11_1628,P26,
stim_fb/ques.jpg,stim_fb/negf.jpg,stim_fb/posf.jpg,stim_01/a.jpg,stim_01/b.jpg,2,1,j,2,56,176,11,j,1,1.36626030233,01,01,60.0118694018,PLT_learning_01,N,2014_Mrz_11_1628,P26,
stim_fb/ques.jpg,stim_fb/posf.jpg,stim_fb/negf.jpg,stim_01/e.jpg,stim_01/f.jpg,2,3,j,2,57,177,59,f,0,0.733123848979,01,01,60.0118694018,PLT_learning_01,N,2014_Mrz_11_1628,P26,
stim_fb/ques.jpg,stim_fb/negf.jpg,stim_fb/posf.jpg,stim_01/f.jpg,stim_01/e.jpg,1,3,f,2,58,178,42,f,1,1.03304318222,01,01,60.0118694018,PLT_learning_01,N,2014_Mrz_11_1628,P26,
stim_fb/ques.jpg,stim_fb/posf.jpg,stim_fb/negf.jpg,stim_01/c.jpg,stim_01/d.jpg,2,2,j,2,59,179,38,j,1,0.666533330828,01,01,60.0118694018,PLT_learning_01,N,2014_Mrz_11_1628,P26,
stim_fb/ques.jpg,stim_fb/negf.jpg,stim_fb/posf.jpg,stim_01/e.jpg,stim_01/f.jpg,2,3,j,3,0,180,52,f,0,0.882952748654,01,01,60.0118694018,PLT_learning_01,N,2014_Mrz_11_1628,P26,
stim_fb/ques.jpg,stim_fb/posf.jpg,stim_fb/negf.jpg,stim_01/b.jpg,stim_01/a.jpg,1,1,f,3,1,181,9,j,0,0.333276006662,01,01,60.0118694018,PLT_learning_01,N,2014_Mrz_11_1628,P26,
stim_fb/ques.jpg,stim_fb/negf.jpg,stim_fb/posf.jpg,stim_01/a.jpg,stim_01/b.jpg,2,1,j,3,2,182,17,f,0,0.916451288143,01,01,60.0118694018,PLT_learning_01,N,2014_Mrz_11_1628,P26,
stim_fb/ques.jpg,stim_fb/negf.jpg,stim_fb/posf.jpg,stim_01/e.jpg,stim_01/f.jpg,2,3,j,3,3,183,50,j,1,0.583174592766,01,01,60.0118694018,PLT_learning_01,N,2014_Mrz_11_1628,P26,
stim_fb/ques.jpg,stim_fb/negf.jpg,stim_fb/posf.jpg,stim_01/b.jpg,stim_01/a.jpg,1,1,f,3,4,184,0,f,1,1.04969254031,01,01,60.0118694018,PLT_learning_01,N,2014_Mrz_11_1628,P26,
stim_fb/ques.jpg,stim_fb/negf.jpg,stim_fb/posf.jpg,stim_01/f.jpg,stim_01/e.jpg,1,3,f,3,5,185,40,j,0,0.78312765796,01,01,60.0118694018,PLT_learning_01,N,2014_Mrz_11_1628,P26,
stim_fb/ques.jpg,stim_fb/negf.jpg,stim_fb/posf.jpg,stim_01/d.jpg,stim_01/c.jpg,1,2,f,3,6,186,21,f,1,0.733136137562,01,01,60.0118694018,PLT_learning_01,N,2014_Mrz_11_1628,P26,
stim_fb/ques.jpg,stim_fb/posf.jpg,stim_fb/negf.jpg,stim_01/c.jpg,stim_01/d.jpg,2,2,j,3,7,187,38,j,1,0.716476948004,01,01,60.0118694018,PLT_learning_01,N,2014_Mrz_11_1628,P26,
stim_fb/ques.jpg,stim_fb/negf.jpg,stim_fb/posf.jpg,stim_01/b.jpg,stim_01/a.jpg,1,1,f,3,8,188,6,f,1,0.683163254551,01,01,60.0118694018,PLT_learning_01,N,2014_Mrz_11_1628,P26,
stim_fb/ques.jpg,stim_fb/posf.jpg,stim_fb/negf.jpg,stim_01/d.jpg,stim_01/c.jpg,1,2,f,3,9,189,29,j,0,1.08305977301,01,01,60.0118694018,PLT_learning_01,N,2014_Mrz_11_1628,P26,
stim_fb/ques.jpg,stim_fb/negf.jpg,stim_fb/posf.jpg,stim_01/b.jpg,stim_01/a.jpg,1,1,f,3,10,190,3,f,1,0.916400825556,01,01,60.0118694018,PLT_learning_01,N,2014_Mrz_11_1628,P26,
stim_fb/ques.jpg,stim_fb/negf.jpg,stim_fb/posf.jpg,stim_01/f.jpg,stim_01/e.jpg,1,3,f,3,11,191,44,f,1,0.966349672748,01,01,60.0118694018,PLT_learning_01,N,2014_Mrz_11_1628,P26,
stim_fb/ques.jpg,stim_fb/negf.jpg,stim_fb/posf.jpg,stim_01/c.jpg,stim_01/d.jpg,2,2,j,3,12,192,31,f,0,1.01638966177,01,01,60.0118694018,PLT_learning_01,N,2014_Mrz_11_1628,P26,
stim_fb/ques.jpg,stim_fb/negf.jpg,stim_fb/posf.jpg,stim_01/a.jpg,stim_01/b.jpg,2,1,j,3,13,193,10,j,1,0.966383425752,01,01,60.0118694018,PLT_learning_01,N,2014_Mrz_11_1628,P26,
stim_fb/ques.jpg,stim_fb/negf.jpg,stim_fb/posf.jpg,stim_01/c.jpg,stim_01/d.jpg,2,2,j,3,14,194,35,j,1,0.666508308554,01,01,60.0118694018,PLT_learning_01,N,2014_Mrz_11_1628,P26,
stim_fb/ques.jpg,stim_fb/posf.jpg,stim_fb/negf.jpg,stim_01/f.jpg,stim_01/e.jpg,1,3,f,3,15,195,49,j,0,0.983072981884,01,01,60.0118694018,PLT_learning_01,N,2014_Mrz_11_1628,P26,
stim_fb/ques.jpg,stim_fb/negf.jpg,stim_fb/posf.jpg,stim_01/a.jpg,stim_01/b.jpg,2,1,j,3,16,196,13,f,0,0.866440598038,01,01,60.0118694018,PLT_learning_01,N,2014_Mrz_11_1628,P26,
stim_fb/ques.jpg,stim_fb/negf.jpg,stim_fb/posf.jpg,stim_01/e.jpg,stim_01/f.jpg,2,3,j,3,17,197,51,f,0,0.966410781832,01,01,60.0118694018,PLT_learning_01,N,2014_Mrz_11_1628,P26,
stim_fb/ques.jpg,stim_fb/negf.jpg,stim_fb/posf.jpg,stim_01/b.jpg,stim_01/a.jpg,1,1,f,3,18,198,4,f,1,0.916408449528,01,01,60.0118694018,PLT_learning_01,N,2014_Mrz_11_1628,P26,
stim_fb/ques.jpg,stim_fb/posf.jpg,stim_fb/negf.jpg,stim_01/d.jpg,stim_01/c.jpg,1,2,f,3,19,199,27,j,0,0.966412396852,01,01,60.0118694018,PLT_learning_01,N,2014_Mrz_11_1628,P26,
stim_fb/ques.jpg,stim_fb/negf.jpg,stim_fb/posf.jpg,stim_01/a.jpg,stim_01/b.jpg,2,1,j,3,20,200,11,j,1,1.08306972177,01,01,60.0118694018,PLT_learning_01,N,2014_Mrz_11_1628,P26,
stim_fb/ques.jpg,stim_fb/negf.jpg,stim_fb/posf.jpg,stim_01/c.jpg,stim_01/d.jpg,2,2,j,3,21,201,30,j,1,1.03308290809,01,01,60.0118694018,PLT_learning_01,N,2014_Mrz_11_1628,P26,
stim_fb/ques.jpg,stim_fb/posf.jpg,stim_fb/negf.jpg,stim_01/a.jpg,stim_01/b.jpg,2,1,j,3,22,202,19,f,0,0.933070655594,01,01,60.0118694018,PLT_learning_01,N,2014_Mrz_11_1628,P26,
stim_fb/ques.jpg,stim_fb/negf.jpg,stim_fb/posf.jpg,stim_01/b.jpg,stim_01/a.jpg,1,1,f,3,23,203,2,f,1,1.0996945839,01,01,60.0118694018,PLT_learning_01,N,2014_Mrz_11_1628,P26,
stim_fb/ques.jpg,stim_fb/negf.jpg,stim_fb/posf.jpg,stim_01/a.jpg,stim_01/b.jpg,2,1,j,3,24,204,14,j,1,0.733153851648,01,01,60.0118694018,PLT_learning_01,N,2014_Mrz_11_1628,P26,
stim_fb/ques.jpg,stim_fb/negf.jpg,stim_fb/posf.jpg,stim_01/f.jpg,stim_01/e.jpg,1,3,f,3,25,205,42,f,1,0.666474982612,01,01,60.0118694018,PLT_learning_01,N,2014_Mrz_11_1628,P26,
stim_fb/ques.jpg,stim_fb/negf.jpg,stim_fb/posf.jpg,stim_01/d.jpg,stim_01/c.jpg,1,2,f,3,26,206,24,f,1,0.733093112483,01,01,60.0118694018,PLT_learning_01,N,2014_Mrz_11_1628,P26,
stim_fb/ques.jpg,stim_fb/negf.jpg,stim_fb/posf.jpg,stim_01/b.jpg,stim_01/a.jpg,1,1,f,3,27,207,7,j,0,0.649838968735,01,01,60.0118694018,PLT_learning_01,N,2014_Mrz_11_1628,P26,
stim_fb/ques.jpg,stim_fb/negf.jpg,stim_fb/posf.jpg,stim_01/d.jpg,stim_01/c.jpg,1,2,f,3,28,208,23,f,1,0.666508726594,01,01,60.0118694018,PLT_learning_01,N,2014_Mrz_11_1628,P26,
stim_fb/ques.jpg,stim_fb/negf.jpg,stim_fb/posf.jpg,stim_01/d.jpg,stim_01/c.jpg,1,2,f,3,29,209,26,f,1,0.733127683523,01,01,60.0118694018,PLT_learning_01,N,2014_Mrz_11_1628,P26,
stim_fb/ques.jpg,stim_fb/posf.jpg,stim_fb/negf.jpg,stim_01/f.jpg,stim_01/e.jpg,1,3,f,3,30,210,47,j,0,0.399923453495,01,01,60.0118694018,PLT_learning_01,N,2014_Mrz_11_1628,P26,
stim_fb/ques.jpg,stim_fb/negf.jpg,stim_fb/posf.jpg,stim_01/f.jpg,stim_01/e.jpg,1,3,f,3,31,211,41,f,1,0.583224868891,01,01,60.0118694018,PLT_learning_01,N,2014_Mrz_11_1628,P26,
stim_fb/ques.jpg,stim_fb/posf.jpg,stim_fb/negf.jpg,stim_01/e.jpg,stim_01/f.jpg,2,3,j,3,32,212,59,j,1,0.383246985935,01,01,60.0118694018,PLT_learning_01,N,2014_Mrz_11_1628,P26,
stim_fb/ques.jpg,stim_fb/posf.jpg,stim_fb/negf.jpg,stim_01/f.jpg,stim_01/e.jpg,1,3,f,3,33,213,48,f,1,0.766461542164,01,01,60.0118694018,PLT_learning_01,N,2014_Mrz_11_1628,P26,
stim_fb/ques.jpg,stim_fb/negf.jpg,stim_fb/posf.jpg,stim_01/d.jpg,stim_01/c.jpg,1,2,f,3,34,214,22,f,1,0.683172033398,01,01,60.0118694018,PLT_learning_01,N,2014_Mrz_11_1628,P26,
stim_fb/ques.jpg,stim_fb/negf.jpg,stim_fb/posf.jpg,stim_01/b.jpg,stim_01/a.jpg,1,1,f,3,35,215,1,j,0,0.633185893392,01,01,60.0118694018,PLT_learning_01,N,2014_Mrz_11_1628,P26,
stim_fb/ques.jpg,stim_fb/negf.jpg,stim_fb/posf.jpg,stim_01/d.jpg,stim_01/c.jpg,1,2,f,3,36,216,20,f,1,0.899737987918,01,01,60.0118694018,PLT_learning_01,N,2014_Mrz_11_1628,P26,
stim_fb/ques.jpg,stim_fb/negf.jpg,stim_fb/posf.jpg,stim_01/d.jpg,stim_01/c.jpg,1,2,f,3,37,217,25,f,1,0.616513455863,01,01,60.0118694018,PLT_learning_01,N,2014_Mrz_11_1628,P26,
stim_fb/ques.jpg,stim_fb/posf.jpg,stim_fb/negf.jpg,stim_01/e.jpg,stim_01/f.jpg,2,3,j,3,38,218,56,f,0,0.849811209649,01,01,60.0118694018,PLT_learning_01,N,2014_Mrz_11_1628,P26,
stim_fb/ques.jpg,stim_fb/negf.jpg,stim_fb/posf.jpg,stim_01/f.jpg,stim_01/e.jpg,1,3,f,3,39,219,43,j,0,0.549888760652,01,01,60.0118694018,PLT_learning_01,N,2014_Mrz_11_1628,P26,
stim_fb/ques.jpg,stim_fb/negf.jpg,stim_fb/posf.jpg,stim_01/e.jpg,stim_01/f.jpg,2,3,j,3,40,220,53,f,0,0.533201965392,01,01,60.0118694018,PLT_learning_01,N,2014_Mrz_11_1628,P26,
stim_fb/ques.jpg,stim_fb/negf.jpg,stim_fb/posf.jpg,stim_01/a.jpg,stim_01/b.jpg,2,1,j,3,41,221,15,j,1,0.749796376733,01,01,60.0118694018,PLT_learning_01,N,2014_Mrz_11_1628,P26,
stim_fb/ques.jpg,stim_fb/posf.jpg,stim_fb/negf.jpg,stim_01/a.jpg,stim_01/b.jpg,2,1,j,3,42,222,18,j,1,0.73315337346,01,01,60.0118694018,PLT_learning_01,N,2014_Mrz_11_1628,P26,
stim_fb/ques.jpg,stim_fb/negf.jpg,stim_fb/posf.jpg,stim_01/e.jpg,stim_01/f.jpg,2,3,j,3,43,223,54,f,0,0.69985098514,01,01,60.0118694018,PLT_learning_01,N,2014_Mrz_11_1628,P26,
stim_fb/ques.jpg,stim_fb/negf.jpg,stim_fb/posf.jpg,stim_01/c.jpg,stim_01/d.jpg,2,2,j,3,44,224,36,f,0,0.683132936096,01,01,60.0118694018,PLT_learning_01,N,2014_Mrz_11_1628,P26,
stim_fb/ques.jpg,stim_fb/posf.jpg,stim_fb/negf.jpg,stim_01/e.jpg,stim_01/f.jpg,2,3,j,3,45,225,57,f,0,0.616650774615,01,01,60.0118694018,PLT_learning_01,N,2014_Mrz_11_1628,P26,
stim_fb/ques.jpg,stim_fb/negf.jpg,stim_fb/posf.jpg,stim_01/c.jpg,stim_01/d.jpg,2,2,j,3,46,226,34,j,1,0.583203876649,01,01,60.0118694018,PLT_learning_01,N,2014_Mrz_11_1628,P26,
stim_fb/ques.jpg,stim_fb/posf.jpg,stim_fb/negf.jpg,stim_01/d.jpg,stim_01/c.jpg,1,2,f,3,47,227,28,f,1,0.549875828468,01,01,60.0118694018,PLT_learning_01,N,2014_Mrz_11_1628,P26,
stim_fb/ques.jpg,stim_fb/posf.jpg,stim_fb/negf.jpg,stim_01/c.jpg,stim_01/d.jpg,2,2,j,3,48,228,39,j,1,0.566556013277,01,01,60.0118694018,PLT_learning_01,N,2014_Mrz_11_1628,P26,
stim_fb/ques.jpg,stim_fb/negf.jpg,stim_fb/posf.jpg,stim_01/c.jpg,stim_01/d.jpg,2,2,j,3,49,229,32,j,1,0.566500449995,01,01,60.0118694018,PLT_learning_01,N,2014_Mrz_11_1628,P26,
stim_fb/ques.jpg,stim_fb/negf.jpg,stim_fb/posf.jpg,stim_01/c.jpg,stim_01/d.jpg,2,2,j,3,50,230,33,j,1,0.46650599279,01,01,60.0118694018,PLT_learning_01,N,2014_Mrz_11_1628,P26,
stim_fb/ques.jpg,stim_fb/posf.jpg,stim_fb/negf.jpg,stim_01/b.jpg,stim_01/a.jpg,1,1,f,3,51,231,8,f,1,0.86642717864,01,01,60.0118694018,PLT_learning_01,N,2014_Mrz_11_1628,P26,
stim_fb/ques.jpg,stim_fb/posf.jpg,stim_fb/negf.jpg,stim_01/f.jpg,stim_01/e.jpg,1,3,f,3,52,232,46,j,0,0.933066207524,01,01,60.0118694018,PLT_learning_01,N,2014_Mrz_11_1628,P26,
stim_fb/ques.jpg,stim_fb/posf.jpg,stim_fb/negf.jpg,stim_01/e.jpg,stim_01/f.jpg,2,3,j,3,53,233,58,f,0,0.599853715934,01,01,60.0118694018,PLT_learning_01,N,2014_Mrz_11_1628,P26,
stim_fb/ques.jpg,stim_fb/posf.jpg,stim_fb/negf.jpg,stim_01/c.jpg,stim_01/d.jpg,2,2,j,3,54,234,37,j,1,0.683153967437,01,01,60.0118694018,PLT_learning_01,N,2014_Mrz_11_1628,P26,
stim_fb/ques.jpg,stim_fb/negf.jpg,stim_fb/posf.jpg,stim_01/a.jpg,stim_01/b.jpg,2,1,j,3,55,235,12,f,0,1.01625746176,01,01,60.0118694018,PLT_learning_01,N,2014_Mrz_11_1628,P26,
stim_fb/ques.jpg,stim_fb/negf.jpg,stim_fb/posf.jpg,stim_01/b.jpg,stim_01/a.jpg,1,1,f,3,56,236,5,f,1,0.733136883418,01,01,60.0118694018,PLT_learning_01,N,2014_Mrz_11_1628,P26,
stim_fb/ques.jpg,stim_fb/negf.jpg,stim_fb/posf.jpg,stim_01/e.jpg,stim_01/f.jpg,2,3,j,3,57,237,55,f,0,0.966383633267,01,01,60.0118694018,PLT_learning_01,N,2014_Mrz_11_1628,P26,
stim_fb/ques.jpg,stim_fb/negf.jpg,stim_fb/posf.jpg,stim_01/f.jpg,stim_01/e.jpg,1,3,f,3,58,238,45,j,0,0.716483432143,01,01,60.0118694018,PLT_learning_01,N,2014_Mrz_11_1628,P26,
stim_fb/ques.jpg,stim_fb/negf.jpg,stim_fb/posf.jpg,stim_01/a.jpg,stim_01/b.jpg,2,1,j,3,59,239,16,j,1,0.766420911043,01,01,60.0118694018,PLT_learning_01,N,2014_Mrz_11_1628,P26,
stim_fb/ques.jpg,stim_fb/negf.jpg,stim_fb/posf.jpg,stim_01/d.jpg,stim_01/c.jpg,1,2,f,4,0,240,26,f,1,0.766480011127,01,01,60.0118694018,PLT_learning_01,N,2014_Mrz_11_1628,P26,
stim_fb/ques.jpg,stim_fb/posf.jpg,stim_fb/negf.jpg,stim_01/b.jpg,stim_01/a.jpg,1,1,f,4,1,241,8,j,0,0.433236410116,01,01,60.0118694018,PLT_learning_01,N,2014_Mrz_11_1628,P26,
stim_fb/ques.jpg,stim_fb/negf.jpg,stim_fb/posf.jpg,stim_01/b.jpg,stim_01/a.jpg,1,1,f,4,2,242,6,j,0,0.483160911719,01,01,60.0118694018,PLT_learning_01,N,2014_Mrz_11_1628,P26,
stim_fb/ques.jpg,stim_fb/negf.jpg,stim_fb/posf.jpg,stim_01/e.jpg,stim_01/f.jpg,2,3,j,4,3,243,52,f,0,0.483168400357,01,01,60.0118694018,PLT_learning_01,N,2014_Mrz_11_1628,P26,
stim_fb/ques.jpg,stim_fb/negf.jpg,stim_fb/posf.jpg,stim_01/f.jpg,stim_01/e.jpg,1,3,f,4,4,244,45,f,1,0.649802933051,01,01,60.0118694018,PLT_learning_01,N,2014_Mrz_11_1628,P26,
stim_fb/ques.jpg,stim_fb/negf.jpg,stim_fb/posf.jpg,stim_01/e.jpg,stim_01/f.jpg,2,3,j,4,5,245,54,j,1,0.783123865522,01,01,60.0118694018,PLT_learning_01,N,2014_Mrz_11_1628,P26,
stim_fb/ques.jpg,stim_fb/posf.jpg,stim_fb/negf.jpg,stim_01/d.jpg,stim_01/c.jpg,1,2,f,4,6,246,29,f,1,0.66650321688,01,01,60.0118694018,PLT_learning_01,N,2014_Mrz_11_1628,P26,
stim_fb/ques.jpg,stim_fb/negf.jpg,stim_fb/posf.jpg,stim_01/a.jpg,stim_01/b.jpg,2,1,j,4,7,247,11,j,1,1.16632723089,01,01,60.0118694018,PLT_learning_01,N,2014_Mrz_11_1628,P26,
stim_fb/ques.jpg,stim_fb/posf.jpg,stim_fb/negf.jpg,stim_01/f.jpg,stim_01/e.jpg,1,3,f,4,8,248,46,f,1,1.03305582569,01,01,60.0118694018,PLT_learning_01,N,2014_Mrz_11_1628,P26,
stim_fb/ques.jpg,stim_fb/negf.jpg,stim_fb/posf.jpg,stim_01/d.jpg,stim_01/c.jpg,1,2,f,4,9,249,22,j,0,1.16633273159,01,01,60.0118694018,PLT_learning_01,N,2014_Mrz_11_1628,P26,
stim_fb/ques.jpg,stim_fb/posf.jpg,stim_fb/negf.jpg,stim_01/e.jpg,stim_01/f.jpg,2,3,j,4,10,250,58,f,0,0.949726070758,01,01,60.0118694018,PLT_learning_01,N,2014_Mrz_11_1628,P26,
stim_fb/ques.jpg,stim_fb/negf.jpg,stim_fb/posf.jpg,stim_01/f.jpg,stim_01/e.jpg,1,3,f,4,11,251,44,j,0,0.7997759514,01,01,60.0118694018,PLT_learning_01,N,2014_Mrz_11_1628,P26,
stim_fb/ques.jpg,stim_fb/posf.jpg,stim_fb/negf.jpg,stim_01/a.jpg,stim_01/b.jpg,2,1,j,4,12,252,19,j,1,1.13301748627,01,01,60.0118694018,PLT_learning_01,N,2014_Mrz_11_1628,P26,
stim_fb/ques.jpg,stim_fb/negf.jpg,stim_fb/posf.jpg,stim_01/a.jpg,stim_01/b.jpg,2,1,j,4,13,253,10,f,0,1.06636555828,01,01,60.0118694018,PLT_learning_01,N,2014_Mrz_11_1628,P26,
stim_fb/ques.jpg,stim_fb/posf.jpg,stim_fb/negf.jpg,stim_01/d.jpg,stim_01/c.jpg,1,2,f,4,14,254,28,f,1,0.749795922602,01,01,60.0118694018,PLT_learning_01,N,2014_Mrz_11_1628,P26,
stim_fb/ques.jpg,stim_fb/negf.jpg,stim_fb/posf.jpg,stim_01/e.jpg,stim_01/f.jpg,2,3,j,4,15,255,53,f,0,0.816451185889,01,01,60.0118694018,PLT_learning_01,N,2014_Mrz_11_1628,P26,
stim_fb/ques.jpg,stim_fb/negf.jpg,stim_fb/posf.jpg,stim_01/d.jpg,stim_01/c.jpg,1,2,f,4,16,256,23,f,1,0.833040568716,01,01,60.0118694018,PLT_learning_01,N,2014_Mrz_11_1628,P26,
stim_fb/ques.jpg,stim_fb/negf.jpg,stim_fb/posf.jpg,stim_01/f.jpg,stim_01/e.jpg,1,3,f,4,17,257,40,j,0,0.666505562718,01,01,60.0118694018,PLT_learning_01,N,2014_Mrz_11_1628,P26,
stim_fb/ques.jpg,stim_fb/posf.jpg,stim_fb/negf.jpg,stim_01/c.jpg,stim_01/d.jpg,2,2,j,4,18,258,39,j,1,0.649822773428,01,01,60.0118694018,PLT_learning_01,N,2014_Mrz_11_1628,P26,
stim_fb/ques.jpg,stim_fb/posf.jpg,stim_fb/negf.jpg,stim_01/f.jpg,stim_01/e.jpg,1,3,f,4,19,259,47,j,0,0.683171901068,01,01,60.0118694018,PLT_learning_01,N,2014_Mrz_11_1628,P26,
stim_fb/ques.jpg,stim_fb/negf.jpg,stim_fb/posf.jpg,stim_01/f.jpg,stim_01/e.jpg,1,3,f,4,20,260,43,j,0,0.533177710025,01,01,60.0118694018,PLT_learning_01,N,2014_Mrz_11_1628,P26,
stim_fb/ques.jpg,stim_fb/negf.jpg,stim_fb/posf.jpg,stim_01/f.jpg,stim_01/e.jpg,1,3,f,4,21,261,41,f,1,0.566389912896,01,01,60.0118694018,PLT_learning_01,N,2014_Mrz_11_1628,P26,
stim_fb/ques.jpg,stim_fb/negf.jpg,stim_fb/posf.jpg,stim_01/c.jpg,stim_01/d.jpg,2,2,j,4,22,262,30,j,1,0.599835259001,01,01,60.0118694018,PLT_learning_01,N,2014_Mrz_11_1628,P26,
stim_fb/ques.jpg,stim_fb/negf.jpg,stim_fb/posf.jpg,stim_01/a.jpg,stim_01/b.jpg,2,1,j,4,23,263,15,f,0,0.566507932617,01,01,60.0118694018,PLT_learning_01,N,2014_Mrz_11_1628,P26,
stim_fb/ques.jpg,stim_fb/negf.jpg,stim_fb/posf.jpg,stim_01/b.jpg,stim_01/a.jpg,1,1,f,4,24,264,0,j,0,0.399909652147,01,01,60.0118694018,PLT_learning_01,N,2014_Mrz_11_1628,P26,
stim_fb/ques.jpg,stim_fb/negf.jpg,stim_fb/posf.jpg,stim_01/d.jpg,stim_01/c.jpg,1,2,f,4,25,265,21,f,1,0.266638165735,01,01,60.0118694018,PLT_learning_01,N,2014_Mrz_11_1628,P26,
stim_fb/ques.jpg,stim_fb/posf.jpg,stim_fb/negf.jpg,stim_01/c.jpg,stim_01/d.jpg,2,2,j,4,26,266,38,j,1,0.499910331839,01,01,60.0118694018,PLT_learning_01,N,2014_Mrz_11_1628,P26,
stim_fb/ques.jpg,stim_fb/negf.jpg,stim_fb/posf.jpg,stim_01/c.jpg,stim_01/d.jpg,2,2,j,4,27,267,31,j,1,0.433246088201,01,01,60.0118694018,PLT_learning_01,N,2014_Mrz_11_1628,P26,
stim_fb/ques.jpg,stim_fb/negf.jpg,stim_fb/posf.jpg,stim_01/e.jpg,stim_01/f.jpg,2,3,j,4,28,268,50,f,0,0.599856618159,01,01,60.0118694018,PLT_learning_01,N,2014_Mrz_11_1628,P26,
stim_fb/ques.jpg,stim_fb/negf.jpg,stim_fb/posf.jpg,stim_01/a.jpg,stim_01/b.jpg,2,1,j,4,29,269,17,f,0,0.566514134051,01,01,60.0118694018,PLT_learning_01,N,2014_Mrz_11_1628,P26,
stim_fb/ques.jpg,stim_fb/negf.jpg,stim_fb/posf.jpg,stim_01/b.jpg,stim_01/a.jpg,1,1,f,4,30,270,1,j,0,0.433298051526,01,01,60.0118694018,PLT_learning_01,N,2014_Mrz_11_1628,P26,
stim_fb/ques.jpg,stim_fb/posf.jpg,stim_fb/negf.jpg,stim_01/e.jpg,stim_01/f.jpg,2,3,j,4,31,271,59,f,0,0.599844708519,01,01,60.0118694018,PLT_learning_01,N,2014_Mrz_11_1628,P26,
stim_fb/ques.jpg,stim_fb/posf.jpg,stim_fb/negf.jpg,stim_01/c.jpg,stim_01/d.jpg,2,2,j,4,32,272,37,f,0,0.649850382139,01,01,60.0118694018,PLT_learning_01,N,2014_Mrz_11_1628,P26,
stim_fb/ques.jpg,stim_fb/negf.jpg,stim_fb/posf.jpg,stim_01/c.jpg,stim_01/d.jpg,2,2,j,4,33,273,36,f,0,0.649889945602,01,01,60.0118694018,PLT_learning_01,N,2014_Mrz_11_1628,P26,
stim_fb/ques.jpg,stim_fb/negf.jpg,stim_fb/posf.jpg,stim_01/c.jpg,stim_01/d.jpg,2,2,j,4,34,274,32,j,1,0.549817017101,01,01,60.0118694018,PLT_learning_01,N,2014_Mrz_11_1628,P26,
stim_fb/ques.jpg,stim_fb/negf.jpg,stim_fb/posf.jpg,stim_01/b.jpg,stim_01/a.jpg,1,1,f,4,35,275,4,f,1,0.633178603248,01,01,60.0118694018,PLT_learning_01,N,2014_Mrz_11_1628,P26,
stim_fb/ques.jpg,stim_fb/posf.jpg,stim_fb/negf.jpg,stim_01/f.jpg,stim_01/e.jpg,1,3,f,4,36,276,49,f,1,0.583168349229,01,01,60.0118694018,PLT_learning_01,N,2014_Mrz_11_1628,P26,
stim_fb/ques.jpg,stim_fb/negf.jpg,stim_fb/posf.jpg,stim_01/b.jpg,stim_01/a.jpg,1,1,f,4,37,277,2,f,1,0.733110643112,01,01,60.0118694018,PLT_learning_01,N,2014_Mrz_11_1628,P26,
stim_fb/ques.jpg,stim_fb/negf.jpg,stim_fb/posf.jpg,stim_01/e.jpg,stim_01/f.jpg,2,3,j,4,38,278,55,f,0,1.04970332816,01,01,60.0118694018,PLT_learning_01,N,2014_Mrz_11_1628,P26,
stim_fb/ques.jpg,stim_fb/negf.jpg,stim_fb/posf.jpg,stim_01/a.jpg,stim_01/b.jpg,2,1,j,4,39,279,16,j,1,0.533225730536,01,01,60.0118694018,PLT_learning_01,N,2014_Mrz_11_1628,P26,
stim_fb/ques.jpg,stim_fb/negf.jpg,stim_fb/posf.jpg,stim_01/a.jpg,stim_01/b.jpg,2,1,j,4,40,280,14,f,0,0.616537320255,01,01,60.0118694018,PLT_learning_01,N,2014_Mrz_11_1628,P26,
stim_fb/ques.jpg,stim_fb/negf.jpg,stim_fb/posf.jpg,stim_01/b.jpg,stim_01/a.jpg,1,1,f,4,41,281,7,j,0,0.749817110333,01,01,60.0118694018,PLT_learning_01,N,2014_Mrz_11_1628,P26,
stim_fb/ques.jpg,stim_fb/negf.jpg,stim_fb/posf.jpg,stim_01/c.jpg,stim_01/d.jpg,2,2,j,4,42,282,34,f,0,0.633183231768,01,01,60.0118694018,PLT_learning_01,N,2014_Mrz_11_1628,P26,
stim_fb/ques.jpg,stim_fb/negf.jpg,stim_fb/posf.jpg,stim_01/c.jpg,stim_01/d.jpg,2,2,j,4,43,283,33,j,1,0.466558422273,01,01,60.0118694018,PLT_learning_01,N,2014_Mrz_11_1628,P26,
stim_fb/ques.jpg,stim_fb/negf.jpg,stim_fb/posf.jpg,stim_01/e.jpg,stim_01/f.jpg,2,3,j,4,44,284,51,f,0,0.59983955369,01,01,60.0118694018,PLT_learning_01,N,2014_Mrz_11_1628,P26,
stim_fb/ques.jpg,stim_fb/posf.jpg,stim_fb/negf.jpg,stim_01/b.jpg,stim_01/a.jpg,1,1,f,4,45,285,9,f,1,0.53320062706,01,01,60.0118694018,PLT_learning_01,N,2014_Mrz_11_1628,P26,
stim_fb/ques.jpg,stim_fb/posf.jpg,stim_fb/negf.jpg,stim_01/e.jpg,stim_01/f.jpg,2,3,j,4,46,286,56,j,1,0.349950426124,01,01,60.0118694018,PLT_learning_01,N,2014_Mrz_11_1628,P26,
stim_fb/ques.jpg,stim_fb/posf.jpg,stim_fb/negf.jpg,stim_01/a.jpg,stim_01/b.jpg,2,1,j,4,47,287,18,j,1,0.833087801266,01,01,60.0118694018,PLT_learning_01,N,2014_Mrz_11_1628,P26,
stim_fb/ques.jpg,stim_fb/negf.jpg,stim_fb/posf.jpg,stim_01/d.jpg,stim_01/c.jpg,1,2,f,4,48,288,20,f,1,0.349948224644,01,01,60.0118694018,PLT_learning_01,N,2014_Mrz_11_1628,P26,
stim_fb/ques.jpg,stim_fb/negf.jpg,stim_fb/posf.jpg,stim_01/a.jpg,stim_01/b.jpg,2,1,j,4,49,289,12,f,0,0.583191329421,01,01,60.0118694018,PLT_learning_01,N,2014_Mrz_11_1628,P26,
stim_fb/ques.jpg,stim_fb/negf.jpg,stim_fb/posf.jpg,stim_01/b.jpg,stim_01/a.jpg,1,1,f,4,50,290,3,f,1,0.666487968932,01,01,60.0118694018,PLT_learning_01,N,2014_Mrz_11_1628,P26,
stim_fb/ques.jpg,stim_fb/posf.jpg,stim_fb/negf.jpg,stim_01/f.jpg,stim_01/e.jpg,1,3,f,4,51,291,48,f,1,0.566597158679,01,01,60.0118694018,PLT_learning_01,N,2014_Mrz_11_1628,P26,
stim_fb/ques.jpg,stim_fb/posf.jpg,stim_fb/negf.jpg,stim_01/e.jpg,stim_01/f.jpg,2,3,j,4,52,292,57,f,0,0.566555165167,01,01,60.0118694018,PLT_learning_01,N,2014_Mrz_11_1628,P26,
stim_fb/ques.jpg,stim_fb/negf.jpg,stim_fb/posf.jpg,stim_01/a.jpg,stim_01/b.jpg,2,1,j,4,53,293,13,j,1,0.716431772575,01,01,60.0118694018,PLT_learning_01,N,2014_Mrz_11_1628,P26,
stim_fb/ques.jpg,stim_fb/negf.jpg,stim_fb/posf.jpg,stim_01/d.jpg,stim_01/c.jpg,1,2,f,4,54,294,25,f,1,0.716467299993,01,01,60.0118694018,PLT_learning_01,N,2014_Mrz_11_1628,P26,
stim_fb/ques.jpg,stim_fb/posf.jpg,stim_fb/negf.jpg,stim_01/d.jpg,stim_01/c.jpg,1,2,f,4,55,295,27,f,1,0.466548467497,01,01,60.0118694018,PLT_learning_01,N,2014_Mrz_11_1628,P26,
stim_fb/ques.jpg,stim_fb/negf.jpg,stim_fb/posf.jpg,stim_01/b.jpg,stim_01/a.jpg,1,1,f,4,56,296,5,f,1,0.633179875416,01,01,60.0118694018,PLT_learning_01,N,2014_Mrz_11_1628,P26,
stim_fb/ques.jpg,stim_fb/negf.jpg,stim_fb/posf.jpg,stim_01/f.jpg,stim_01/e.jpg,1,3,f,4,57,297,42,j,0,0.816428578626,01,01,60.0118694018,PLT_learning_01,N,2014_Mrz_11_1628,P26,
stim_fb/ques.jpg,stim_fb/negf.jpg,stim_fb/posf.jpg,stim_01/d.jpg,stim_01/c.jpg,1,2,f,4,58,298,24,f,1,0.716459248955,01,01,60.0118694018,PLT_learning_01,N,2014_Mrz_11_1628,P26,
stim_fb/ques.jpg,stim_fb/negf.jpg,stim_fb/posf.jpg,stim_01/c.jpg,stim_01/d.jpg,2,2,j,4,59,299,35,j,1,0.59985188137,01,01,60.0118694018,PLT_learning_01,N,2014_Mrz_11_1628,P26,
stim_fb/ques.jpg,stim_fb/negf.jpg,stim_fb/posf.jpg,stim_01/c.jpg,stim_01/d.jpg,2,2,j,5,0,300,34,f,0,0.633165716175,01,01,60.0118694018,PLT_learning_01,N,2014_Mrz_11_1628,P26,
stim_fb/ques.jpg,stim_fb/negf.jpg,stim_fb/posf.jpg,stim_01/d.jpg,stim_01/c.jpg,1,2,f,5,1,301,23,j,0,0.533200121803,01,01,60.0118694018,PLT_learning_01,N,2014_Mrz_11_1628,P26,
stim_fb/ques.jpg,stim_fb/negf.jpg,stim_fb/posf.jpg,stim_01/b.jpg,stim_01/a.jpg,1,1,f,5,2,302,2,f,1,0.84974793818,01,01,60.0118694018,PLT_learning_01,N,2014_Mrz_11_1628,P26,
stim_fb/ques.jpg,stim_fb/negf.jpg,stim_fb/posf.jpg,stim_01/a.jpg,stim_01/b.jpg,2,1,j,5,3,303,12,j,1,0.916414058489,01,01,60.0118694018,PLT_learning_01,N,2014_Mrz_11_1628,P26,
stim_fb/ques.jpg,stim_fb/negf.jpg,stim_fb/posf.jpg,stim_01/c.jpg,stim_01/d.jpg,2,2,j,5,4,304,35,j,1,0.783377002514,01,01,60.0118694018,PLT_learning_01,N,2014_Mrz_11_1628,P26,
stim_fb/ques.jpg,stim_fb/negf.jpg,stim_fb/posf.jpg,stim_01/a.jpg,stim_01/b.jpg,2,1,j,5,5,305,13,j,1,1.08301916896,01,01,60.0118694018,PLT_learning_01,N,2014_Mrz_11_1628,P26,
stim_fb/ques.jpg,stim_fb/negf.jpg,stim_fb/posf.jpg,stim_01/e.jpg,stim_01/f.jpg,2,3,j,5,6,306,55,f,0,0.866384391154,01,01,60.0118694018,PLT_learning_01,N,2014_Mrz_11_1628,P26,
stim_fb/ques.jpg,stim_fb/posf.jpg,stim_fb/negf.jpg,stim_01/c.jpg,stim_01/d.jpg,2,2,j,5,7,307,37,j,1,0.766460152705,01,01,60.0118694018,PLT_learning_01,N,2014_Mrz_11_1628,P26,
stim_fb/ques.jpg,stim_fb/posf.jpg,stim_fb/negf.jpg,stim_01/f.jpg,stim_01/e.jpg,1,3,f,5,8,308,48,j,0,0.866443419058,01,01,60.0118694018,PLT_learning_01,N,2014_Mrz_11_1628,P26,
stim_fb/ques.jpg,stim_fb/negf.jpg,stim_fb/posf.jpg,stim_01/f.jpg,stim_01/e.jpg,1,3,f,5,9,309,41,j,0,0.58322733503,01,01,60.0118694018,PLT_learning_01,N,2014_Mrz_11_1628,P26,
stim_fb/ques.jpg,stim_fb/posf.jpg,stim_fb/negf.jpg,stim_01/a.jpg,stim_01/b.jpg,2,1,j,5,10,310,19,j,1,0.783120930215,01,01,60.0118694018,PLT_learning_01,N,2014_Mrz_11_1628,P26,
stim_fb/ques.jpg,stim_fb/negf.jpg,stim_fb/posf.jpg,stim_01/c.jpg,stim_01/d.jpg,2,2,j,5,11,311,31,j,1,0.499935122536,01,01,60.0118694018,PLT_learning_01,N,2014_Mrz_11_1628,P26,
stim_fb/ques.jpg,stim_fb/posf.jpg,stim_fb/negf.jpg,stim_01/d.jpg,stim_01/c.jpg,1,2,f,5,12,312,29,f,1,0.566536575903,01,01,60.0118694018,PLT_learning_01,N,2014_Mrz_11_1628,P26,
stim_fb/ques.jpg,stim_fb/negf.jpg,stim_fb/posf.jpg,stim_01/d.jpg,stim_01/c.jpg,1,2,f,5,13,313,24,j,0,0.749779844587,01,01,60.0118694018,PLT_learning_01,N,2014_Mrz_11_1628,P26,
stim_fb/ques.jpg,stim_fb/posf.jpg,stim_fb/negf.jpg,stim_01/c.jpg,stim_01/d.jpg,2,2,j,5,14,314,38,j,1,0.766533628568,01,01,60.0118694018,PLT_learning_01,N,2014_Mrz_11_1628,P26,
stim_fb/ques.jpg,stim_fb/negf.jpg,stim_fb/posf.jpg,stim_01/b.jpg,stim_01/a.jpg,1,1,f,5,15,315,3,f,1,0.833099271813,01,01,60.0118694018,PLT_learning_01,N,2014_Mrz_11_1628,P26,
stim_fb/ques.jpg,stim_fb/negf.jpg,stim_fb/posf.jpg,stim_01/d.jpg,stim_01/c.jpg,1,2,f,5,16,316,20,f,1,0.799783716726,01,01,60.0118694018,PLT_learning_01,N,2014_Mrz_11_1628,P26,
stim_fb/ques.jpg,stim_fb/negf.jpg,stim_fb/posf.jpg,stim_01/f.jpg,stim_01/e.jpg,1,3,f,5,17,317,45,j,0,0.799772805569,01,01,60.0118694018,PLT_learning_01,N,2014_Mrz_11_1628,P26,
stim_fb/ques.jpg,stim_fb/negf.jpg,stim_fb/posf.jpg,stim_01/c.jpg,stim_01/d.jpg,2,2,j,5,18,318,30,j,1,0.799740090149,01,01,60.0118694018,PLT_learning_01,N,2014_Mrz_11_1628,P26,
stim_fb/ques.jpg,stim_fb/negf.jpg,stim_fb/posf.jpg,stim_01/a.jpg,stim_01/b.jpg,2,1,j,5,19,319,10,j,1,0.483220186239,01,01,60.0118694018,PLT_learning_01,N,2014_Mrz_11_1628,P26,
stim_fb/ques.jpg,stim_fb/posf.jpg,stim_fb/negf.jpg,stim_01/c.jpg,stim_01/d.jpg,2,2,j,5,20,320,39,j,1,0.733119942255,01,01,60.0118694018,PLT_learning_01,N,2014_Mrz_11_1628,P26,
stim_fb/ques.jpg,stim_fb/negf.jpg,stim_fb/posf.jpg,stim_01/b.jpg,stim_01/a.jpg,1,1,f,5,21,321,1,f,1,0.816434734947,01,01,60.0118694018,PLT_learning_01,N,2014_Mrz_11_1628,P26,
stim_fb/ques.jpg,stim_fb/negf.jpg,stim_fb/posf.jpg,stim_01/e.jpg,stim_01/f.jpg,2,3,j,5,22,322,51,f,0,0.833095461328,01,01,60.0118694018,PLT_learning_01,N,2014_Mrz_11_1628,P26,
stim_fb/ques.jpg,stim_fb/negf.jpg,stim_fb/posf.jpg,stim_01/a.jpg,stim_01/b.jpg,2,1,j,5,23,323,11,j,1,0.749818168968,01,01,60.0118694018,PLT_learning_01,N,2014_Mrz_11_1628,P26,
stim_fb/ques.jpg,stim_fb/negf.jpg,stim_fb/posf.jpg,stim_01/f.jpg,stim_01/e.jpg,1,3,f,5,24,324,40,f,1,0.666415202837,01,01,60.0118694018,PLT_learning_01,N,2014_Mrz_11_1628,P26,
stim_fb/ques.jpg,stim_fb/posf.jpg,stim_fb/negf.jpg,stim_01/e.jpg,stim_01/f.jpg,2,3,j,5,25,325,59,f,0,0.599837589802,01,01,60.0118694018,PLT_learning_01,N,2014_Mrz_11_1628,P26,
stim_fb/ques.jpg,stim_fb/negf.jpg,stim_fb/posf.jpg,stim_01/d.jpg,stim_01/c.jpg,1,2,f,5,26,326,22,j,0,0.599855379076,01,01,60.0118694018,PLT_learning_01,N,2014_Mrz_11_1628,P26,
stim_fb/ques.jpg,stim_fb/negf.jpg,stim_fb/posf.jpg,stim_01/f.jpg,stim_01/e.jpg,1,3,f,5,27,327,43,j,0,0.799790137706,01,01,60.0118694018,PLT_learning_01,N,2014_Mrz_11_1628,P26,
stim_fb/ques.jpg,stim_fb/posf.jpg,stim_fb/negf.jpg,stim_01/e.jpg,stim_01/f.jpg,2,3,j,5,28,328,58,j,1,0.649844541602,01,01,60.0118694018,PLT_learning_01,N,2014_Mrz_11_1628,P26,
stim_fb/ques.jpg,stim_fb/negf.jpg,stim_fb/posf.jpg,stim_01/b.jpg,stim_01/a.jpg,1,1,f,5,29,329,0,j,0,0.683047427285,01,01,60.0118694018,PLT_learning_01,N,2014_Mrz_11_1628,P26,
stim_fb/ques.jpg,stim_fb/negf.jpg,stim_fb/posf.jpg,stim_01/d.jpg,stim_01/c.jpg,1,2,f,5,30,330,26,f,1,0.399950665218,01,01,60.0118694018,PLT_learning_01,N,2014_Mrz_11_1628,P26,
stim_fb/ques.jpg,stim_fb/negf.jpg,stim_fb/posf.jpg,stim_01/d.jpg,stim_01/c.jpg,1,2,f,5,31,331,21,f,1,0.516533221053,01,01,60.0118694018,PLT_learning_01,N,2014_Mrz_11_1628,P26,
stim_fb/ques.jpg,stim_fb/negf.jpg,stim_fb/posf.jpg,stim_01/b.jpg,stim_01/a.jpg,1,1,f,5,32,332,4,j,0,0.549878369793,01,01,60.0118694018,PLT_learning_01,N,2014_Mrz_11_1628,P26,
stim_fb/ques.jpg,stim_fb/negf.jpg,stim_fb/posf.jpg,stim_01/e.jpg,stim_01/f.jpg,2,3,j,5,33,333,52,j,1,0.766449855078,01,01,60.0118694018,PLT_learning_01,N,2014_Mrz_11_1628,P26,
stim_fb/ques.jpg,stim_fb/negf.jpg,stim_fb/posf.jpg,stim_01/c.jpg,stim_01/d.jpg,2,2,j,5,34,334,32,j,1,0.649814932915,01,01,60.0118694018,PLT_learning_01,N,2014_Mrz_11_1628,P26,
stim_fb/ques.jpg,stim_fb/negf.jpg,stim_fb/posf.jpg,stim_01/e.jpg,stim_01/f.jpg,2,3,j,5,35,335,53,f,0,0.433232608655,01,01,60.0118694018,PLT_learning_01,N,2014_Mrz_11_1628,P26,
stim_fb/ques.jpg,stim_fb/posf.jpg,stim_fb/negf.jpg,stim_01/f.jpg,stim_01/e.jpg,1,3,f,5,36,336,46,j,0,0.433235369526,01,01,60.0118694018,PLT_learning_01,N,2014_Mrz_11_1628,P26,
stim_fb/ques.jpg,stim_fb/negf.jpg,stim_fb/posf.jpg,stim_01/b.jpg,stim_01/a.jpg,1,1,f,5,37,337,6,f,1,0.566481114874,01,01,60.0118694018,PLT_learning_01,N,2014_Mrz_11_1628,P26,
stim_fb/ques.jpg,stim_fb/posf.jpg,stim_fb/negf.jpg,stim_01/b.jpg,stim_01/a.jpg,1,1,f,5,38,338,9,j,0,0.449909097266,01,01,60.0118694018,PLT_learning_01,N,2014_Mrz_11_1628,P26,
stim_fb/ques.jpg,stim_fb/negf.jpg,stim_fb/posf.jpg,stim_01/b.jpg,stim_01/a.jpg,1,1,f,5,39,339,5,f,1,0.49984676263,01,01,60.0118694018,PLT_learning_01,N,2014_Mrz_11_1628,P26,
stim_fb/ques.jpg,stim_fb/posf.jpg,stim_fb/negf.jpg,stim_01/e.jpg,stim_01/f.jpg,2,3,j,5,40,340,56,f,0,0.799783205452,01,01,60.0118694018,PLT_learning_01,N,2014_Mrz_11_1628,P26,
stim_fb/ques.jpg,stim_fb/posf.jpg,stim_fb/negf.jpg,stim_01/f.jpg,stim_01/e.jpg,1,3,f,5,41,341,47,j,0,0.266634466529,01,01,60.0118694018,PLT_learning_01,N,2014_Mrz_11_1628,P26,
stim_fb/ques.jpg,stim_fb/negf.jpg,stim_fb/posf.jpg,stim_01/a.jpg,stim_01/b.jpg,2,1,j,5,42,342,17,f,0,0.399927739161,01,01,60.0118694018,PLT_learning_01,N,2014_Mrz_11_1628,P26,
stim_fb/ques.jpg,stim_fb/negf.jpg,stim_fb/posf.jpg,stim_01/f.jpg,stim_01/e.jpg,1,3,f,5,43,343,42,j,0,0.916418398288,01,01,60.0118694018,PLT_learning_01,N,2014_Mrz_11_1628,P26,
stim_fb/ques.jpg,stim_fb/negf.jpg,stim_fb/posf.jpg,stim_01/c.jpg,stim_01/d.jpg,2,2,j,5,44,344,33,j,1,0.499888533588,01,01,60.0118694018,PLT_learning_01,N,2014_Mrz_11_1628,P26,
stim_fb/ques.jpg,stim_fb/negf.jpg,stim_fb/posf.jpg,stim_01/b.jpg,stim_01/a.jpg,1,1,f,5,45,345,7,f,1,0.649838818359,01,01,60.0118694018,PLT_learning_01,N,2014_Mrz_11_1628,P26,
stim_fb/ques.jpg,stim_fb/posf.jpg,stim_fb/negf.jpg,stim_01/b.jpg,stim_01/a.jpg,1,1,f,5,46,346,8,f,1,0.68315631929,01,01,60.0118694018,PLT_learning_01,N,2014_Mrz_11_1628,P26,
stim_fb/ques.jpg,stim_fb/negf.jpg,stim_fb/posf.jpg,stim_01/e.jpg,stim_01/f.jpg,2,3,j,5,47,347,54,j,1,0.516575428095,01,01,60.0118694018,PLT_learning_01,N,2014_Mrz_11_1628,P26,
stim_fb/ques.jpg,stim_fb/negf.jpg,stim_fb/posf.jpg,stim_01/f.jpg,stim_01/e.jpg,1,3,f,5,48,348,44,j,0,0.53317644989,01,01,60.0118694018,PLT_learning_01,N,2014_Mrz_11_1628,P26,
stim_fb/ques.jpg,stim_fb/posf.jpg,stim_fb/negf.jpg,stim_01/f.jpg,stim_01/e.jpg,1,3,f,5,49,349,49,f,1,0.499874464575,01,01,60.0118694018,PLT_learning_01,N,2014_Mrz_11_1628,P26,
stim_fb/ques.jpg,stim_fb/posf.jpg,stim_fb/negf.jpg,stim_01/d.jpg,stim_01/c.jpg,1,2,f,5,50,350,28,f,1,0.899753966685,01,01,60.0118694018,PLT_learning_01,N,2014_Mrz_11_1628,P26,
stim_fb/ques.jpg,stim_fb/negf.jpg,stim_fb/posf.jpg,stim_01/d.jpg,stim_01/c.jpg,1,2,f,5,51,351,25,j,0,0.649833895106,01,01,60.0118694018,PLT_learning_01,N,2014_Mrz_11_1628,P26,
stim_fb/ques.jpg,stim_fb/posf.jpg,stim_fb/negf.jpg,stim_01/e.jpg,stim_01/f.jpg,2,3,j,5,52,352,57,f,0,0.783134740585,01,01,60.0118694018,PLT_learning_01,N,2014_Mrz_11_1628,P26,
stim_fb/ques.jpg,stim_fb/posf.jpg,stim_fb/negf.jpg,stim_01/d.jpg,stim_01/c.jpg,1,2,f,5,53,353,27,f,1,0.583190815141,01,01,60.0118694018,PLT_learning_01,N,2014_Mrz_11_1628,P26,
stim_fb/ques.jpg,stim_fb/negf.jpg,stim_fb/posf.jpg,stim_01/a.jpg,stim_01/b.jpg,2,1,j,5,54,354,14,j,1,0.833107761944,01,01,60.0118694018,PLT_learning_01,N,2014_Mrz_11_1628,P26,
stim_fb/ques.jpg,stim_fb/negf.jpg,stim_fb/posf.jpg,stim_01/a.jpg,stim_01/b.jpg,2,1,j,5,55,355,15,j,1,0.68316761841,01,01,60.0118694018,PLT_learning_01,N,2014_Mrz_11_1628,P26,
stim_fb/ques.jpg,stim_fb/negf.jpg,stim_fb/posf.jpg,stim_01/a.jpg,stim_01/b.jpg,2,1,j,5,56,356,16,j,1,0.79980524731,01,01,60.0118694018,PLT_learning_01,N,2014_Mrz_11_1628,P26,
stim_fb/ques.jpg,stim_fb/posf.jpg,stim_fb/negf.jpg,stim_01/a.jpg,stim_01/b.jpg,2,1,j,5,57,357,18,j,1,0.583233392104,01,01,60.0118694018,PLT_learning_01,N,2014_Mrz_11_1628,P26,
stim_fb/ques.jpg,stim_fb/negf.jpg,stim_fb/posf.jpg,stim_01/e.jpg,stim_01/f.jpg,2,3,j,5,58,358,50,f,0,0.666546999844,01,01,60.0118694018,PLT_learning_01,N,2014_Mrz_11_1628,P26,
stim_fb/ques.jpg,stim_fb/negf.jpg,stim_fb/posf.jpg,stim_01/c.jpg,stim_01/d.jpg,2,2,j,5,59,359,36,j,1,0.866418297537,01,01,60.0118694018,PLT_learning_01,N,2014_Mrz_11_1628,P26,
