Fb3,Fb2,Fb1,Symbol2,Symbol1,PosCond,Pair,Correct,trials.thisRepN,trials.thisTrialN,trials.thisN,trials.thisIndex,Response.keys,Response.corr,Response.rt,Version,Session Number,frameRate,expName,StimCondition,date,Participant,
stim_fb/ques.jpg,stim_fb/negf.jpg,stim_fb/posf.jpg,stim_01/e.jpg,stim_01/f.jpg,2,3,j,0,0,0,53,f,0,1.58286874659,01,01,60.0174425869,PLT_learning_01,N,2014_Mrz_25_1308,P27,
stim_fb/ques.jpg,stim_fb/negf.jpg,stim_fb/posf.jpg,stim_01/e.jpg,stim_01/f.jpg,2,3,j,0,1,1,54,j,1,1.1496696353,01,01,60.0174425869,PLT_learning_01,N,2014_Mrz_25_1308,P27,
stim_fb/ques.jpg,stim_fb/negf.jpg,stim_fb/posf.jpg,stim_01/d.jpg,stim_01/c.jpg,1,2,f,0,2,2,21,f,1,0.999718971591,01,01,60.0174425869,PLT_learning_01,N,2014_Mrz_25_1308,P27,
stim_fb/ques.jpg,stim_fb/negf.jpg,stim_fb/posf.jpg,stim_01/c.jpg,stim_01/d.jpg,2,2,j,0,3,3,35,f,0,0.683128166224,01,01,60.0174425869,PLT_learning_01,N,2014_Mrz_25_1308,P27,
stim_fb/ques.jpg,stim_fb/negf.jpg,stim_fb/posf.jpg,stim_01/b.jpg,stim_01/a.jpg,1,1,f,0,4,4,5,j,0,1.26628749901,01,01,60.0174425869,PLT_learning_01,N,2014_Mrz_25_1308,P27,
stim_fb/ques.jpg,stim_fb/negf.jpg,stim_fb/posf.jpg,stim_01/b.jpg,stim_01/a.jpg,1,1,f,0,5,5,4,f,1,0.56640942245,01,01,60.0174425869,PLT_learning_01,N,2014_Mrz_25_1308,P27,
stim_fb/ques.jpg,stim_fb/negf.jpg,stim_fb/posf.jpg,stim_01/c.jpg,stim_01/d.jpg,2,2,j,0,6,6,33,j,1,0.849767080822,01,01,60.0174425869,PLT_learning_01,N,2014_Mrz_25_1308,P27,
stim_fb/ques.jpg,stim_fb/negf.jpg,stim_fb/posf.jpg,stim_01/f.jpg,stim_01/e.jpg,1,3,f,0,7,7,45,f,1,1.44955652681,01,01,60.0174425869,PLT_learning_01,N,2014_Mrz_25_1308,P27,
stim_fb/ques.jpg,stim_fb/negf.jpg,stim_fb/posf.jpg,stim_01/a.jpg,stim_01/b.jpg,2,1,j,0,8,8,12,j,1,1.1163618275,01,01,60.0174425869,PLT_learning_01,N,2014_Mrz_25_1308,P27,
stim_fb/ques.jpg,stim_fb/negf.jpg,stim_fb/posf.jpg,stim_01/c.jpg,stim_01/d.jpg,2,2,j,0,9,9,31,j,1,0.766476450266,01,01,60.0174425869,PLT_learning_01,N,2014_Mrz_25_1308,P27,
stim_fb/ques.jpg,stim_fb/negf.jpg,stim_fb/posf.jpg,stim_01/a.jpg,stim_01/b.jpg,2,1,j,0,10,10,10,f,0,1.18298517536,01,01,60.0174425869,PLT_learning_01,N,2014_Mrz_25_1308,P27,
stim_fb/ques.jpg,stim_fb/negf.jpg,stim_fb/posf.jpg,stim_01/a.jpg,stim_01/b.jpg,2,1,j,0,11,11,14,j,1,1.19966611204,01,01,60.0174425869,PLT_learning_01,N,2014_Mrz_25_1308,P27,
stim_fb/ques.jpg,stim_fb/negf.jpg,stim_fb/posf.jpg,stim_01/b.jpg,stim_01/a.jpg,1,1,f,0,12,12,1,f,1,0.832990067029,01,01,60.0174425869,PLT_learning_01,N,2014_Mrz_25_1308,P27,
stim_fb/ques.jpg,stim_fb/negf.jpg,stim_fb/posf.jpg,stim_01/f.jpg,stim_01/e.jpg,1,3,f,0,13,13,42,f,1,1.01635925008,01,01,60.0174425869,PLT_learning_01,N,2014_Mrz_25_1308,P27,
stim_fb/ques.jpg,stim_fb/posf.jpg,stim_fb/negf.jpg,stim_01/b.jpg,stim_01/a.jpg,1,1,f,0,14,14,9,f,1,0.799815845686,01,01,60.0174425869,PLT_learning_01,N,2014_Mrz_25_1308,P27,
stim_fb/ques.jpg,stim_fb/posf.jpg,stim_fb/negf.jpg,stim_01/c.jpg,stim_01/d.jpg,2,2,j,0,15,15,38,j,1,0.933092790683,01,01,60.0174425869,PLT_learning_01,N,2014_Mrz_25_1308,P27,
stim_fb/ques.jpg,stim_fb/posf.jpg,stim_fb/negf.jpg,stim_01/e.jpg,stim_01/f.jpg,2,3,j,0,16,16,57,j,1,1.24965611967,01,01,60.0174425869,PLT_learning_01,N,2014_Mrz_25_1308,P27,
stim_fb/ques.jpg,stim_fb/posf.jpg,stim_fb/negf.jpg,stim_01/a.jpg,stim_01/b.jpg,2,1,j,0,17,17,18,j,1,1.51625683921,01,01,60.0174425869,PLT_learning_01,N,2014_Mrz_25_1308,P27,
stim_fb/ques.jpg,stim_fb/negf.jpg,stim_fb/posf.jpg,stim_01/f.jpg,stim_01/e.jpg,1,3,f,0,18,18,43,f,1,1.33290992357,01,01,60.0174425869,PLT_learning_01,N,2014_Mrz_25_1308,P27,
stim_fb/ques.jpg,stim_fb/negf.jpg,stim_fb/posf.jpg,stim_01/e.jpg,stim_01/f.jpg,2,3,j,0,19,19,55,j,1,0.699706246922,01,01,60.0174425869,PLT_learning_01,N,2014_Mrz_25_1308,P27,
stim_fb/ques.jpg,stim_fb/negf.jpg,stim_fb/posf.jpg,stim_01/a.jpg,stim_01/b.jpg,2,1,j,0,20,20,11,f,0,1.58286114668,01,01,60.0174425869,PLT_learning_01,N,2014_Mrz_25_1308,P27,
stim_fb/ques.jpg,stim_fb/negf.jpg,stim_fb/posf.jpg,stim_01/a.jpg,stim_01/b.jpg,2,1,j,0,21,21,16,j,1,0.549881127657,01,01,60.0174425869,PLT_learning_01,N,2014_Mrz_25_1308,P27,
stim_fb/ques.jpg,stim_fb/posf.jpg,stim_fb/negf.jpg,stim_01/e.jpg,stim_01/f.jpg,2,3,j,0,22,22,56,j,1,0.916398127841,01,01,60.0174425869,PLT_learning_01,N,2014_Mrz_25_1308,P27,
stim_fb/ques.jpg,stim_fb/negf.jpg,stim_fb/posf.jpg,stim_01/f.jpg,stim_01/e.jpg,1,3,f,0,23,23,41,j,0,0.749798109044,01,01,60.0174425869,PLT_learning_01,N,2014_Mrz_25_1308,P27,
stim_fb/ques.jpg,stim_fb/negf.jpg,stim_fb/posf.jpg,stim_01/d.jpg,stim_01/c.jpg,1,2,f,0,24,24,22,f,1,0.699824801976,01,01,60.0174425869,PLT_learning_01,N,2014_Mrz_25_1308,P27,
stim_fb/ques.jpg,stim_fb/posf.jpg,stim_fb/negf.jpg,stim_01/e.jpg,stim_01/f.jpg,2,3,j,0,25,25,58,j,1,1.08300992996,01,01,60.0174425869,PLT_learning_01,N,2014_Mrz_25_1308,P27,
stim_fb/ques.jpg,stim_fb/negf.jpg,stim_fb/posf.jpg,stim_01/a.jpg,stim_01/b.jpg,2,1,j,0,26,26,15,None,0,,01,01,60.0174425869,PLT_learning_01,N,2014_Mrz_25_1308,P27,
stim_fb/ques.jpg,stim_fb/negf.jpg,stim_fb/posf.jpg,stim_01/c.jpg,stim_01/d.jpg,2,2,j,0,27,27,34,j,1,0.73313421578,01,01,60.0174425869,PLT_learning_01,N,2014_Mrz_25_1308,P27,
stim_fb/ques.jpg,stim_fb/negf.jpg,stim_fb/posf.jpg,stim_01/d.jpg,stim_01/c.jpg,1,2,f,0,28,28,24,f,1,0.516546601354,01,01,60.0174425869,PLT_learning_01,N,2014_Mrz_25_1308,P27,
stim_fb/ques.jpg,stim_fb/negf.jpg,stim_fb/posf.jpg,stim_01/e.jpg,stim_01/f.jpg,2,3,j,0,29,29,50,f,0,0.899763593644,01,01,60.0174425869,PLT_learning_01,N,2014_Mrz_25_1308,P27,
stim_fb/ques.jpg,stim_fb/negf.jpg,stim_fb/posf.jpg,stim_01/b.jpg,stim_01/a.jpg,1,1,f,0,30,30,6,f,1,0.949728530881,01,01,60.0174425869,PLT_learning_01,N,2014_Mrz_25_1308,P27,
stim_fb/ques.jpg,stim_fb/posf.jpg,stim_fb/negf.jpg,stim_01/d.jpg,stim_01/c.jpg,1,2,f,0,31,31,28,f,1,0.683154520814,01,01,60.0174425869,PLT_learning_01,N,2014_Mrz_25_1308,P27,
stim_fb/ques.jpg,stim_fb/negf.jpg,stim_fb/posf.jpg,stim_01/f.jpg,stim_01/e.jpg,1,3,f,0,32,32,40,f,1,1.04972125878,01,01,60.0174425869,PLT_learning_01,N,2014_Mrz_25_1308,P27,
stim_fb/ques.jpg,stim_fb/posf.jpg,stim_fb/negf.jpg,stim_01/a.jpg,stim_01/b.jpg,2,1,j,0,33,33,19,j,1,0.916396585001,01,01,60.0174425869,PLT_learning_01,N,2014_Mrz_25_1308,P27,
stim_fb/ques.jpg,stim_fb/negf.jpg,stim_fb/posf.jpg,stim_01/a.jpg,stim_01/b.jpg,2,1,j,0,34,34,13,f,0,1.14967351195,01,01,60.0174425869,PLT_learning_01,N,2014_Mrz_25_1308,P27,
stim_fb/ques.jpg,stim_fb/posf.jpg,stim_fb/negf.jpg,stim_01/d.jpg,stim_01/c.jpg,1,2,f,0,35,35,27,f,1,0.933072312718,01,01,60.0174425869,PLT_learning_01,N,2014_Mrz_25_1308,P27,
stim_fb/ques.jpg,stim_fb/posf.jpg,stim_fb/negf.jpg,stim_01/c.jpg,stim_01/d.jpg,2,2,j,0,36,36,39,f,0,0.716485059191,01,01,60.0174425869,PLT_learning_01,N,2014_Mrz_25_1308,P27,
stim_fb/ques.jpg,stim_fb/negf.jpg,stim_fb/posf.jpg,stim_01/c.jpg,stim_01/d.jpg,2,2,j,0,37,37,36,f,0,0.616497068078,01,01,60.0174425869,PLT_learning_01,N,2014_Mrz_25_1308,P27,
stim_fb/ques.jpg,stim_fb/posf.jpg,stim_fb/negf.jpg,stim_01/d.jpg,stim_01/c.jpg,1,2,f,0,38,38,29,f,1,0.583179125048,01,01,60.0174425869,PLT_learning_01,N,2014_Mrz_25_1308,P27,
stim_fb/ques.jpg,stim_fb/posf.jpg,stim_fb/negf.jpg,stim_01/f.jpg,stim_01/e.jpg,1,3,f,0,39,39,46,f,1,1.26630058458,01,01,60.0174425869,PLT_learning_01,N,2014_Mrz_25_1308,P27,
stim_fb/ques.jpg,stim_fb/posf.jpg,stim_fb/negf.jpg,stim_01/f.jpg,stim_01/e.jpg,1,3,f,0,40,40,47,j,0,0.59990166126,01,01,60.0174425869,PLT_learning_01,N,2014_Mrz_25_1308,P27,
stim_fb/ques.jpg,stim_fb/negf.jpg,stim_fb/posf.jpg,stim_01/b.jpg,stim_01/a.jpg,1,1,f,0,41,41,7,f,1,1.03304840021,01,01,60.0174425869,PLT_learning_01,N,2014_Mrz_25_1308,P27,
stim_fb/ques.jpg,stim_fb/negf.jpg,stim_fb/posf.jpg,stim_01/d.jpg,stim_01/c.jpg,1,2,f,0,42,42,23,j,0,1.24963774694,01,01,60.0174425869,PLT_learning_01,N,2014_Mrz_25_1308,P27,
stim_fb/ques.jpg,stim_fb/negf.jpg,stim_fb/posf.jpg,stim_01/f.jpg,stim_01/e.jpg,1,3,f,0,43,43,44,f,1,1.16634758255,01,01,60.0174425869,PLT_learning_01,N,2014_Mrz_25_1308,P27,
stim_fb/ques.jpg,stim_fb/negf.jpg,stim_fb/posf.jpg,stim_01/c.jpg,stim_01/d.jpg,2,2,j,0,44,44,30,j,1,1.14967988181,01,01,60.0174425869,PLT_learning_01,N,2014_Mrz_25_1308,P27,
stim_fb/ques.jpg,stim_fb/negf.jpg,stim_fb/posf.jpg,stim_01/e.jpg,stim_01/f.jpg,2,3,j,0,45,45,51,j,1,1.18299501885,01,01,60.0174425869,PLT_learning_01,N,2014_Mrz_25_1308,P27,
stim_fb/ques.jpg,stim_fb/negf.jpg,stim_fb/posf.jpg,stim_01/a.jpg,stim_01/b.jpg,2,1,j,0,46,46,17,None,0,,01,01,60.0174425869,PLT_learning_01,N,2014_Mrz_25_1308,P27,
stim_fb/ques.jpg,stim_fb/negf.jpg,stim_fb/posf.jpg,stim_01/b.jpg,stim_01/a.jpg,1,1,f,0,47,47,3,f,1,0.783130972207,01,01,60.0174425869,PLT_learning_01,N,2014_Mrz_25_1308,P27,
stim_fb/ques.jpg,stim_fb/negf.jpg,stim_fb/posf.jpg,stim_01/b.jpg,stim_01/a.jpg,1,1,f,0,48,48,2,f,1,0.799789361774,01,01,60.0174425869,PLT_learning_01,N,2014_Mrz_25_1308,P27,
stim_fb/ques.jpg,stim_fb/negf.jpg,stim_fb/posf.jpg,stim_01/b.jpg,stim_01/a.jpg,1,1,f,0,49,49,0,f,1,0.63316352372,01,01,60.0174425869,PLT_learning_01,N,2014_Mrz_25_1308,P27,
stim_fb/ques.jpg,stim_fb/posf.jpg,stim_fb/negf.jpg,stim_01/b.jpg,stim_01/a.jpg,1,1,f,0,50,50,8,f,1,0.516511122055,01,01,60.0174425869,PLT_learning_01,N,2014_Mrz_25_1308,P27,
stim_fb/ques.jpg,stim_fb/posf.jpg,stim_fb/negf.jpg,stim_01/e.jpg,stim_01/f.jpg,2,3,j,0,51,51,59,j,1,0.833097587621,01,01,60.0174425869,PLT_learning_01,N,2014_Mrz_25_1308,P27,
stim_fb/ques.jpg,stim_fb/negf.jpg,stim_fb/posf.jpg,stim_01/d.jpg,stim_01/c.jpg,1,2,f,0,52,52,20,f,1,0.983076581843,01,01,60.0174425869,PLT_learning_01,N,2014_Mrz_25_1308,P27,
stim_fb/ques.jpg,stim_fb/negf.jpg,stim_fb/posf.jpg,stim_01/d.jpg,stim_01/c.jpg,1,2,f,0,53,53,26,f,1,0.383245987451,01,01,60.0174425869,PLT_learning_01,N,2014_Mrz_25_1308,P27,
stim_fb/ques.jpg,stim_fb/posf.jpg,stim_fb/negf.jpg,stim_01/f.jpg,stim_01/e.jpg,1,3,f,0,54,54,49,j,0,0.716476966049,01,01,60.0174425869,PLT_learning_01,N,2014_Mrz_25_1308,P27,
stim_fb/ques.jpg,stim_fb/negf.jpg,stim_fb/posf.jpg,stim_01/e.jpg,stim_01/f.jpg,2,3,j,0,55,55,52,f,0,0.583197831603,01,01,60.0174425869,PLT_learning_01,N,2014_Mrz_25_1308,P27,
stim_fb/ques.jpg,stim_fb/negf.jpg,stim_fb/posf.jpg,stim_01/d.jpg,stim_01/c.jpg,1,2,f,0,56,56,25,f,1,0.566490417025,01,01,60.0174425869,PLT_learning_01,N,2014_Mrz_25_1308,P27,
stim_fb/ques.jpg,stim_fb/negf.jpg,stim_fb/posf.jpg,stim_01/c.jpg,stim_01/d.jpg,2,2,j,0,57,57,32,j,1,0.416556706503,01,01,60.0174425869,PLT_learning_01,N,2014_Mrz_25_1308,P27,
stim_fb/ques.jpg,stim_fb/posf.jpg,stim_fb/negf.jpg,stim_01/c.jpg,stim_01/d.jpg,2,2,j,0,58,58,37,j,1,0.483215232911,01,01,60.0174425869,PLT_learning_01,N,2014_Mrz_25_1308,P27,
stim_fb/ques.jpg,stim_fb/posf.jpg,stim_fb/negf.jpg,stim_01/f.jpg,stim_01/e.jpg,1,3,f,0,59,59,48,f,1,1.16630090037,01,01,60.0174425869,PLT_learning_01,N,2014_Mrz_25_1308,P27,
stim_fb/ques.jpg,stim_fb/negf.jpg,stim_fb/posf.jpg,stim_01/a.jpg,stim_01/b.jpg,2,1,j,1,0,60,13,j,1,0.749818977981,01,01,60.0174425869,PLT_learning_01,N,2014_Mrz_25_1308,P27,
stim_fb/ques.jpg,stim_fb/negf.jpg,stim_fb/posf.jpg,stim_01/c.jpg,stim_01/d.jpg,2,2,j,1,1,61,34,j,1,0.716487254655,01,01,60.0174425869,PLT_learning_01,N,2014_Mrz_25_1308,P27,
stim_fb/ques.jpg,stim_fb/posf.jpg,stim_fb/negf.jpg,stim_01/e.jpg,stim_01/f.jpg,2,3,j,1,2,62,58,f,0,0.966355077198,01,01,60.0174425869,PLT_learning_01,N,2014_Mrz_25_1308,P27,
stim_fb/ques.jpg,stim_fb/posf.jpg,stim_fb/negf.jpg,stim_01/e.jpg,stim_01/f.jpg,2,3,j,1,3,63,59,f,0,0.549863621087,01,01,60.0174425869,PLT_learning_01,N,2014_Mrz_25_1308,P27,
stim_fb/ques.jpg,stim_fb/negf.jpg,stim_fb/posf.jpg,stim_01/b.jpg,stim_01/a.jpg,1,1,f,1,4,64,4,f,1,1.03303692364,01,01,60.0174425869,PLT_learning_01,N,2014_Mrz_25_1308,P27,
stim_fb/ques.jpg,stim_fb/negf.jpg,stim_fb/posf.jpg,stim_01/b.jpg,stim_01/a.jpg,1,1,f,1,5,65,0,f,1,0.816422527565,01,01,60.0174425869,PLT_learning_01,N,2014_Mrz_25_1308,P27,
stim_fb/ques.jpg,stim_fb/negf.jpg,stim_fb/posf.jpg,stim_01/a.jpg,stim_01/b.jpg,2,1,j,1,6,66,14,j,1,0.733128790277,01,01,60.0174425869,PLT_learning_01,N,2014_Mrz_25_1308,P27,
stim_fb/ques.jpg,stim_fb/negf.jpg,stim_fb/posf.jpg,stim_01/a.jpg,stim_01/b.jpg,2,1,j,1,7,67,10,j,1,0.549872790908,01,01,60.0174425869,PLT_learning_01,N,2014_Mrz_25_1308,P27,
stim_fb/ques.jpg,stim_fb/posf.jpg,stim_fb/negf.jpg,stim_01/d.jpg,stim_01/c.jpg,1,2,f,1,8,68,29,f,1,0.733125082048,01,01,60.0174425869,PLT_learning_01,N,2014_Mrz_25_1308,P27,
stim_fb/ques.jpg,stim_fb/negf.jpg,stim_fb/posf.jpg,stim_01/e.jpg,stim_01/f.jpg,2,3,j,1,9,69,50,j,1,0.899791181302,01,01,60.0174425869,PLT_learning_01,N,2014_Mrz_25_1308,P27,
stim_fb/ques.jpg,stim_fb/negf.jpg,stim_fb/posf.jpg,stim_01/d.jpg,stim_01/c.jpg,1,2,f,1,10,70,21,j,0,0.949719403165,01,01,60.0174425869,PLT_learning_01,N,2014_Mrz_25_1308,P27,
stim_fb/ques.jpg,stim_fb/negf.jpg,stim_fb/posf.jpg,stim_01/c.jpg,stim_01/d.jpg,2,2,j,1,11,71,36,j,1,0.933071554832,01,01,60.0174425869,PLT_learning_01,N,2014_Mrz_25_1308,P27,
stim_fb/ques.jpg,stim_fb/negf.jpg,stim_fb/posf.jpg,stim_01/e.jpg,stim_01/f.jpg,2,3,j,1,12,72,53,j,1,0.716478223178,01,01,60.0174425869,PLT_learning_01,N,2014_Mrz_25_1308,P27,
stim_fb/ques.jpg,stim_fb/posf.jpg,stim_fb/negf.jpg,stim_01/c.jpg,stim_01/d.jpg,2,2,j,1,13,73,39,f,0,0.983088587723,01,01,60.0174425869,PLT_learning_01,N,2014_Mrz_25_1308,P27,
stim_fb/ques.jpg,stim_fb/posf.jpg,stim_fb/negf.jpg,stim_01/a.jpg,stim_01/b.jpg,2,1,j,1,14,74,19,j,1,0.866431578591,01,01,60.0174425869,PLT_learning_01,N,2014_Mrz_25_1308,P27,
stim_fb/ques.jpg,stim_fb/negf.jpg,stim_fb/posf.jpg,stim_01/b.jpg,stim_01/a.jpg,1,1,f,1,15,75,5,f,1,0.749829365834,01,01,60.0174425869,PLT_learning_01,N,2014_Mrz_25_1308,P27,
stim_fb/ques.jpg,stim_fb/posf.jpg,stim_fb/negf.jpg,stim_01/f.jpg,stim_01/e.jpg,1,3,f,1,16,76,48,j,0,0.916392344447,01,01,60.0174425869,PLT_learning_01,N,2014_Mrz_25_1308,P27,
stim_fb/ques.jpg,stim_fb/posf.jpg,stim_fb/negf.jpg,stim_01/f.jpg,stim_01/e.jpg,1,3,f,1,17,77,46,f,1,0.899773500299,01,01,60.0174425869,PLT_learning_01,N,2014_Mrz_25_1308,P27,
stim_fb/ques.jpg,stim_fb/negf.jpg,stim_fb/posf.jpg,stim_01/a.jpg,stim_01/b.jpg,2,1,j,1,18,78,12,j,1,0.649826857592,01,01,60.0174425869,PLT_learning_01,N,2014_Mrz_25_1308,P27,
stim_fb/ques.jpg,stim_fb/posf.jpg,stim_fb/negf.jpg,stim_01/e.jpg,stim_01/f.jpg,2,3,j,1,19,79,57,f,0,0.799652070089,01,01,60.0174425869,PLT_learning_01,N,2014_Mrz_25_1308,P27,
stim_fb/ques.jpg,stim_fb/negf.jpg,stim_fb/posf.jpg,stim_01/f.jpg,stim_01/e.jpg,1,3,f,1,20,80,43,j,0,0.449917656568,01,01,60.0174425869,PLT_learning_01,N,2014_Mrz_25_1308,P27,
stim_fb/ques.jpg,stim_fb/negf.jpg,stim_fb/posf.jpg,stim_01/c.jpg,stim_01/d.jpg,2,2,j,1,21,81,30,f,0,0.833112137833,01,01,60.0174425869,PLT_learning_01,N,2014_Mrz_25_1308,P27,
stim_fb/ques.jpg,stim_fb/negf.jpg,stim_fb/posf.jpg,stim_01/c.jpg,stim_01/d.jpg,2,2,j,1,22,82,35,j,1,0.49988075924,01,01,60.0174425869,PLT_learning_01,N,2014_Mrz_25_1308,P27,
stim_fb/ques.jpg,stim_fb/negf.jpg,stim_fb/posf.jpg,stim_01/c.jpg,stim_01/d.jpg,2,2,j,1,23,83,31,j,1,0.383267539088,01,01,60.0174425869,PLT_learning_01,N,2014_Mrz_25_1308,P27,
stim_fb/ques.jpg,stim_fb/negf.jpg,stim_fb/posf.jpg,stim_01/f.jpg,stim_01/e.jpg,1,3,f,1,24,84,44,f,1,0.883101522915,01,01,60.0174425869,PLT_learning_01,N,2014_Mrz_25_1308,P27,
stim_fb/ques.jpg,stim_fb/negf.jpg,stim_fb/posf.jpg,stim_01/d.jpg,stim_01/c.jpg,1,2,f,1,25,85,23,j,0,0.999722589595,01,01,60.0174425869,PLT_learning_01,N,2014_Mrz_25_1308,P27,
stim_fb/ques.jpg,stim_fb/negf.jpg,stim_fb/posf.jpg,stim_01/e.jpg,stim_01/f.jpg,2,3,j,1,26,86,54,f,0,0.933034794345,01,01,60.0174425869,PLT_learning_01,N,2014_Mrz_25_1308,P27,
stim_fb/ques.jpg,stim_fb/negf.jpg,stim_fb/posf.jpg,stim_01/a.jpg,stim_01/b.jpg,2,1,j,1,27,87,11,j,1,0.616488367424,01,01,60.0174425869,PLT_learning_01,N,2014_Mrz_25_1308,P27,
stim_fb/ques.jpg,stim_fb/negf.jpg,stim_fb/posf.jpg,stim_01/c.jpg,stim_01/d.jpg,2,2,j,1,28,88,32,j,1,0.899736210494,01,01,60.0174425869,PLT_learning_01,N,2014_Mrz_25_1308,P27,
stim_fb/ques.jpg,stim_fb/negf.jpg,stim_fb/posf.jpg,stim_01/e.jpg,stim_01/f.jpg,2,3,j,1,29,89,55,j,1,1.08306273238,01,01,60.0174425869,PLT_learning_01,N,2014_Mrz_25_1308,P27,
stim_fb/ques.jpg,stim_fb/negf.jpg,stim_fb/posf.jpg,stim_01/a.jpg,stim_01/b.jpg,2,1,j,1,30,90,15,j,1,0.599880563753,01,01,60.0174425869,PLT_learning_01,N,2014_Mrz_25_1308,P27,
stim_fb/ques.jpg,stim_fb/posf.jpg,stim_fb/negf.jpg,stim_01/f.jpg,stim_01/e.jpg,1,3,f,1,31,91,49,f,1,0.766469442826,01,01,60.0174425869,PLT_learning_01,N,2014_Mrz_25_1308,P27,
stim_fb/ques.jpg,stim_fb/posf.jpg,stim_fb/negf.jpg,stim_01/b.jpg,stim_01/a.jpg,1,1,f,1,32,92,8,f,1,0.68215130506,01,01,60.0174425869,PLT_learning_01,N,2014_Mrz_25_1308,P27,
stim_fb/ques.jpg,stim_fb/negf.jpg,stim_fb/posf.jpg,stim_01/f.jpg,stim_01/e.jpg,1,3,f,1,33,93,40,j,0,0.516563046282,01,01,60.0174425869,PLT_learning_01,N,2014_Mrz_25_1308,P27,
stim_fb/ques.jpg,stim_fb/negf.jpg,stim_fb/posf.jpg,stim_01/b.jpg,stim_01/a.jpg,1,1,f,1,34,94,7,f,1,0.58313745033,01,01,60.0174425869,PLT_learning_01,N,2014_Mrz_25_1308,P27,
stim_fb/ques.jpg,stim_fb/negf.jpg,stim_fb/posf.jpg,stim_01/f.jpg,stim_01/e.jpg,1,3,f,1,35,95,41,f,1,0.66646999921,01,01,60.0174425869,PLT_learning_01,N,2014_Mrz_25_1308,P27,
stim_fb/ques.jpg,stim_fb/posf.jpg,stim_fb/negf.jpg,stim_01/b.jpg,stim_01/a.jpg,1,1,f,1,36,96,9,f,1,0.566488389981,01,01,60.0174425869,PLT_learning_01,N,2014_Mrz_25_1308,P27,
stim_fb/ques.jpg,stim_fb/negf.jpg,stim_fb/posf.jpg,stim_01/d.jpg,stim_01/c.jpg,1,2,f,1,37,97,22,f,1,0.716335623282,01,01,60.0174425869,PLT_learning_01,N,2014_Mrz_25_1308,P27,
stim_fb/ques.jpg,stim_fb/negf.jpg,stim_fb/posf.jpg,stim_01/e.jpg,stim_01/f.jpg,2,3,j,1,38,98,52,j,1,0.883063950406,01,01,60.0174425869,PLT_learning_01,N,2014_Mrz_25_1308,P27,
stim_fb/ques.jpg,stim_fb/posf.jpg,stim_fb/negf.jpg,stim_01/d.jpg,stim_01/c.jpg,1,2,f,1,39,99,27,j,0,0.716493522254,01,01,60.0174425869,PLT_learning_01,N,2014_Mrz_25_1308,P27,
stim_fb/ques.jpg,stim_fb/negf.jpg,stim_fb/posf.jpg,stim_01/d.jpg,stim_01/c.jpg,1,2,f,1,40,100,20,f,1,0.499932698503,01,01,60.0174425869,PLT_learning_01,N,2014_Mrz_25_1308,P27,
stim_fb/ques.jpg,stim_fb/negf.jpg,stim_fb/posf.jpg,stim_01/b.jpg,stim_01/a.jpg,1,1,f,1,41,101,2,f,1,0.633174034879,01,01,60.0174425869,PLT_learning_01,N,2014_Mrz_25_1308,P27,
stim_fb/ques.jpg,stim_fb/negf.jpg,stim_fb/posf.jpg,stim_01/e.jpg,stim_01/f.jpg,2,3,j,1,42,102,51,j,1,0.866491349346,01,01,60.0174425869,PLT_learning_01,N,2014_Mrz_25_1308,P27,
stim_fb/ques.jpg,stim_fb/negf.jpg,stim_fb/posf.jpg,stim_01/a.jpg,stim_01/b.jpg,2,1,j,1,43,103,17,j,1,0.633209995376,01,01,60.0174425869,PLT_learning_01,N,2014_Mrz_25_1308,P27,
stim_fb/ques.jpg,stim_fb/posf.jpg,stim_fb/negf.jpg,stim_01/a.jpg,stim_01/b.jpg,2,1,j,1,44,104,18,j,1,0.616511931069,01,01,60.0174425869,PLT_learning_01,N,2014_Mrz_25_1308,P27,
stim_fb/ques.jpg,stim_fb/posf.jpg,stim_fb/negf.jpg,stim_01/d.jpg,stim_01/c.jpg,1,2,f,1,45,105,28,f,1,0.499876891614,01,01,60.0174425869,PLT_learning_01,N,2014_Mrz_25_1308,P27,
stim_fb/ques.jpg,stim_fb/negf.jpg,stim_fb/posf.jpg,stim_01/f.jpg,stim_01/e.jpg,1,3,f,1,46,106,45,f,1,0.666473869844,01,01,60.0174425869,PLT_learning_01,N,2014_Mrz_25_1308,P27,
stim_fb/ques.jpg,stim_fb/negf.jpg,stim_fb/posf.jpg,stim_01/f.jpg,stim_01/e.jpg,1,3,f,1,47,107,42,j,0,0.533215315617,01,01,60.0174425869,PLT_learning_01,N,2014_Mrz_25_1308,P27,
stim_fb/ques.jpg,stim_fb/posf.jpg,stim_fb/negf.jpg,stim_01/e.jpg,stim_01/f.jpg,2,3,j,1,48,108,56,f,0,0.849794274501,01,01,60.0174425869,PLT_learning_01,N,2014_Mrz_25_1308,P27,
stim_fb/ques.jpg,stim_fb/negf.jpg,stim_fb/posf.jpg,stim_01/d.jpg,stim_01/c.jpg,1,2,f,1,49,109,24,f,1,0.583181422766,01,01,60.0174425869,PLT_learning_01,N,2014_Mrz_25_1308,P27,
stim_fb/ques.jpg,stim_fb/negf.jpg,stim_fb/posf.jpg,stim_01/c.jpg,stim_01/d.jpg,2,2,j,1,50,110,33,j,1,0.483237196573,01,01,60.0174425869,PLT_learning_01,N,2014_Mrz_25_1308,P27,
stim_fb/ques.jpg,stim_fb/negf.jpg,stim_fb/posf.jpg,stim_01/b.jpg,stim_01/a.jpg,1,1,f,1,51,111,3,f,1,0.666510660406,01,01,60.0174425869,PLT_learning_01,N,2014_Mrz_25_1308,P27,
stim_fb/ques.jpg,stim_fb/negf.jpg,stim_fb/posf.jpg,stim_01/d.jpg,stim_01/c.jpg,1,2,f,1,52,112,25,f,1,0.449890802735,01,01,60.0174425869,PLT_learning_01,N,2014_Mrz_25_1308,P27,
stim_fb/ques.jpg,stim_fb/posf.jpg,stim_fb/negf.jpg,stim_01/c.jpg,stim_01/d.jpg,2,2,j,1,53,113,37,j,1,0.383243172445,01,01,60.0174425869,PLT_learning_01,N,2014_Mrz_25_1308,P27,
stim_fb/ques.jpg,stim_fb/negf.jpg,stim_fb/posf.jpg,stim_01/a.jpg,stim_01/b.jpg,2,1,j,1,54,114,16,j,1,0.683156496731,01,01,60.0174425869,PLT_learning_01,N,2014_Mrz_25_1308,P27,
stim_fb/ques.jpg,stim_fb/negf.jpg,stim_fb/posf.jpg,stim_01/b.jpg,stim_01/a.jpg,1,1,f,1,55,115,6,f,1,0.749802833803,01,01,60.0174425869,PLT_learning_01,N,2014_Mrz_25_1308,P27,
stim_fb/ques.jpg,stim_fb/posf.jpg,stim_fb/negf.jpg,stim_01/f.jpg,stim_01/e.jpg,1,3,f,1,56,116,47,f,1,0.548871175137,01,01,60.0174425869,PLT_learning_01,N,2014_Mrz_25_1308,P27,
stim_fb/ques.jpg,stim_fb/negf.jpg,stim_fb/posf.jpg,stim_01/d.jpg,stim_01/c.jpg,1,2,f,1,57,117,26,f,1,0.966387299391,01,01,60.0174425869,PLT_learning_01,N,2014_Mrz_25_1308,P27,
stim_fb/ques.jpg,stim_fb/negf.jpg,stim_fb/posf.jpg,stim_01/b.jpg,stim_01/a.jpg,1,1,f,1,58,118,1,j,0,0.983041210813,01,01,60.0174425869,PLT_learning_01,N,2014_Mrz_25_1308,P27,
stim_fb/ques.jpg,stim_fb/posf.jpg,stim_fb/negf.jpg,stim_01/c.jpg,stim_01/d.jpg,2,2,j,1,59,119,38,j,1,0.516539732259,01,01,60.0174425869,PLT_learning_01,N,2014_Mrz_25_1308,P27,
stim_fb/ques.jpg,stim_fb/negf.jpg,stim_fb/posf.jpg,stim_01/d.jpg,stim_01/c.jpg,1,2,f,2,0,120,25,f,1,0.666484335891,01,01,60.0174425869,PLT_learning_01,N,2014_Mrz_25_1308,P27,
stim_fb/ques.jpg,stim_fb/negf.jpg,stim_fb/posf.jpg,stim_01/a.jpg,stim_01/b.jpg,2,1,j,2,1,121,12,j,1,0.666551270474,01,01,60.0174425869,PLT_learning_01,N,2014_Mrz_25_1308,P27,
stim_fb/ques.jpg,stim_fb/negf.jpg,stim_fb/posf.jpg,stim_01/e.jpg,stim_01/f.jpg,2,3,j,2,2,122,55,f,0,0.933086297523,01,01,60.0174425869,PLT_learning_01,N,2014_Mrz_25_1308,P27,
stim_fb/ques.jpg,stim_fb/posf.jpg,stim_fb/negf.jpg,stim_01/c.jpg,stim_01/d.jpg,2,2,j,2,3,123,38,j,1,0.666487045635,01,01,60.0174425869,PLT_learning_01,N,2014_Mrz_25_1308,P27,
stim_fb/ques.jpg,stim_fb/negf.jpg,stim_fb/posf.jpg,stim_01/b.jpg,stim_01/a.jpg,1,1,f,2,4,124,6,f,1,1.03303586501,01,01,60.0174425869,PLT_learning_01,N,2014_Mrz_25_1308,P27,
stim_fb/ques.jpg,stim_fb/posf.jpg,stim_fb/negf.jpg,stim_01/c.jpg,stim_01/d.jpg,2,2,j,2,5,125,39,j,1,0.983053712928,01,01,60.0174425869,PLT_learning_01,N,2014_Mrz_25_1308,P27,
stim_fb/ques.jpg,stim_fb/negf.jpg,stim_fb/posf.jpg,stim_01/f.jpg,stim_01/e.jpg,1,3,f,2,6,126,42,f,1,1.51616387184,01,01,60.0174425869,PLT_learning_01,N,2014_Mrz_25_1308,P27,
stim_fb/ques.jpg,stim_fb/posf.jpg,stim_fb/negf.jpg,stim_01/e.jpg,stim_01/f.jpg,2,3,j,2,7,127,58,j,1,0.766464269952,01,01,60.0174425869,PLT_learning_01,N,2014_Mrz_25_1308,P27,
stim_fb/ques.jpg,stim_fb/negf.jpg,stim_fb/posf.jpg,stim_01/b.jpg,stim_01/a.jpg,1,1,f,2,8,128,4,f,1,0.849777820551,01,01,60.0174425869,PLT_learning_01,N,2014_Mrz_25_1308,P27,
stim_fb/ques.jpg,stim_fb/negf.jpg,stim_fb/posf.jpg,stim_01/d.jpg,stim_01/c.jpg,1,2,f,2,9,129,21,f,1,0.999698601895,01,01,60.0174425869,PLT_learning_01,N,2014_Mrz_25_1308,P27,
stim_fb/ques.jpg,stim_fb/negf.jpg,stim_fb/posf.jpg,stim_01/c.jpg,stim_01/d.jpg,2,2,j,2,10,130,35,f,0,1.11653263159,01,01,60.0174425869,PLT_learning_01,N,2014_Mrz_25_1308,P27,
stim_fb/ques.jpg,stim_fb/negf.jpg,stim_fb/posf.jpg,stim_01/c.jpg,stim_01/d.jpg,2,2,j,2,11,131,33,j,1,0.766470230787,01,01,60.0174425869,PLT_learning_01,N,2014_Mrz_25_1308,P27,
stim_fb/ques.jpg,stim_fb/posf.jpg,stim_fb/negf.jpg,stim_01/b.jpg,stim_01/a.jpg,1,1,f,2,12,132,9,f,1,0.983054600136,01,01,60.0174425869,PLT_learning_01,N,2014_Mrz_25_1308,P27,
stim_fb/ques.jpg,stim_fb/posf.jpg,stim_fb/negf.jpg,stim_01/f.jpg,stim_01/e.jpg,1,3,f,2,13,133,49,j,0,1.09969607862,01,01,60.0174425869,PLT_learning_01,N,2014_Mrz_25_1308,P27,
stim_fb/ques.jpg,stim_fb/posf.jpg,stim_fb/negf.jpg,stim_01/d.jpg,stim_01/c.jpg,1,2,f,2,14,134,27,f,1,0.883083471991,01,01,60.0174425869,PLT_learning_01,N,2014_Mrz_25_1308,P27,
stim_fb/ques.jpg,stim_fb/negf.jpg,stim_fb/posf.jpg,stim_01/f.jpg,stim_01/e.jpg,1,3,f,2,15,135,44,j,0,0.916385361067,01,01,60.0174425869,PLT_learning_01,N,2014_Mrz_25_1308,P27,
stim_fb/ques.jpg,stim_fb/negf.jpg,stim_fb/posf.jpg,stim_01/b.jpg,stim_01/a.jpg,1,1,f,2,16,136,5,f,1,0.783017971978,01,01,60.0174425869,PLT_learning_01,N,2014_Mrz_25_1308,P27,
stim_fb/ques.jpg,stim_fb/negf.jpg,stim_fb/posf.jpg,stim_01/c.jpg,stim_01/d.jpg,2,2,j,2,17,137,31,f,0,1.06636153126,01,01,60.0174425869,PLT_learning_01,N,2014_Mrz_25_1308,P27,
stim_fb/ques.jpg,stim_fb/posf.jpg,stim_fb/negf.jpg,stim_01/f.jpg,stim_01/e.jpg,1,3,f,2,18,138,47,j,0,0.749798024834,01,01,60.0174425869,PLT_learning_01,N,2014_Mrz_25_1308,P27,
stim_fb/ques.jpg,stim_fb/posf.jpg,stim_fb/negf.jpg,stim_01/a.jpg,stim_01/b.jpg,2,1,j,2,19,139,18,j,1,0.899749217866,01,01,60.0174425869,PLT_learning_01,N,2014_Mrz_25_1308,P27,
stim_fb/ques.jpg,stim_fb/negf.jpg,stim_fb/posf.jpg,stim_01/d.jpg,stim_01/c.jpg,1,2,f,2,20,140,24,f,1,1.28297236046,01,01,60.0174425869,PLT_learning_01,N,2014_Mrz_25_1308,P27,
stim_fb/ques.jpg,stim_fb/posf.jpg,stim_fb/negf.jpg,stim_01/e.jpg,stim_01/f.jpg,2,3,j,2,21,141,57,f,0,0.99970618978,01,01,60.0174425869,PLT_learning_01,N,2014_Mrz_25_1308,P27,
stim_fb/ques.jpg,stim_fb/negf.jpg,stim_fb/posf.jpg,stim_01/e.jpg,stim_01/f.jpg,2,3,j,2,22,142,54,f,0,0.883087267437,01,01,60.0174425869,PLT_learning_01,N,2014_Mrz_25_1308,P27,
stim_fb/ques.jpg,stim_fb/negf.jpg,stim_fb/posf.jpg,stim_01/e.jpg,stim_01/f.jpg,2,3,j,2,23,143,53,j,1,1.11639525269,01,01,60.0174425869,PLT_learning_01,N,2014_Mrz_25_1308,P27,
stim_fb/ques.jpg,stim_fb/negf.jpg,stim_fb/posf.jpg,stim_01/f.jpg,stim_01/e.jpg,1,3,f,2,24,144,43,f,1,0.999701762762,01,01,60.0174425869,PLT_learning_01,N,2014_Mrz_25_1308,P27,
stim_fb/ques.jpg,stim_fb/negf.jpg,stim_fb/posf.jpg,stim_01/b.jpg,stim_01/a.jpg,1,1,f,2,25,145,2,f,1,0.966400899238,01,01,60.0174425869,PLT_learning_01,N,2014_Mrz_25_1308,P27,
stim_fb/ques.jpg,stim_fb/negf.jpg,stim_fb/posf.jpg,stim_01/a.jpg,stim_01/b.jpg,2,1,j,2,26,146,14,f,0,0.649844301004,01,01,60.0174425869,PLT_learning_01,N,2014_Mrz_25_1308,P27,
stim_fb/ques.jpg,stim_fb/negf.jpg,stim_fb/posf.jpg,stim_01/e.jpg,stim_01/f.jpg,2,3,j,2,27,147,51,j,1,1.01640441348,01,01,60.0174425869,PLT_learning_01,N,2014_Mrz_25_1308,P27,
stim_fb/ques.jpg,stim_fb/negf.jpg,stim_fb/posf.jpg,stim_01/a.jpg,stim_01/b.jpg,2,1,j,2,28,148,13,j,1,0.849640706308,01,01,60.0174425869,PLT_learning_01,N,2014_Mrz_25_1308,P27,
stim_fb/ques.jpg,stim_fb/negf.jpg,stim_fb/posf.jpg,stim_01/c.jpg,stim_01/d.jpg,2,2,j,2,29,149,32,j,1,0.916420834352,01,01,60.0174425869,PLT_learning_01,N,2014_Mrz_25_1308,P27,
stim_fb/ques.jpg,stim_fb/negf.jpg,stim_fb/posf.jpg,stim_01/c.jpg,stim_01/d.jpg,2,2,j,2,30,150,36,j,1,0.383264318071,01,01,60.0174425869,PLT_learning_01,N,2014_Mrz_25_1308,P27,
stim_fb/ques.jpg,stim_fb/negf.jpg,stim_fb/posf.jpg,stim_01/d.jpg,stim_01/c.jpg,1,2,f,2,31,151,22,f,1,0.516590904614,01,01,60.0174425869,PLT_learning_01,N,2014_Mrz_25_1308,P27,
stim_fb/ques.jpg,stim_fb/negf.jpg,stim_fb/posf.jpg,stim_01/f.jpg,stim_01/e.jpg,1,3,f,2,32,152,41,j,0,0.699809532975,01,01,60.0174425869,PLT_learning_01,N,2014_Mrz_25_1308,P27,
stim_fb/ques.jpg,stim_fb/negf.jpg,stim_fb/posf.jpg,stim_01/e.jpg,stim_01/f.jpg,2,3,j,2,33,153,52,j,1,0.832977859648,01,01,60.0174425869,PLT_learning_01,N,2014_Mrz_25_1308,P27,
stim_fb/ques.jpg,stim_fb/posf.jpg,stim_fb/negf.jpg,stim_01/e.jpg,stim_01/f.jpg,2,3,j,2,34,154,59,j,1,0.9997260873,01,01,60.0174425869,PLT_learning_01,N,2014_Mrz_25_1308,P27,
stim_fb/ques.jpg,stim_fb/posf.jpg,stim_fb/negf.jpg,stim_01/d.jpg,stim_01/c.jpg,1,2,f,2,35,155,28,f,1,0.866433506389,01,01,60.0174425869,PLT_learning_01,N,2014_Mrz_25_1308,P27,
stim_fb/ques.jpg,stim_fb/negf.jpg,stim_fb/posf.jpg,stim_01/f.jpg,stim_01/e.jpg,1,3,f,2,36,156,40,j,0,0.783112181442,01,01,60.0174425869,PLT_learning_01,N,2014_Mrz_25_1308,P27,
stim_fb/ques.jpg,stim_fb/negf.jpg,stim_fb/posf.jpg,stim_01/b.jpg,stim_01/a.jpg,1,1,f,2,37,157,3,f,1,0.766467325557,01,01,60.0174425869,PLT_learning_01,N,2014_Mrz_25_1308,P27,
stim_fb/ques.jpg,stim_fb/negf.jpg,stim_fb/posf.jpg,stim_01/e.jpg,stim_01/f.jpg,2,3,j,2,38,158,50,j,1,1.38294474574,01,01,60.0174425869,PLT_learning_01,N,2014_Mrz_25_1308,P27,
stim_fb/ques.jpg,stim_fb/posf.jpg,stim_fb/negf.jpg,stim_01/f.jpg,stim_01/e.jpg,1,3,f,2,39,159,48,f,1,0.783165113176,01,01,60.0174425869,PLT_learning_01,N,2014_Mrz_25_1308,P27,
stim_fb/ques.jpg,stim_fb/negf.jpg,stim_fb/posf.jpg,stim_01/f.jpg,stim_01/e.jpg,1,3,f,2,40,160,45,j,0,0.633199469179,01,01,60.0174425869,PLT_learning_01,N,2014_Mrz_25_1308,P27,
stim_fb/ques.jpg,stim_fb/negf.jpg,stim_fb/posf.jpg,stim_01/c.jpg,stim_01/d.jpg,2,2,j,2,41,161,34,j,1,0.649820872697,01,01,60.0174425869,PLT_learning_01,N,2014_Mrz_25_1308,P27,
stim_fb/ques.jpg,stim_fb/negf.jpg,stim_fb/posf.jpg,stim_01/a.jpg,stim_01/b.jpg,2,1,j,2,42,162,17,j,1,0.899704983779,01,01,60.0174425869,PLT_learning_01,N,2014_Mrz_25_1308,P27,
stim_fb/ques.jpg,stim_fb/negf.jpg,stim_fb/posf.jpg,stim_01/d.jpg,stim_01/c.jpg,1,2,f,2,43,163,26,j,0,0.983038940162,01,01,60.0174425869,PLT_learning_01,N,2014_Mrz_25_1308,P27,
stim_fb/ques.jpg,stim_fb/negf.jpg,stim_fb/posf.jpg,stim_01/a.jpg,stim_01/b.jpg,2,1,j,2,44,164,15,j,1,0.833113972399,01,01,60.0174425869,PLT_learning_01,N,2014_Mrz_25_1308,P27,
stim_fb/ques.jpg,stim_fb/negf.jpg,stim_fb/posf.jpg,stim_01/b.jpg,stim_01/a.jpg,1,1,f,2,45,165,0,f,1,0.683154737352,01,01,60.0174425869,PLT_learning_01,N,2014_Mrz_25_1308,P27,
stim_fb/ques.jpg,stim_fb/posf.jpg,stim_fb/negf.jpg,stim_01/a.jpg,stim_01/b.jpg,2,1,j,2,46,166,19,j,1,0.649825780912,01,01,60.0174425869,PLT_learning_01,N,2014_Mrz_25_1308,P27,
stim_fb/ques.jpg,stim_fb/posf.jpg,stim_fb/negf.jpg,stim_01/f.jpg,stim_01/e.jpg,1,3,f,2,47,167,46,f,1,0.53321425999,01,01,60.0174425869,PLT_learning_01,N,2014_Mrz_25_1308,P27,
stim_fb/ques.jpg,stim_fb/negf.jpg,stim_fb/posf.jpg,stim_01/a.jpg,stim_01/b.jpg,2,1,j,2,48,168,11,j,1,0.533194942914,01,01,60.0174425869,PLT_learning_01,N,2014_Mrz_25_1308,P27,
stim_fb/ques.jpg,stim_fb/posf.jpg,stim_fb/negf.jpg,stim_01/e.jpg,stim_01/f.jpg,2,3,j,2,49,169,56,j,1,0.849769327414,01,01,60.0174425869,PLT_learning_01,N,2014_Mrz_25_1308,P27,
stim_fb/ques.jpg,stim_fb/negf.jpg,stim_fb/posf.jpg,stim_01/c.jpg,stim_01/d.jpg,2,2,j,2,50,170,30,f,0,0.666542043511,01,01,60.0174425869,PLT_learning_01,N,2014_Mrz_25_1308,P27,
stim_fb/ques.jpg,stim_fb/negf.jpg,stim_fb/posf.jpg,stim_01/b.jpg,stim_01/a.jpg,1,1,f,2,51,171,1,f,1,0.799792772262,01,01,60.0174425869,PLT_learning_01,N,2014_Mrz_25_1308,P27,
stim_fb/ques.jpg,stim_fb/posf.jpg,stim_fb/negf.jpg,stim_01/b.jpg,stim_01/a.jpg,1,1,f,2,52,172,8,f,1,0.683158087691,01,01,60.0174425869,PLT_learning_01,N,2014_Mrz_25_1308,P27,
stim_fb/ques.jpg,stim_fb/negf.jpg,stim_fb/posf.jpg,stim_01/a.jpg,stim_01/b.jpg,2,1,j,2,53,173,10,j,1,0.499867159393,01,01,60.0174425869,PLT_learning_01,N,2014_Mrz_25_1308,P27,
stim_fb/ques.jpg,stim_fb/posf.jpg,stim_fb/negf.jpg,stim_01/d.jpg,stim_01/c.jpg,1,2,f,2,54,174,29,f,1,0.99969877633,01,01,60.0174425869,PLT_learning_01,N,2014_Mrz_25_1308,P27,
stim_fb/ques.jpg,stim_fb/negf.jpg,stim_fb/posf.jpg,stim_01/a.jpg,stim_01/b.jpg,2,1,j,2,55,175,16,j,1,0.816466842855,01,01,60.0174425869,PLT_learning_01,N,2014_Mrz_25_1308,P27,
stim_fb/ques.jpg,stim_fb/negf.jpg,stim_fb/posf.jpg,stim_01/d.jpg,stim_01/c.jpg,1,2,f,2,56,176,20,f,1,1.116358814,01,01,60.0174425869,PLT_learning_01,N,2014_Mrz_25_1308,P27,
stim_fb/ques.jpg,stim_fb/posf.jpg,stim_fb/negf.jpg,stim_01/c.jpg,stim_01/d.jpg,2,2,j,2,57,177,37,j,1,0.866292497453,01,01,60.0174425869,PLT_learning_01,N,2014_Mrz_25_1308,P27,
stim_fb/ques.jpg,stim_fb/negf.jpg,stim_fb/posf.jpg,stim_01/d.jpg,stim_01/c.jpg,1,2,f,2,58,178,23,f,1,1.01638318064,01,01,60.0174425869,PLT_learning_01,N,2014_Mrz_25_1308,P27,
stim_fb/ques.jpg,stim_fb/negf.jpg,stim_fb/posf.jpg,stim_01/b.jpg,stim_01/a.jpg,1,1,f,2,59,179,7,f,1,1.33293576087,01,01,60.0174425869,PLT_learning_01,N,2014_Mrz_25_1308,P27,
stim_fb/ques.jpg,stim_fb/posf.jpg,stim_fb/negf.jpg,stim_01/c.jpg,stim_01/d.jpg,2,2,j,3,0,180,38,j,1,0.816431862798,01,01,60.0174425869,PLT_learning_01,N,2014_Mrz_25_1308,P27,
stim_fb/ques.jpg,stim_fb/posf.jpg,stim_fb/negf.jpg,stim_01/d.jpg,stim_01/c.jpg,1,2,f,3,1,181,29,f,1,0.86640853825,01,01,60.0174425869,PLT_learning_01,N,2014_Mrz_25_1308,P27,
stim_fb/ques.jpg,stim_fb/negf.jpg,stim_fb/posf.jpg,stim_01/c.jpg,stim_01/d.jpg,2,2,j,3,2,182,32,f,0,0.71648271636,01,01,60.0174425869,PLT_learning_01,N,2014_Mrz_25_1308,P27,
stim_fb/ques.jpg,stim_fb/negf.jpg,stim_fb/posf.jpg,stim_01/a.jpg,stim_01/b.jpg,2,1,j,3,3,183,12,j,1,0.799790829427,01,01,60.0174425869,PLT_learning_01,N,2014_Mrz_25_1308,P27,
stim_fb/ques.jpg,stim_fb/posf.jpg,stim_fb/negf.jpg,stim_01/b.jpg,stim_01/a.jpg,1,1,f,3,4,184,9,f,1,0.616529822596,01,01,60.0174425869,PLT_learning_01,N,2014_Mrz_25_1308,P27,
stim_fb/ques.jpg,stim_fb/negf.jpg,stim_fb/posf.jpg,stim_01/d.jpg,stim_01/c.jpg,1,2,f,3,5,185,20,j,0,0.883322807638,01,01,60.0174425869,PLT_learning_01,N,2014_Mrz_25_1308,P27,
stim_fb/ques.jpg,stim_fb/negf.jpg,stim_fb/posf.jpg,stim_01/a.jpg,stim_01/b.jpg,2,1,j,3,6,186,16,j,1,0.883076145758,01,01,60.0174425869,PLT_learning_01,N,2014_Mrz_25_1308,P27,
stim_fb/ques.jpg,stim_fb/negf.jpg,stim_fb/posf.jpg,stim_01/f.jpg,stim_01/e.jpg,1,3,f,3,7,187,42,f,1,0.883162015466,01,01,60.0174425869,PLT_learning_01,N,2014_Mrz_25_1308,P27,
stim_fb/ques.jpg,stim_fb/negf.jpg,stim_fb/posf.jpg,stim_01/c.jpg,stim_01/d.jpg,2,2,j,3,8,188,34,j,1,0.916405294677,01,01,60.0174425869,PLT_learning_01,N,2014_Mrz_25_1308,P27,
stim_fb/ques.jpg,stim_fb/negf.jpg,stim_fb/posf.jpg,stim_01/d.jpg,stim_01/c.jpg,1,2,f,3,9,189,23,j,0,0.933014502844,01,01,60.0174425869,PLT_learning_01,N,2014_Mrz_25_1308,P27,
stim_fb/ques.jpg,stim_fb/negf.jpg,stim_fb/posf.jpg,stim_01/e.jpg,stim_01/f.jpg,2,3,j,3,10,190,51,f,0,0.783121065552,01,01,60.0174425869,PLT_learning_01,N,2014_Mrz_25_1308,P27,
stim_fb/ques.jpg,stim_fb/negf.jpg,stim_fb/posf.jpg,stim_01/b.jpg,stim_01/a.jpg,1,1,f,3,11,191,1,f,1,0.633182876885,01,01,60.0174425869,PLT_learning_01,N,2014_Mrz_25_1308,P27,
stim_fb/ques.jpg,stim_fb/negf.jpg,stim_fb/posf.jpg,stim_01/b.jpg,stim_01/a.jpg,1,1,f,3,12,192,7,f,1,1.09968976891,01,01,60.0174425869,PLT_learning_01,N,2014_Mrz_25_1308,P27,
stim_fb/ques.jpg,stim_fb/negf.jpg,stim_fb/posf.jpg,stim_01/f.jpg,stim_01/e.jpg,1,3,f,3,13,193,41,f,1,0.949710073947,01,01,60.0174425869,PLT_learning_01,N,2014_Mrz_25_1308,P27,
stim_fb/ques.jpg,stim_fb/negf.jpg,stim_fb/posf.jpg,stim_01/e.jpg,stim_01/f.jpg,2,3,j,3,14,194,54,j,1,0.749795492532,01,01,60.0174425869,PLT_learning_01,N,2014_Mrz_25_1308,P27,
stim_fb/ques.jpg,stim_fb/negf.jpg,stim_fb/posf.jpg,stim_01/b.jpg,stim_01/a.jpg,1,1,f,3,15,195,4,f,1,0.699804366116,01,01,60.0174425869,PLT_learning_01,N,2014_Mrz_25_1308,P27,
stim_fb/ques.jpg,stim_fb/negf.jpg,stim_fb/posf.jpg,stim_01/e.jpg,stim_01/f.jpg,2,3,j,3,16,196,55,j,1,0.766415611854,01,01,60.0174425869,PLT_learning_01,N,2014_Mrz_25_1308,P27,
stim_fb/ques.jpg,stim_fb/negf.jpg,stim_fb/posf.jpg,stim_01/c.jpg,stim_01/d.jpg,2,2,j,3,17,197,36,j,1,0.83308679075,01,01,60.0174425869,PLT_learning_01,N,2014_Mrz_25_1308,P27,
stim_fb/ques.jpg,stim_fb/negf.jpg,stim_fb/posf.jpg,stim_01/b.jpg,stim_01/a.jpg,1,1,f,3,18,198,0,f,1,0.749793212858,01,01,60.0174425869,PLT_learning_01,N,2014_Mrz_25_1308,P27,
stim_fb/ques.jpg,stim_fb/negf.jpg,stim_fb/posf.jpg,stim_01/d.jpg,stim_01/c.jpg,1,2,f,3,19,199,22,f,1,0.56650747548,01,01,60.0174425869,PLT_learning_01,N,2014_Mrz_25_1308,P27,
stim_fb/ques.jpg,stim_fb/posf.jpg,stim_fb/negf.jpg,stim_01/e.jpg,stim_01/f.jpg,2,3,j,3,20,200,59,j,1,0.583187750514,01,01,60.0174425869,PLT_learning_01,N,2014_Mrz_25_1308,P27,
stim_fb/ques.jpg,stim_fb/posf.jpg,stim_fb/negf.jpg,stim_01/c.jpg,stim_01/d.jpg,2,2,j,3,21,201,37,j,1,0.549861377503,01,01,60.0174425869,PLT_learning_01,N,2014_Mrz_25_1308,P27,
stim_fb/ques.jpg,stim_fb/negf.jpg,stim_fb/posf.jpg,stim_01/a.jpg,stim_01/b.jpg,2,1,j,3,22,202,15,j,1,0.78312647301,01,01,60.0174425869,PLT_learning_01,N,2014_Mrz_25_1308,P27,
stim_fb/ques.jpg,stim_fb/negf.jpg,stim_fb/posf.jpg,stim_01/e.jpg,stim_01/f.jpg,2,3,j,3,23,203,50,j,1,0.666519538501,01,01,60.0174425869,PLT_learning_01,N,2014_Mrz_25_1308,P27,
stim_fb/ques.jpg,stim_fb/negf.jpg,stim_fb/posf.jpg,stim_01/e.jpg,stim_01/f.jpg,2,3,j,3,24,204,53,j,1,0.633195454187,01,01,60.0174425869,PLT_learning_01,N,2014_Mrz_25_1308,P27,
stim_fb/ques.jpg,stim_fb/negf.jpg,stim_fb/posf.jpg,stim_01/a.jpg,stim_01/b.jpg,2,1,j,3,25,205,11,j,1,0.633146302861,01,01,60.0174425869,PLT_learning_01,N,2014_Mrz_25_1308,P27,
stim_fb/ques.jpg,stim_fb/negf.jpg,stim_fb/posf.jpg,stim_01/f.jpg,stim_01/e.jpg,1,3,f,3,26,206,40,f,1,0.64982072533,01,01,60.0174425869,PLT_learning_01,N,2014_Mrz_25_1308,P27,
stim_fb/ques.jpg,stim_fb/negf.jpg,stim_fb/posf.jpg,stim_01/d.jpg,stim_01/c.jpg,1,2,f,3,27,207,25,f,1,0.949728774488,01,01,60.0174425869,PLT_learning_01,N,2014_Mrz_25_1308,P27,
stim_fb/ques.jpg,stim_fb/negf.jpg,stim_fb/posf.jpg,stim_01/c.jpg,stim_01/d.jpg,2,2,j,3,28,208,31,j,1,0.416589400871,01,01,60.0174425869,PLT_learning_01,N,2014_Mrz_25_1308,P27,
stim_fb/ques.jpg,stim_fb/negf.jpg,stim_fb/posf.jpg,stim_01/d.jpg,stim_01/c.jpg,1,2,f,3,29,209,24,f,1,0.433234608632,01,01,60.0174425869,PLT_learning_01,N,2014_Mrz_25_1308,P27,
stim_fb/ques.jpg,stim_fb/negf.jpg,stim_fb/posf.jpg,stim_01/b.jpg,stim_01/a.jpg,1,1,f,3,30,210,5,f,1,0.749802045842,01,01,60.0174425869,PLT_learning_01,N,2014_Mrz_25_1308,P27,
stim_fb/ques.jpg,stim_fb/negf.jpg,stim_fb/posf.jpg,stim_01/f.jpg,stim_01/e.jpg,1,3,f,3,31,211,43,f,1,0.833110832584,01,01,60.0174425869,PLT_learning_01,N,2014_Mrz_25_1308,P27,
stim_fb/ques.jpg,stim_fb/posf.jpg,stim_fb/negf.jpg,stim_01/f.jpg,stim_01/e.jpg,1,3,f,3,32,212,49,f,1,0.849772115352,01,01,60.0174425869,PLT_learning_01,N,2014_Mrz_25_1308,P27,
stim_fb/ques.jpg,stim_fb/negf.jpg,stim_fb/posf.jpg,stim_01/f.jpg,stim_01/e.jpg,1,3,f,3,33,213,45,j,0,1.03302264711,01,01,60.0174425869,PLT_learning_01,N,2014_Mrz_25_1308,P27,
stim_fb/ques.jpg,stim_fb/negf.jpg,stim_fb/posf.jpg,stim_01/f.jpg,stim_01/e.jpg,1,3,f,3,34,214,44,f,1,0.766416195306,01,01,60.0174425869,PLT_learning_01,N,2014_Mrz_25_1308,P27,
stim_fb/ques.jpg,stim_fb/negf.jpg,stim_fb/posf.jpg,stim_01/e.jpg,stim_01/f.jpg,2,3,j,3,35,215,52,j,1,0.84974776074,01,01,60.0174425869,PLT_learning_01,N,2014_Mrz_25_1308,P27,
stim_fb/ques.jpg,stim_fb/posf.jpg,stim_fb/negf.jpg,stim_01/d.jpg,stim_01/c.jpg,1,2,f,3,36,216,27,f,1,0.783101357503,01,01,60.0174425869,PLT_learning_01,N,2014_Mrz_25_1308,P27,
stim_fb/ques.jpg,stim_fb/posf.jpg,stim_fb/negf.jpg,stim_01/a.jpg,stim_01/b.jpg,2,1,j,3,37,217,19,j,1,0.933089638839,01,01,60.0174425869,PLT_learning_01,N,2014_Mrz_25_1308,P27,
stim_fb/ques.jpg,stim_fb/posf.jpg,stim_fb/negf.jpg,stim_01/b.jpg,stim_01/a.jpg,1,1,f,3,38,218,8,f,1,0.583062717338,01,01,60.0174425869,PLT_learning_01,N,2014_Mrz_25_1308,P27,
stim_fb/ques.jpg,stim_fb/negf.jpg,stim_fb/posf.jpg,stim_01/c.jpg,stim_01/d.jpg,2,2,j,3,39,219,35,j,1,0.766478206637,01,01,60.0174425869,PLT_learning_01,N,2014_Mrz_25_1308,P27,
stim_fb/ques.jpg,stim_fb/negf.jpg,stim_fb/posf.jpg,stim_01/b.jpg,stim_01/a.jpg,1,1,f,3,40,220,6,f,1,0.649819134371,01,01,60.0174425869,PLT_learning_01,N,2014_Mrz_25_1308,P27,
stim_fb/ques.jpg,stim_fb/negf.jpg,stim_fb/posf.jpg,stim_01/c.jpg,stim_01/d.jpg,2,2,j,3,41,221,30,j,1,0.866425984669,01,01,60.0174425869,PLT_learning_01,N,2014_Mrz_25_1308,P27,
stim_fb/ques.jpg,stim_fb/posf.jpg,stim_fb/negf.jpg,stim_01/a.jpg,stim_01/b.jpg,2,1,j,3,42,222,18,j,1,0.799795987263,01,01,60.0174425869,PLT_learning_01,N,2014_Mrz_25_1308,P27,
stim_fb/ques.jpg,stim_fb/posf.jpg,stim_fb/negf.jpg,stim_01/e.jpg,stim_01/f.jpg,2,3,j,3,43,223,56,j,1,0.86655566441,01,01,60.0174425869,PLT_learning_01,N,2014_Mrz_25_1308,P27,
stim_fb/ques.jpg,stim_fb/posf.jpg,stim_fb/negf.jpg,stim_01/f.jpg,stim_01/e.jpg,1,3,f,3,44,224,47,f,1,0.98306477145,01,01,60.0174425869,PLT_learning_01,N,2014_Mrz_25_1308,P27,
stim_fb/ques.jpg,stim_fb/posf.jpg,stim_fb/negf.jpg,stim_01/d.jpg,stim_01/c.jpg,1,2,f,3,45,225,28,f,1,1.04968701255,01,01,60.0174425869,PLT_learning_01,N,2014_Mrz_25_1308,P27,
stim_fb/ques.jpg,stim_fb/negf.jpg,stim_fb/posf.jpg,stim_01/a.jpg,stim_01/b.jpg,2,1,j,3,46,226,14,j,1,0.8664268809,01,01,60.0174425869,PLT_learning_01,N,2014_Mrz_25_1308,P27,
stim_fb/ques.jpg,stim_fb/posf.jpg,stim_fb/negf.jpg,stim_01/c.jpg,stim_01/d.jpg,2,2,j,3,47,227,39,j,1,0.566575158927,01,01,60.0174425869,PLT_learning_01,N,2014_Mrz_25_1308,P27,
stim_fb/ques.jpg,stim_fb/negf.jpg,stim_fb/posf.jpg,stim_01/b.jpg,stim_01/a.jpg,1,1,f,3,48,228,3,f,1,0.633175183739,01,01,60.0174425869,PLT_learning_01,N,2014_Mrz_25_1308,P27,
stim_fb/ques.jpg,stim_fb/negf.jpg,stim_fb/posf.jpg,stim_01/b.jpg,stim_01/a.jpg,1,1,f,3,49,229,2,f,1,0.716450280636,01,01,60.0174425869,PLT_learning_01,N,2014_Mrz_25_1308,P27,
stim_fb/ques.jpg,stim_fb/negf.jpg,stim_fb/posf.jpg,stim_01/a.jpg,stim_01/b.jpg,2,1,j,3,50,230,17,f,0,0.683194797051,01,01,60.0174425869,PLT_learning_01,N,2014_Mrz_25_1308,P27,
stim_fb/ques.jpg,stim_fb/negf.jpg,stim_fb/posf.jpg,stim_01/a.jpg,stim_01/b.jpg,2,1,j,3,51,231,13,j,1,0.98306425717,01,01,60.0174425869,PLT_learning_01,N,2014_Mrz_25_1308,P27,
stim_fb/ques.jpg,stim_fb/posf.jpg,stim_fb/negf.jpg,stim_01/e.jpg,stim_01/f.jpg,2,3,j,3,52,232,58,j,1,0.733162498167,01,01,60.0174425869,PLT_learning_01,N,2014_Mrz_25_1308,P27,
stim_fb/ques.jpg,stim_fb/negf.jpg,stim_fb/posf.jpg,stim_01/a.jpg,stim_01/b.jpg,2,1,j,3,53,233,10,j,1,0.69980116916,01,01,60.0174425869,PLT_learning_01,N,2014_Mrz_25_1308,P27,
stim_fb/ques.jpg,stim_fb/negf.jpg,stim_fb/posf.jpg,stim_01/d.jpg,stim_01/c.jpg,1,2,f,3,54,234,26,f,1,0.783119531734,01,01,60.0174425869,PLT_learning_01,N,2014_Mrz_25_1308,P27,
stim_fb/ques.jpg,stim_fb/posf.jpg,stim_fb/negf.jpg,stim_01/f.jpg,stim_01/e.jpg,1,3,f,3,55,235,46,f,1,0.599857595591,01,01,60.0174425869,PLT_learning_01,N,2014_Mrz_25_1308,P27,
stim_fb/ques.jpg,stim_fb/posf.jpg,stim_fb/negf.jpg,stim_01/f.jpg,stim_01/e.jpg,1,3,f,3,56,236,48,j,0,0.599899402638,01,01,60.0174425869,PLT_learning_01,N,2014_Mrz_25_1308,P27,
stim_fb/ques.jpg,stim_fb/negf.jpg,stim_fb/posf.jpg,stim_01/d.jpg,stim_01/c.jpg,1,2,f,3,57,237,21,f,1,1.0663598982,01,01,60.0174425869,PLT_learning_01,N,2014_Mrz_25_1308,P27,
stim_fb/ques.jpg,stim_fb/negf.jpg,stim_fb/posf.jpg,stim_01/c.jpg,stim_01/d.jpg,2,2,j,3,58,238,33,j,1,0.899725660237,01,01,60.0174425869,PLT_learning_01,N,2014_Mrz_25_1308,P27,
stim_fb/ques.jpg,stim_fb/posf.jpg,stim_fb/negf.jpg,stim_01/e.jpg,stim_01/f.jpg,2,3,j,3,59,239,57,j,1,1.13300233456,01,01,60.0174425869,PLT_learning_01,N,2014_Mrz_25_1308,P27,
stim_fb/ques.jpg,stim_fb/negf.jpg,stim_fb/posf.jpg,stim_01/b.jpg,stim_01/a.jpg,1,1,f,4,0,240,1,f,1,0.683091853851,01,01,60.0174425869,PLT_learning_01,N,2014_Mrz_25_1308,P27,
stim_fb/ques.jpg,stim_fb/posf.jpg,stim_fb/negf.jpg,stim_01/d.jpg,stim_01/c.jpg,1,2,f,4,1,241,27,f,1,0.699791400849,01,01,60.0174425869,PLT_learning_01,N,2014_Mrz_25_1308,P27,
stim_fb/ques.jpg,stim_fb/negf.jpg,stim_fb/posf.jpg,stim_01/e.jpg,stim_01/f.jpg,2,3,j,4,2,242,52,j,1,1.03301968173,01,01,60.0174425869,PLT_learning_01,N,2014_Mrz_25_1308,P27,
stim_fb/ques.jpg,stim_fb/negf.jpg,stim_fb/posf.jpg,stim_01/d.jpg,stim_01/c.jpg,1,2,f,4,3,243,25,f,1,0.849752948651,01,01,60.0174425869,PLT_learning_01,N,2014_Mrz_25_1308,P27,
stim_fb/ques.jpg,stim_fb/negf.jpg,stim_fb/posf.jpg,stim_01/a.jpg,stim_01/b.jpg,2,1,j,4,4,244,11,j,1,0.916457799348,01,01,60.0174425869,PLT_learning_01,N,2014_Mrz_25_1308,P27,
stim_fb/ques.jpg,stim_fb/posf.jpg,stim_fb/negf.jpg,stim_01/c.jpg,stim_01/d.jpg,2,2,j,4,5,245,37,j,1,0.982929055687,01,01,60.0174425869,PLT_learning_01,N,2014_Mrz_25_1308,P27,
stim_fb/ques.jpg,stim_fb/negf.jpg,stim_fb/posf.jpg,stim_01/b.jpg,stim_01/a.jpg,1,1,f,4,6,246,6,f,1,1.03305128739,01,01,60.0174425869,PLT_learning_01,N,2014_Mrz_25_1308,P27,
stim_fb/ques.jpg,stim_fb/negf.jpg,stim_fb/posf.jpg,stim_01/f.jpg,stim_01/e.jpg,1,3,f,4,7,247,43,f,1,0.683136355605,01,01,60.0174425869,PLT_learning_01,N,2014_Mrz_25_1308,P27,
stim_fb/ques.jpg,stim_fb/negf.jpg,stim_fb/posf.jpg,stim_01/c.jpg,stim_01/d.jpg,2,2,j,4,8,248,32,f,0,0.566514543069,01,01,60.0174425869,PLT_learning_01,N,2014_Mrz_25_1308,P27,
stim_fb/ques.jpg,stim_fb/negf.jpg,stim_fb/posf.jpg,stim_01/f.jpg,stim_01/e.jpg,1,3,f,4,9,249,42,f,1,0.999709498013,01,01,60.0174425869,PLT_learning_01,N,2014_Mrz_25_1308,P27,
stim_fb/ques.jpg,stim_fb/negf.jpg,stim_fb/posf.jpg,stim_01/f.jpg,stim_01/e.jpg,1,3,f,4,10,250,41,f,1,0.683163035003,01,01,60.0174425869,PLT_learning_01,N,2014_Mrz_25_1308,P27,
stim_fb/ques.jpg,stim_fb/negf.jpg,stim_fb/posf.jpg,stim_01/a.jpg,stim_01/b.jpg,2,1,j,4,11,251,17,j,1,0.849782918237,01,01,60.0174425869,PLT_learning_01,N,2014_Mrz_25_1308,P27,
stim_fb/ques.jpg,stim_fb/negf.jpg,stim_fb/posf.jpg,stim_01/d.jpg,stim_01/c.jpg,1,2,f,4,12,252,21,f,1,0.483230318455,01,01,60.0174425869,PLT_learning_01,N,2014_Mrz_25_1308,P27,
stim_fb/ques.jpg,stim_fb/negf.jpg,stim_fb/posf.jpg,stim_01/b.jpg,stim_01/a.jpg,1,1,f,4,13,253,2,j,0,0.583257172288,01,01,60.0174425869,PLT_learning_01,N,2014_Mrz_25_1308,P27,
stim_fb/ques.jpg,stim_fb/negf.jpg,stim_fb/posf.jpg,stim_01/b.jpg,stim_01/a.jpg,1,1,f,4,14,254,7,f,1,0.533215908091,01,01,60.0174425869,PLT_learning_01,N,2014_Mrz_25_1308,P27,
stim_fb/ques.jpg,stim_fb/posf.jpg,stim_fb/negf.jpg,stim_01/c.jpg,stim_01/d.jpg,2,2,j,4,15,255,38,j,1,0.699800351124,01,01,60.0174425869,PLT_learning_01,N,2014_Mrz_25_1308,P27,
stim_fb/ques.jpg,stim_fb/negf.jpg,stim_fb/posf.jpg,stim_01/a.jpg,stim_01/b.jpg,2,1,j,4,16,256,13,j,1,0.649824818517,01,01,60.0174425869,PLT_learning_01,N,2014_Mrz_25_1308,P27,
stim_fb/ques.jpg,stim_fb/posf.jpg,stim_fb/negf.jpg,stim_01/f.jpg,stim_01/e.jpg,1,3,f,4,17,257,48,f,1,0.649814872765,01,01,60.0174425869,PLT_learning_01,N,2014_Mrz_25_1308,P27,
stim_fb/ques.jpg,stim_fb/negf.jpg,stim_fb/posf.jpg,stim_01/b.jpg,stim_01/a.jpg,1,1,f,4,18,258,3,f,1,0.583175467946,01,01,60.0174425869,PLT_learning_01,N,2014_Mrz_25_1308,P27,
stim_fb/ques.jpg,stim_fb/negf.jpg,stim_fb/posf.jpg,stim_01/c.jpg,stim_01/d.jpg,2,2,j,4,19,259,33,f,0,0.399904410101,01,01,60.0174425869,PLT_learning_01,N,2014_Mrz_25_1308,P27,
stim_fb/ques.jpg,stim_fb/negf.jpg,stim_fb/posf.jpg,stim_01/d.jpg,stim_01/c.jpg,1,2,f,4,20,260,23,f,1,0.583153853152,01,01,60.0174425869,PLT_learning_01,N,2014_Mrz_25_1308,P27,
stim_fb/ques.jpg,stim_fb/negf.jpg,stim_fb/posf.jpg,stim_01/d.jpg,stim_01/c.jpg,1,2,f,4,21,261,20,f,1,0.416612191592,01,01,60.0174425869,PLT_learning_01,N,2014_Mrz_25_1308,P27,
stim_fb/ques.jpg,stim_fb/negf.jpg,stim_fb/posf.jpg,stim_01/d.jpg,stim_01/c.jpg,1,2,f,4,22,262,24,f,1,0.633108549904,01,01,60.0174425869,PLT_learning_01,N,2014_Mrz_25_1308,P27,
stim_fb/ques.jpg,stim_fb/negf.jpg,stim_fb/posf.jpg,stim_01/c.jpg,stim_01/d.jpg,2,2,j,4,23,263,31,f,0,0.566523914392,01,01,60.0174425869,PLT_learning_01,N,2014_Mrz_25_1308,P27,
stim_fb/ques.jpg,stim_fb/posf.jpg,stim_fb/negf.jpg,stim_01/a.jpg,stim_01/b.jpg,2,1,j,4,24,264,18,j,1,0.766461854942,01,01,60.0174425869,PLT_learning_01,N,2014_Mrz_25_1308,P27,
stim_fb/ques.jpg,stim_fb/negf.jpg,stim_fb/posf.jpg,stim_01/e.jpg,stim_01/f.jpg,2,3,j,4,25,265,54,j,1,0.749810951004,01,01,60.0174425869,PLT_learning_01,N,2014_Mrz_25_1308,P27,
stim_fb/ques.jpg,stim_fb/negf.jpg,stim_fb/posf.jpg,stim_01/a.jpg,stim_01/b.jpg,2,1,j,4,26,266,16,j,1,0.616516625752,01,01,60.0174425869,PLT_learning_01,N,2014_Mrz_25_1308,P27,
stim_fb/ques.jpg,stim_fb/negf.jpg,stim_fb/posf.jpg,stim_01/c.jpg,stim_01/d.jpg,2,2,j,4,27,267,34,j,1,0.749798773698,01,01,60.0174425869,PLT_learning_01,N,2014_Mrz_25_1308,P27,
stim_fb/ques.jpg,stim_fb/negf.jpg,stim_fb/posf.jpg,stim_01/e.jpg,stim_01/f.jpg,2,3,j,4,28,268,53,j,1,0.683170674015,01,01,60.0174425869,PLT_learning_01,N,2014_Mrz_25_1308,P27,
stim_fb/ques.jpg,stim_fb/negf.jpg,stim_fb/posf.jpg,stim_01/a.jpg,stim_01/b.jpg,2,1,j,4,29,269,15,f,0,0.716490496724,01,01,60.0174425869,PLT_learning_01,N,2014_Mrz_25_1308,P27,
stim_fb/ques.jpg,stim_fb/negf.jpg,stim_fb/posf.jpg,stim_01/d.jpg,stim_01/c.jpg,1,2,f,4,30,270,26,f,1,0.883103829656,01,01,60.0174425869,PLT_learning_01,N,2014_Mrz_25_1308,P27,
stim_fb/ques.jpg,stim_fb/negf.jpg,stim_fb/posf.jpg,stim_01/b.jpg,stim_01/a.jpg,1,1,f,4,31,271,4,f,1,0.599835490577,01,01,60.0174425869,PLT_learning_01,N,2014_Mrz_25_1308,P27,
stim_fb/ques.jpg,stim_fb/negf.jpg,stim_fb/posf.jpg,stim_01/a.jpg,stim_01/b.jpg,2,1,j,4,32,272,14,j,1,0.916388786593,01,01,60.0174425869,PLT_learning_01,N,2014_Mrz_25_1308,P27,
stim_fb/ques.jpg,stim_fb/negf.jpg,stim_fb/posf.jpg,stim_01/c.jpg,stim_01/d.jpg,2,2,j,4,33,273,30,j,1,0.783118358815,01,01,60.0174425869,PLT_learning_01,N,2014_Mrz_25_1308,P27,
stim_fb/ques.jpg,stim_fb/negf.jpg,stim_fb/posf.jpg,stim_01/b.jpg,stim_01/a.jpg,1,1,f,4,34,274,0,f,1,0.783095125995,01,01,60.0174425869,PLT_learning_01,N,2014_Mrz_25_1308,P27,
stim_fb/ques.jpg,stim_fb/negf.jpg,stim_fb/posf.jpg,stim_01/d.jpg,stim_01/c.jpg,1,2,f,4,35,275,22,f,1,0.583188601632,01,01,60.0174425869,PLT_learning_01,N,2014_Mrz_25_1308,P27,
stim_fb/ques.jpg,stim_fb/negf.jpg,stim_fb/posf.jpg,stim_01/f.jpg,stim_01/e.jpg,1,3,f,4,36,276,44,f,1,0.73309237565,01,01,60.0174425869,PLT_learning_01,N,2014_Mrz_25_1308,P27,
stim_fb/ques.jpg,stim_fb/posf.jpg,stim_fb/negf.jpg,stim_01/e.jpg,stim_01/f.jpg,2,3,j,4,37,277,56,j,1,0.683142451777,01,01,60.0174425869,PLT_learning_01,N,2014_Mrz_25_1308,P27,
stim_fb/ques.jpg,stim_fb/posf.jpg,stim_fb/negf.jpg,stim_01/f.jpg,stim_01/e.jpg,1,3,f,4,38,278,49,f,1,0.666460805329,01,01,60.0174425869,PLT_learning_01,N,2014_Mrz_25_1308,P27,
stim_fb/ques.jpg,stim_fb/posf.jpg,stim_fb/negf.jpg,stim_01/e.jpg,stim_01/f.jpg,2,3,j,4,39,279,58,f,0,0.616502902599,01,01,60.0174425869,PLT_learning_01,N,2014_Mrz_25_1308,P27,
stim_fb/ques.jpg,stim_fb/negf.jpg,stim_fb/posf.jpg,stim_01/a.jpg,stim_01/b.jpg,2,1,j,4,40,280,12,j,1,0.766466038353,01,01,60.0174425869,PLT_learning_01,N,2014_Mrz_25_1308,P27,
stim_fb/ques.jpg,stim_fb/negf.jpg,stim_fb/posf.jpg,stim_01/e.jpg,stim_01/f.jpg,2,3,j,4,41,281,55,f,0,0.466544329199,01,01,60.0174425869,PLT_learning_01,N,2014_Mrz_25_1308,P27,
stim_fb/ques.jpg,stim_fb/negf.jpg,stim_fb/posf.jpg,stim_01/f.jpg,stim_01/e.jpg,1,3,f,4,42,282,40,f,1,0.566535357872,01,01,60.0174425869,PLT_learning_01,N,2014_Mrz_25_1308,P27,
stim_fb/ques.jpg,stim_fb/posf.jpg,stim_fb/negf.jpg,stim_01/d.jpg,stim_01/c.jpg,1,2,f,4,43,283,29,f,1,0.766459388804,01,01,60.0174425869,PLT_learning_01,N,2014_Mrz_25_1308,P27,
stim_fb/ques.jpg,stim_fb/negf.jpg,stim_fb/posf.jpg,stim_01/b.jpg,stim_01/a.jpg,1,1,f,4,44,284,5,f,1,0.616500433454,01,01,60.0174425869,PLT_learning_01,N,2014_Mrz_25_1308,P27,
stim_fb/ques.jpg,stim_fb/posf.jpg,stim_fb/negf.jpg,stim_01/f.jpg,stim_01/e.jpg,1,3,f,4,45,285,47,f,1,0.699688653136,01,01,60.0174425869,PLT_learning_01,N,2014_Mrz_25_1308,P27,
stim_fb/ques.jpg,stim_fb/posf.jpg,stim_fb/negf.jpg,stim_01/c.jpg,stim_01/d.jpg,2,2,j,4,46,286,39,f,0,0.999706565715,01,01,60.0174425869,PLT_learning_01,N,2014_Mrz_25_1308,P27,
stim_fb/ques.jpg,stim_fb/posf.jpg,stim_fb/negf.jpg,stim_01/e.jpg,stim_01/f.jpg,2,3,j,4,47,287,57,f,0,0.783201133822,01,01,60.0174425869,PLT_learning_01,N,2014_Mrz_25_1308,P27,
stim_fb/ques.jpg,stim_fb/negf.jpg,stim_fb/posf.jpg,stim_01/c.jpg,stim_01/d.jpg,2,2,j,4,48,288,36,f,0,0.483262324109,01,01,60.0174425869,PLT_learning_01,N,2014_Mrz_25_1308,P27,
stim_fb/ques.jpg,stim_fb/negf.jpg,stim_fb/posf.jpg,stim_01/e.jpg,stim_01/f.jpg,2,3,j,4,49,289,50,j,1,0.966373224362,01,01,60.0174425869,PLT_learning_01,N,2014_Mrz_25_1308,P27,
stim_fb/ques.jpg,stim_fb/posf.jpg,stim_fb/negf.jpg,stim_01/a.jpg,stim_01/b.jpg,2,1,j,4,50,290,19,j,1,0.733119593388,01,01,60.0174425869,PLT_learning_01,N,2014_Mrz_25_1308,P27,
stim_fb/ques.jpg,stim_fb/posf.jpg,stim_fb/negf.jpg,stim_01/d.jpg,stim_01/c.jpg,1,2,f,4,51,291,28,f,1,0.716525287309,01,01,60.0174425869,PLT_learning_01,N,2014_Mrz_25_1308,P27,
stim_fb/ques.jpg,stim_fb/posf.jpg,stim_fb/negf.jpg,stim_01/f.jpg,stim_01/e.jpg,1,3,f,4,52,292,46,f,1,0.983034874043,01,01,60.0174425869,PLT_learning_01,N,2014_Mrz_25_1308,P27,
stim_fb/ques.jpg,stim_fb/posf.jpg,stim_fb/negf.jpg,stim_01/b.jpg,stim_01/a.jpg,1,1,f,4,53,293,9,f,1,0.783127312098,01,01,60.0174425869,PLT_learning_01,N,2014_Mrz_25_1308,P27,
stim_fb/ques.jpg,stim_fb/posf.jpg,stim_fb/negf.jpg,stim_01/e.jpg,stim_01/f.jpg,2,3,j,4,54,294,59,j,1,0.633195039154,01,01,60.0174425869,PLT_learning_01,N,2014_Mrz_25_1308,P27,
stim_fb/ques.jpg,stim_fb/negf.jpg,stim_fb/posf.jpg,stim_01/a.jpg,stim_01/b.jpg,2,1,j,4,55,295,10,j,1,0.899759238805,01,01,60.0174425869,PLT_learning_01,N,2014_Mrz_25_1308,P27,
stim_fb/ques.jpg,stim_fb/negf.jpg,stim_fb/posf.jpg,stim_01/f.jpg,stim_01/e.jpg,1,3,f,4,56,296,45,f,1,0.716418632872,01,01,60.0174425869,PLT_learning_01,N,2014_Mrz_25_1308,P27,
stim_fb/ques.jpg,stim_fb/negf.jpg,stim_fb/posf.jpg,stim_01/c.jpg,stim_01/d.jpg,2,2,j,4,57,297,35,j,1,0.43327329391,01,01,60.0174425869,PLT_learning_01,N,2014_Mrz_25_1308,P27,
stim_fb/ques.jpg,stim_fb/negf.jpg,stim_fb/posf.jpg,stim_01/e.jpg,stim_01/f.jpg,2,3,j,4,58,298,51,j,1,0.74980076766,01,01,60.0174425869,PLT_learning_01,N,2014_Mrz_25_1308,P27,
stim_fb/ques.jpg,stim_fb/posf.jpg,stim_fb/negf.jpg,stim_01/b.jpg,stim_01/a.jpg,1,1,f,4,59,299,8,f,1,0.749759676395,01,01,60.0174425869,PLT_learning_01,N,2014_Mrz_25_1308,P27,
stim_fb/ques.jpg,stim_fb/negf.jpg,stim_fb/posf.jpg,stim_01/f.jpg,stim_01/e.jpg,1,3,f,5,0,300,44,f,1,0.816451859565,01,01,60.0174425869,PLT_learning_01,N,2014_Mrz_25_1308,P27,
stim_fb/ques.jpg,stim_fb/negf.jpg,stim_fb/posf.jpg,stim_01/a.jpg,stim_01/b.jpg,2,1,j,5,1,301,11,j,1,0.69981012545,01,01,60.0174425869,PLT_learning_01,N,2014_Mrz_25_1308,P27,
stim_fb/ques.jpg,stim_fb/posf.jpg,stim_fb/negf.jpg,stim_01/e.jpg,stim_01/f.jpg,2,3,j,5,2,302,59,j,1,0.533172765721,01,01,60.0174425869,PLT_learning_01,N,2014_Mrz_25_1308,P27,
stim_fb/ques.jpg,stim_fb/posf.jpg,stim_fb/negf.jpg,stim_01/c.jpg,stim_01/d.jpg,2,2,j,5,3,303,37,f,0,0.649851849791,01,01,60.0174425869,PLT_learning_01,N,2014_Mrz_25_1308,P27,
stim_fb/ques.jpg,stim_fb/posf.jpg,stim_fb/negf.jpg,stim_01/a.jpg,stim_01/b.jpg,2,1,j,5,4,304,18,j,1,0.633472260087,01,01,60.0174425869,PLT_learning_01,N,2014_Mrz_25_1308,P27,
stim_fb/ques.jpg,stim_fb/posf.jpg,stim_fb/negf.jpg,stim_01/f.jpg,stim_01/e.jpg,1,3,f,5,5,305,47,f,1,0.683135715011,01,01,60.0174425869,PLT_learning_01,N,2014_Mrz_25_1308,P27,
stim_fb/ques.jpg,stim_fb/posf.jpg,stim_fb/negf.jpg,stim_01/e.jpg,stim_01/f.jpg,2,3,j,5,6,306,58,f,0,0.633184780623,01,01,60.0174425869,PLT_learning_01,N,2014_Mrz_25_1308,P27,
stim_fb/ques.jpg,stim_fb/negf.jpg,stim_fb/posf.jpg,stim_01/c.jpg,stim_01/d.jpg,2,2,j,5,7,307,35,f,0,0.533267191724,01,01,60.0174425869,PLT_learning_01,N,2014_Mrz_25_1308,P27,
stim_fb/ques.jpg,stim_fb/negf.jpg,stim_fb/posf.jpg,stim_01/d.jpg,stim_01/c.jpg,1,2,f,5,8,308,24,f,1,0.616507858934,01,01,60.0174425869,PLT_learning_01,N,2014_Mrz_25_1308,P27,
stim_fb/ques.jpg,stim_fb/negf.jpg,stim_fb/posf.jpg,stim_01/d.jpg,stim_01/c.jpg,1,2,f,5,9,309,22,f,1,0.74973363759,01,01,60.0174425869,PLT_learning_01,N,2014_Mrz_25_1308,P27,
stim_fb/ques.jpg,stim_fb/posf.jpg,stim_fb/negf.jpg,stim_01/f.jpg,stim_01/e.jpg,1,3,f,5,10,310,49,f,1,0.649834021421,01,01,60.0174425869,PLT_learning_01,N,2014_Mrz_25_1308,P27,
stim_fb/ques.jpg,stim_fb/posf.jpg,stim_fb/negf.jpg,stim_01/c.jpg,stim_01/d.jpg,2,2,j,5,11,311,38,f,0,0.699814122397,01,01,60.0174425869,PLT_learning_01,N,2014_Mrz_25_1308,P27,
stim_fb/ques.jpg,stim_fb/negf.jpg,stim_fb/posf.jpg,stim_01/e.jpg,stim_01/f.jpg,2,3,j,5,12,312,51,f,0,0.816461796296,01,01,60.0174425869,PLT_learning_01,N,2014_Mrz_25_1308,P27,
stim_fb/ques.jpg,stim_fb/negf.jpg,stim_fb/posf.jpg,stim_01/a.jpg,stim_01/b.jpg,2,1,j,5,13,313,15,j,1,0.683189774551,01,01,60.0174425869,PLT_learning_01,N,2014_Mrz_25_1308,P27,
stim_fb/ques.jpg,stim_fb/negf.jpg,stim_fb/posf.jpg,stim_01/a.jpg,stim_01/b.jpg,2,1,j,5,14,314,14,j,1,0.449923409887,01,01,60.0174425869,PLT_learning_01,N,2014_Mrz_25_1308,P27,
stim_fb/ques.jpg,stim_fb/posf.jpg,stim_fb/negf.jpg,stim_01/d.jpg,stim_01/c.jpg,1,2,f,5,15,315,27,j,0,0.799789196363,01,01,60.0174425869,PLT_learning_01,N,2014_Mrz_25_1308,P27,
stim_fb/ques.jpg,stim_fb/negf.jpg,stim_fb/posf.jpg,stim_01/f.jpg,stim_01/e.jpg,1,3,f,5,16,316,42,j,0,0.782999918046,01,01,60.0174425869,PLT_learning_01,N,2014_Mrz_25_1308,P27,
stim_fb/ques.jpg,stim_fb/negf.jpg,stim_fb/posf.jpg,stim_01/e.jpg,stim_01/f.jpg,2,3,j,5,17,317,52,j,1,0.749795501554,01,01,60.0174425869,PLT_learning_01,N,2014_Mrz_25_1308,P27,
stim_fb/ques.jpg,stim_fb/posf.jpg,stim_fb/negf.jpg,stim_01/d.jpg,stim_01/c.jpg,1,2,f,5,18,318,29,f,1,0.533176212298,01,01,60.0174425869,PLT_learning_01,N,2014_Mrz_25_1308,P27,
stim_fb/ques.jpg,stim_fb/negf.jpg,stim_fb/posf.jpg,stim_01/f.jpg,stim_01/e.jpg,1,3,f,5,19,319,41,f,1,0.716491868137,01,01,60.0174425869,PLT_learning_01,N,2014_Mrz_25_1308,P27,
stim_fb/ques.jpg,stim_fb/posf.jpg,stim_fb/negf.jpg,stim_01/e.jpg,stim_01/f.jpg,2,3,j,5,20,320,56,j,1,0.599731263181,01,01,60.0174425869,PLT_learning_01,N,2014_Mrz_25_1308,P27,
stim_fb/ques.jpg,stim_fb/negf.jpg,stim_fb/posf.jpg,stim_01/a.jpg,stim_01/b.jpg,2,1,j,5,21,321,17,j,1,0.633150901306,01,01,60.0174425869,PLT_learning_01,N,2014_Mrz_25_1308,P27,
stim_fb/ques.jpg,stim_fb/negf.jpg,stim_fb/posf.jpg,stim_01/b.jpg,stim_01/a.jpg,1,1,f,5,22,322,7,f,1,0.599849105462,01,01,60.0174425869,PLT_learning_01,N,2014_Mrz_25_1308,P27,
stim_fb/ques.jpg,stim_fb/negf.jpg,stim_fb/posf.jpg,stim_01/b.jpg,stim_01/a.jpg,1,1,f,5,23,323,1,f,1,0.533201481186,01,01,60.0174425869,PLT_learning_01,N,2014_Mrz_25_1308,P27,
stim_fb/ques.jpg,stim_fb/negf.jpg,stim_fb/posf.jpg,stim_01/e.jpg,stim_01/f.jpg,2,3,j,5,24,324,54,j,1,0.833137331534,01,01,60.0174425869,PLT_learning_01,N,2014_Mrz_25_1308,P27,
stim_fb/ques.jpg,stim_fb/posf.jpg,stim_fb/negf.jpg,stim_01/d.jpg,stim_01/c.jpg,1,2,f,5,25,325,28,f,1,0.683146529926,01,01,60.0174425869,PLT_learning_01,N,2014_Mrz_25_1308,P27,
stim_fb/ques.jpg,stim_fb/negf.jpg,stim_fb/posf.jpg,stim_01/b.jpg,stim_01/a.jpg,1,1,f,5,26,326,2,f,1,0.616519888873,01,01,60.0174425869,PLT_learning_01,N,2014_Mrz_25_1308,P27,
stim_fb/ques.jpg,stim_fb/negf.jpg,stim_fb/posf.jpg,stim_01/d.jpg,stim_01/c.jpg,1,2,f,5,27,327,25,f,1,0.583124397845,01,01,60.0174425869,PLT_learning_01,N,2014_Mrz_25_1308,P27,
stim_fb/ques.jpg,stim_fb/negf.jpg,stim_fb/posf.jpg,stim_01/b.jpg,stim_01/a.jpg,1,1,f,5,28,328,5,f,1,0.766424920019,01,01,60.0174425869,PLT_learning_01,N,2014_Mrz_25_1308,P27,
stim_fb/ques.jpg,stim_fb/negf.jpg,stim_fb/posf.jpg,stim_01/d.jpg,stim_01/c.jpg,1,2,f,5,29,329,26,f,1,0.51654441792,01,01,60.0174425869,PLT_learning_01,N,2014_Mrz_25_1308,P27,
stim_fb/ques.jpg,stim_fb/negf.jpg,stim_fb/posf.jpg,stim_01/c.jpg,stim_01/d.jpg,2,2,j,5,30,330,31,j,1,0.616513128047,01,01,60.0174425869,PLT_learning_01,N,2014_Mrz_25_1308,P27,
stim_fb/ques.jpg,stim_fb/posf.jpg,stim_fb/negf.jpg,stim_01/b.jpg,stim_01/a.jpg,1,1,f,5,31,331,9,f,1,0.666512573166,01,01,60.0174425869,PLT_learning_01,N,2014_Mrz_25_1308,P27,
stim_fb/ques.jpg,stim_fb/posf.jpg,stim_fb/negf.jpg,stim_01/e.jpg,stim_01/f.jpg,2,3,j,5,32,332,57,j,1,0.66643472442,01,01,60.0174425869,PLT_learning_01,N,2014_Mrz_25_1308,P27,
stim_fb/ques.jpg,stim_fb/negf.jpg,stim_fb/posf.jpg,stim_01/c.jpg,stim_01/d.jpg,2,2,j,5,33,333,32,f,0,0.666472110465,01,01,60.0174425869,PLT_learning_01,N,2014_Mrz_25_1308,P27,
stim_fb/ques.jpg,stim_fb/posf.jpg,stim_fb/negf.jpg,stim_01/c.jpg,stim_01/d.jpg,2,2,j,5,34,334,39,j,1,0.416578793473,01,01,60.0174425869,PLT_learning_01,N,2014_Mrz_25_1308,P27,
stim_fb/ques.jpg,stim_fb/negf.jpg,stim_fb/posf.jpg,stim_01/a.jpg,stim_01/b.jpg,2,1,j,5,35,335,13,j,1,0.699827265106,01,01,60.0174425869,PLT_learning_01,N,2014_Mrz_25_1308,P27,
stim_fb/ques.jpg,stim_fb/negf.jpg,stim_fb/posf.jpg,stim_01/e.jpg,stim_01/f.jpg,2,3,j,5,36,336,53,f,0,0.899711389721,01,01,60.0174425869,PLT_learning_01,N,2014_Mrz_25_1308,P27,
stim_fb/ques.jpg,stim_fb/negf.jpg,stim_fb/posf.jpg,stim_01/e.jpg,stim_01/f.jpg,2,3,j,5,37,337,55,j,1,0.766430150036,01,01,60.0174425869,PLT_learning_01,N,2014_Mrz_25_1308,P27,
stim_fb/ques.jpg,stim_fb/negf.jpg,stim_fb/posf.jpg,stim_01/c.jpg,stim_01/d.jpg,2,2,j,5,38,338,33,j,1,0.533201682688,01,01,60.0174425869,PLT_learning_01,N,2014_Mrz_25_1308,P27,
stim_fb/ques.jpg,stim_fb/negf.jpg,stim_fb/posf.jpg,stim_01/a.jpg,stim_01/b.jpg,2,1,j,5,39,339,10,j,1,0.616492000466,01,01,60.0174425869,PLT_learning_01,N,2014_Mrz_25_1308,P27,
stim_fb/ques.jpg,stim_fb/posf.jpg,stim_fb/negf.jpg,stim_01/f.jpg,stim_01/e.jpg,1,3,f,5,40,340,48,f,1,0.683180183682,01,01,60.0174425869,PLT_learning_01,N,2014_Mrz_25_1308,P27,
stim_fb/ques.jpg,stim_fb/posf.jpg,stim_fb/negf.jpg,stim_01/b.jpg,stim_01/a.jpg,1,1,f,5,41,341,8,f,1,0.599851018222,01,01,60.0174425869,PLT_learning_01,N,2014_Mrz_25_1308,P27,
stim_fb/ques.jpg,stim_fb/negf.jpg,stim_fb/posf.jpg,stim_01/c.jpg,stim_01/d.jpg,2,2,j,5,42,342,30,j,1,0.566536521768,01,01,60.0174425869,PLT_learning_01,N,2014_Mrz_25_1308,P27,
stim_fb/ques.jpg,stim_fb/negf.jpg,stim_fb/posf.jpg,stim_01/b.jpg,stim_01/a.jpg,1,1,f,5,43,343,6,f,1,0.633179147604,01,01,60.0174425869,PLT_learning_01,N,2014_Mrz_25_1308,P27,
stim_fb/ques.jpg,stim_fb/posf.jpg,stim_fb/negf.jpg,stim_01/a.jpg,stim_01/b.jpg,2,1,j,5,44,344,19,j,1,0.799790988823,01,01,60.0174425869,PLT_learning_01,N,2014_Mrz_25_1308,P27,
stim_fb/ques.jpg,stim_fb/negf.jpg,stim_fb/posf.jpg,stim_01/f.jpg,stim_01/e.jpg,1,3,f,5,45,345,40,f,1,0.783112590459,01,01,60.0174425869,PLT_learning_01,N,2014_Mrz_25_1308,P27,
stim_fb/ques.jpg,stim_fb/negf.jpg,stim_fb/posf.jpg,stim_01/a.jpg,stim_01/b.jpg,2,1,j,5,46,346,12,f,0,0.583255912151,01,01,60.0174425869,PLT_learning_01,N,2014_Mrz_25_1308,P27,
stim_fb/ques.jpg,stim_fb/negf.jpg,stim_fb/posf.jpg,stim_01/f.jpg,stim_01/e.jpg,1,3,f,5,47,347,45,f,1,0.583159771882,01,01,60.0174425869,PLT_learning_01,N,2014_Mrz_25_1308,P27,
stim_fb/ques.jpg,stim_fb/negf.jpg,stim_fb/posf.jpg,stim_01/d.jpg,stim_01/c.jpg,1,2,f,5,48,348,21,j,0,0.716475997639,01,01,60.0174425869,PLT_learning_01,N,2014_Mrz_25_1308,P27,
stim_fb/ques.jpg,stim_fb/negf.jpg,stim_fb/posf.jpg,stim_01/b.jpg,stim_01/a.jpg,1,1,f,5,49,349,0,f,1,0.616538460092,01,01,60.0174425869,PLT_learning_01,N,2014_Mrz_25_1308,P27,
stim_fb/ques.jpg,stim_fb/negf.jpg,stim_fb/posf.jpg,stim_01/b.jpg,stim_01/a.jpg,1,1,f,5,50,350,4,f,1,0.616497098153,01,01,60.0174425869,PLT_learning_01,N,2014_Mrz_25_1308,P27,
stim_fb/ques.jpg,stim_fb/negf.jpg,stim_fb/posf.jpg,stim_01/f.jpg,stim_01/e.jpg,1,3,f,5,51,351,43,f,1,0.583180544581,01,01,60.0174425869,PLT_learning_01,N,2014_Mrz_25_1308,P27,
stim_fb/ques.jpg,stim_fb/negf.jpg,stim_fb/posf.jpg,stim_01/d.jpg,stim_01/c.jpg,1,2,f,5,52,352,23,f,1,0.566523135453,01,01,60.0174425869,PLT_learning_01,N,2014_Mrz_25_1308,P27,
stim_fb/ques.jpg,stim_fb/negf.jpg,stim_fb/posf.jpg,stim_01/c.jpg,stim_01/d.jpg,2,2,j,5,53,353,36,j,1,0.449883650936,01,01,60.0174425869,PLT_learning_01,N,2014_Mrz_25_1308,P27,
stim_fb/ques.jpg,stim_fb/negf.jpg,stim_fb/posf.jpg,stim_01/e.jpg,stim_01/f.jpg,2,3,j,5,54,354,50,j,1,0.666488444115,01,01,60.0174425869,PLT_learning_01,N,2014_Mrz_25_1308,P27,
stim_fb/ques.jpg,stim_fb/negf.jpg,stim_fb/posf.jpg,stim_01/c.jpg,stim_01/d.jpg,2,2,j,5,55,355,34,j,1,0.466584638519,01,01,60.0174425869,PLT_learning_01,N,2014_Mrz_25_1308,P27,
stim_fb/ques.jpg,stim_fb/negf.jpg,stim_fb/posf.jpg,stim_01/d.jpg,stim_01/c.jpg,1,2,f,5,56,356,20,f,1,0.61649970865,01,01,60.0174425869,PLT_learning_01,N,2014_Mrz_25_1308,P27,
stim_fb/ques.jpg,stim_fb/posf.jpg,stim_fb/negf.jpg,stim_01/f.jpg,stim_01/e.jpg,1,3,f,5,57,357,46,f,1,0.699792904591,01,01,60.0174425869,PLT_learning_01,N,2014_Mrz_25_1308,P27,
stim_fb/ques.jpg,stim_fb/negf.jpg,stim_fb/posf.jpg,stim_01/a.jpg,stim_01/b.jpg,2,1,j,5,58,358,16,j,1,0.83315596591,01,01,60.0174425869,PLT_learning_01,N,2014_Mrz_25_1308,P27,
stim_fb/ques.jpg,stim_fb/negf.jpg,stim_fb/posf.jpg,stim_01/b.jpg,stim_01/a.jpg,1,1,f,5,59,359,3,f,1,0.549868538325,01,01,60.0174425869,PLT_learning_01,N,2014_Mrz_25_1308,P27,
