Fb3,Fb2,Fb1,Symbol2,Symbol1,PosCond,Pair,Correct,trials.thisRepN,trials.thisTrialN,trials.thisN,trials.thisIndex,Response.keys,Response.corr,Response.rt,Version,Session Number,frameRate,expName,StimCondition,date,Participant,
stim_fb/ques.jpg,stim_fb/negf.jpg,stim_fb/posf.jpg,stim_01/f.jpg,stim_01/e.jpg,1,3,f,0,0,0,40,f,1,1.0497519748,01,01,60.0122026902,PLT_learning_01,N,2014_Mrz_12_1446,P28,
stim_fb/ques.jpg,stim_fb/negf.jpg,stim_fb/posf.jpg,stim_01/b.jpg,stim_01/a.jpg,1,1,f,0,1,1,0,j,0,0.749753319148,01,01,60.0122026902,PLT_learning_01,N,2014_Mrz_12_1446,P28,
stim_fb/ques.jpg,stim_fb/posf.jpg,stim_fb/negf.jpg,stim_01/d.jpg,stim_01/c.jpg,1,2,f,0,2,2,27,f,1,0.866434526056,01,01,60.0122026902,PLT_learning_01,N,2014_Mrz_12_1446,P28,
stim_fb/ques.jpg,stim_fb/negf.jpg,stim_fb/posf.jpg,stim_01/c.jpg,stim_01/d.jpg,2,2,j,0,3,3,36,f,0,1.09977810392,01,01,60.0122026902,PLT_learning_01,N,2014_Mrz_12_1446,P28,
stim_fb/ques.jpg,stim_fb/negf.jpg,stim_fb/posf.jpg,stim_01/c.jpg,stim_01/d.jpg,2,2,j,0,4,4,35,j,1,0.783131717806,01,01,60.0122026902,PLT_learning_01,N,2014_Mrz_12_1446,P28,
stim_fb/ques.jpg,stim_fb/negf.jpg,stim_fb/posf.jpg,stim_01/a.jpg,stim_01/b.jpg,2,1,j,0,5,5,16,f,0,1.19966299201,01,01,60.0122026902,PLT_learning_01,N,2014_Mrz_12_1446,P28,
stim_fb/ques.jpg,stim_fb/posf.jpg,stim_fb/negf.jpg,stim_01/d.jpg,stim_01/c.jpg,1,2,f,0,6,6,29,j,0,1.03303877114,01,01,60.0122026902,PLT_learning_01,N,2014_Mrz_12_1446,P28,
stim_fb/ques.jpg,stim_fb/posf.jpg,stim_fb/negf.jpg,stim_01/a.jpg,stim_01/b.jpg,2,1,j,0,7,7,19,j,1,1.06636434313,01,01,60.0122026902,PLT_learning_01,N,2014_Mrz_12_1446,P28,
stim_fb/ques.jpg,stim_fb/posf.jpg,stim_fb/negf.jpg,stim_01/d.jpg,stim_01/c.jpg,1,2,f,0,8,8,28,j,0,1.0663746438,01,01,60.0122026902,PLT_learning_01,N,2014_Mrz_12_1446,P28,
stim_fb/ques.jpg,stim_fb/negf.jpg,stim_fb/posf.jpg,stim_01/c.jpg,stim_01/d.jpg,2,2,j,0,9,9,34,f,0,0.966385479808,01,01,60.0122026902,PLT_learning_01,N,2014_Mrz_12_1446,P28,
stim_fb/ques.jpg,stim_fb/negf.jpg,stim_fb/posf.jpg,stim_01/a.jpg,stim_01/b.jpg,2,1,j,0,10,10,12,j,1,0.51645729581,01,01,60.0122026902,PLT_learning_01,N,2014_Mrz_12_1446,P28,
stim_fb/ques.jpg,stim_fb/negf.jpg,stim_fb/posf.jpg,stim_01/c.jpg,stim_01/d.jpg,2,2,j,0,11,11,33,j,1,0.29995107706,01,01,60.0122026902,PLT_learning_01,N,2014_Mrz_12_1446,P28,
stim_fb/ques.jpg,stim_fb/negf.jpg,stim_fb/posf.jpg,stim_01/f.jpg,stim_01/e.jpg,1,3,f,0,12,12,41,j,0,0.566567616785,01,01,60.0122026902,PLT_learning_01,N,2014_Mrz_12_1446,P28,
stim_fb/ques.jpg,stim_fb/negf.jpg,stim_fb/posf.jpg,stim_01/d.jpg,stim_01/c.jpg,1,2,f,0,13,13,23,j,0,0.249976150556,01,01,60.0122026902,PLT_learning_01,N,2014_Mrz_12_1446,P28,
stim_fb/ques.jpg,stim_fb/negf.jpg,stim_fb/posf.jpg,stim_01/b.jpg,stim_01/a.jpg,1,1,f,0,14,14,3,f,1,0.399894382749,01,01,60.0122026902,PLT_learning_01,N,2014_Mrz_12_1446,P28,
stim_fb/ques.jpg,stim_fb/posf.jpg,stim_fb/negf.jpg,stim_01/f.jpg,stim_01/e.jpg,1,3,f,0,15,15,47,f,1,0.266638283923,01,01,60.0122026902,PLT_learning_01,N,2014_Mrz_12_1446,P28,
stim_fb/ques.jpg,stim_fb/negf.jpg,stim_fb/posf.jpg,stim_01/d.jpg,stim_01/c.jpg,1,2,f,0,16,16,26,j,0,1.31633595236,01,01,60.0122026902,PLT_learning_01,N,2014_Mrz_12_1446,P28,
stim_fb/ques.jpg,stim_fb/negf.jpg,stim_fb/posf.jpg,stim_01/a.jpg,stim_01/b.jpg,2,1,j,0,17,17,11,None,0,,01,01,60.0122026902,PLT_learning_01,N,2014_Mrz_12_1446,P28,
stim_fb/ques.jpg,stim_fb/negf.jpg,stim_fb/posf.jpg,stim_01/a.jpg,stim_01/b.jpg,2,1,j,0,18,18,13,j,1,0.649762362689,01,01,60.0122026902,PLT_learning_01,N,2014_Mrz_12_1446,P28,
stim_fb/ques.jpg,stim_fb/negf.jpg,stim_fb/posf.jpg,stim_01/f.jpg,stim_01/e.jpg,1,3,f,0,19,19,43,j,0,0.6831325178,01,01,60.0122026902,PLT_learning_01,N,2014_Mrz_12_1446,P28,
stim_fb/ques.jpg,stim_fb/posf.jpg,stim_fb/negf.jpg,stim_01/c.jpg,stim_01/d.jpg,2,2,j,0,20,20,37,j,1,1.01636460177,01,01,60.0122026902,PLT_learning_01,N,2014_Mrz_12_1446,P28,
stim_fb/ques.jpg,stim_fb/posf.jpg,stim_fb/negf.jpg,stim_01/f.jpg,stim_01/e.jpg,1,3,f,0,21,21,48,f,1,0.416627547162,01,01,60.0122026902,PLT_learning_01,N,2014_Mrz_12_1446,P28,
stim_fb/ques.jpg,stim_fb/negf.jpg,stim_fb/posf.jpg,stim_01/c.jpg,stim_01/d.jpg,2,2,j,0,22,22,32,j,1,0.566522856219,01,01,60.0122026902,PLT_learning_01,N,2014_Mrz_12_1446,P28,
stim_fb/ques.jpg,stim_fb/negf.jpg,stim_fb/posf.jpg,stim_01/e.jpg,stim_01/f.jpg,2,3,j,0,23,23,50,j,1,0.249975780634,01,01,60.0122026902,PLT_learning_01,N,2014_Mrz_12_1446,P28,
stim_fb/ques.jpg,stim_fb/negf.jpg,stim_fb/posf.jpg,stim_01/f.jpg,stim_01/e.jpg,1,3,f,0,24,24,45,j,0,0.316605018008,01,01,60.0122026902,PLT_learning_01,N,2014_Mrz_12_1446,P28,
stim_fb/ques.jpg,stim_fb/negf.jpg,stim_fb/posf.jpg,stim_01/b.jpg,stim_01/a.jpg,1,1,f,0,25,25,6,f,1,0.366608049563,01,01,60.0122026902,PLT_learning_01,N,2014_Mrz_12_1446,P28,
stim_fb/ques.jpg,stim_fb/posf.jpg,stim_fb/negf.jpg,stim_01/e.jpg,stim_01/f.jpg,2,3,j,0,26,26,58,f,0,0.383263942376,01,01,60.0122026902,PLT_learning_01,N,2014_Mrz_12_1446,P28,
stim_fb/ques.jpg,stim_fb/negf.jpg,stim_fb/posf.jpg,stim_01/d.jpg,stim_01/c.jpg,1,2,f,0,27,27,25,f,1,0.266614413425,01,01,60.0122026902,PLT_learning_01,N,2014_Mrz_12_1446,P28,
stim_fb/ques.jpg,stim_fb/negf.jpg,stim_fb/posf.jpg,stim_01/e.jpg,stim_01/f.jpg,2,3,j,0,28,28,51,f,0,0.2832588567,01,01,60.0122026902,PLT_learning_01,N,2014_Mrz_12_1446,P28,
stim_fb/ques.jpg,stim_fb/negf.jpg,stim_fb/posf.jpg,stim_01/b.jpg,stim_01/a.jpg,1,1,f,0,29,29,5,j,0,0.616499872934,01,01,60.0122026902,PLT_learning_01,N,2014_Mrz_12_1446,P28,
stim_fb/ques.jpg,stim_fb/posf.jpg,stim_fb/negf.jpg,stim_01/a.jpg,stim_01/b.jpg,2,1,j,0,30,30,18,f,0,0.283304952594,01,01,60.0122026902,PLT_learning_01,N,2014_Mrz_12_1446,P28,
stim_fb/ques.jpg,stim_fb/negf.jpg,stim_fb/posf.jpg,stim_01/f.jpg,stim_01/e.jpg,1,3,f,0,31,31,42,f,1,0.250011888632,01,01,60.0122026902,PLT_learning_01,N,2014_Mrz_12_1446,P28,
stim_fb/ques.jpg,stim_fb/negf.jpg,stim_fb/posf.jpg,stim_01/e.jpg,stim_01/f.jpg,2,3,j,0,32,32,54,j,1,0.69982698476,01,01,60.0122026902,PLT_learning_01,N,2014_Mrz_12_1446,P28,
stim_fb/ques.jpg,stim_fb/negf.jpg,stim_fb/posf.jpg,stim_01/b.jpg,stim_01/a.jpg,1,1,f,0,33,33,4,j,0,0.499896981226,01,01,60.0122026902,PLT_learning_01,N,2014_Mrz_12_1446,P28,
stim_fb/ques.jpg,stim_fb/posf.jpg,stim_fb/negf.jpg,stim_01/f.jpg,stim_01/e.jpg,1,3,f,0,34,34,49,None,0,,01,01,60.0122026902,PLT_learning_01,N,2014_Mrz_12_1446,P28,
stim_fb/ques.jpg,stim_fb/negf.jpg,stim_fb/posf.jpg,stim_01/e.jpg,stim_01/f.jpg,2,3,j,0,35,35,52,j,1,0.283275656574,01,01,60.0122026902,PLT_learning_01,N,2014_Mrz_12_1446,P28,
stim_fb/ques.jpg,stim_fb/negf.jpg,stim_fb/posf.jpg,stim_01/e.jpg,stim_01/f.jpg,2,3,j,0,36,36,55,f,0,0.983070388945,01,01,60.0122026902,PLT_learning_01,N,2014_Mrz_12_1446,P28,
stim_fb/ques.jpg,stim_fb/negf.jpg,stim_fb/posf.jpg,stim_01/b.jpg,stim_01/a.jpg,1,1,f,0,37,37,7,j,0,0.266581511417,01,01,60.0122026902,PLT_learning_01,N,2014_Mrz_12_1446,P28,
stim_fb/ques.jpg,stim_fb/negf.jpg,stim_fb/posf.jpg,stim_01/b.jpg,stim_01/a.jpg,1,1,f,0,38,38,1,j,0,0.516524441169,01,01,60.0122026902,PLT_learning_01,N,2014_Mrz_12_1446,P28,
stim_fb/ques.jpg,stim_fb/posf.jpg,stim_fb/negf.jpg,stim_01/c.jpg,stim_01/d.jpg,2,2,j,0,39,39,38,f,0,0.44988250314,01,01,60.0122026902,PLT_learning_01,N,2014_Mrz_12_1446,P28,
stim_fb/ques.jpg,stim_fb/negf.jpg,stim_fb/posf.jpg,stim_01/c.jpg,stim_01/d.jpg,2,2,j,0,40,40,31,f,0,0.716533683206,01,01,60.0122026902,PLT_learning_01,N,2014_Mrz_12_1446,P28,
stim_fb/ques.jpg,stim_fb/negf.jpg,stim_fb/posf.jpg,stim_01/d.jpg,stim_01/c.jpg,1,2,f,0,41,41,20,j,0,0.333241178638,01,01,60.0122026902,PLT_learning_01,N,2014_Mrz_12_1446,P28,
stim_fb/ques.jpg,stim_fb/negf.jpg,stim_fb/posf.jpg,stim_01/a.jpg,stim_01/b.jpg,2,1,j,0,42,42,10,f,0,0.283288288058,01,01,60.0122026902,PLT_learning_01,N,2014_Mrz_12_1446,P28,
stim_fb/ques.jpg,stim_fb/negf.jpg,stim_fb/posf.jpg,stim_01/a.jpg,stim_01/b.jpg,2,1,j,0,43,43,14,j,1,0.249987338441,01,01,60.0122026902,PLT_learning_01,N,2014_Mrz_12_1446,P28,
stim_fb/ques.jpg,stim_fb/negf.jpg,stim_fb/posf.jpg,stim_01/a.jpg,stim_01/b.jpg,2,1,j,0,44,44,17,j,1,0.283297124082,01,01,60.0122026902,PLT_learning_01,N,2014_Mrz_12_1446,P28,
stim_fb/ques.jpg,stim_fb/posf.jpg,stim_fb/negf.jpg,stim_01/b.jpg,stim_01/a.jpg,1,1,f,0,45,45,8,j,0,0.583181831716,01,01,60.0122026902,PLT_learning_01,N,2014_Mrz_12_1446,P28,
stim_fb/ques.jpg,stim_fb/posf.jpg,stim_fb/negf.jpg,stim_01/c.jpg,stim_01/d.jpg,2,2,j,0,46,46,39,j,1,0.616522681784,01,01,60.0122026902,PLT_learning_01,N,2014_Mrz_12_1446,P28,
stim_fb/ques.jpg,stim_fb/negf.jpg,stim_fb/posf.jpg,stim_01/d.jpg,stim_01/c.jpg,1,2,f,0,47,47,22,f,1,0.249966499499,01,01,60.0122026902,PLT_learning_01,N,2014_Mrz_12_1446,P28,
stim_fb/ques.jpg,stim_fb/negf.jpg,stim_fb/posf.jpg,stim_01/d.jpg,stim_01/c.jpg,1,2,f,0,48,48,24,f,1,0.783117624679,01,01,60.0122026902,PLT_learning_01,N,2014_Mrz_12_1446,P28,
stim_fb/ques.jpg,stim_fb/negf.jpg,stim_fb/posf.jpg,stim_01/a.jpg,stim_01/b.jpg,2,1,j,0,49,49,15,j,1,0.883044410192,01,01,60.0122026902,PLT_learning_01,N,2014_Mrz_12_1446,P28,
stim_fb/ques.jpg,stim_fb/posf.jpg,stim_fb/negf.jpg,stim_01/e.jpg,stim_01/f.jpg,2,3,j,0,50,50,56,j,1,0.683114337487,01,01,60.0122026902,PLT_learning_01,N,2014_Mrz_12_1446,P28,
stim_fb/ques.jpg,stim_fb/negf.jpg,stim_fb/posf.jpg,stim_01/e.jpg,stim_01/f.jpg,2,3,j,0,51,51,53,f,0,0.799803601477,01,01,60.0122026902,PLT_learning_01,N,2014_Mrz_12_1446,P28,
stim_fb/ques.jpg,stim_fb/posf.jpg,stim_fb/negf.jpg,stim_01/e.jpg,stim_01/f.jpg,2,3,j,0,52,52,59,f,0,1.44956214465,01,01,60.0122026902,PLT_learning_01,N,2014_Mrz_12_1446,P28,
stim_fb/ques.jpg,stim_fb/posf.jpg,stim_fb/negf.jpg,stim_01/f.jpg,stim_01/e.jpg,1,3,f,0,53,53,46,f,1,1.03302795618,01,01,60.0122026902,PLT_learning_01,N,2014_Mrz_12_1446,P28,
stim_fb/ques.jpg,stim_fb/negf.jpg,stim_fb/posf.jpg,stim_01/d.jpg,stim_01/c.jpg,1,2,f,0,54,54,21,f,1,0.749836921527,01,01,60.0122026902,PLT_learning_01,N,2014_Mrz_12_1446,P28,
stim_fb/ques.jpg,stim_fb/negf.jpg,stim_fb/posf.jpg,stim_01/f.jpg,stim_01/e.jpg,1,3,f,0,55,55,44,j,0,0.933071035556,01,01,60.0122026902,PLT_learning_01,N,2014_Mrz_12_1446,P28,
stim_fb/ques.jpg,stim_fb/negf.jpg,stim_fb/posf.jpg,stim_01/b.jpg,stim_01/a.jpg,1,1,f,0,56,56,2,j,0,1.01638573545,01,01,60.0122026902,PLT_learning_01,N,2014_Mrz_12_1446,P28,
stim_fb/ques.jpg,stim_fb/posf.jpg,stim_fb/negf.jpg,stim_01/e.jpg,stim_01/f.jpg,2,3,j,0,57,57,57,j,1,0.966391753445,01,01,60.0122026902,PLT_learning_01,N,2014_Mrz_12_1446,P28,
stim_fb/ques.jpg,stim_fb/negf.jpg,stim_fb/posf.jpg,stim_01/c.jpg,stim_01/d.jpg,2,2,j,0,58,58,30,j,1,0.716447903399,01,01,60.0122026902,PLT_learning_01,N,2014_Mrz_12_1446,P28,
stim_fb/ques.jpg,stim_fb/posf.jpg,stim_fb/negf.jpg,stim_01/b.jpg,stim_01/a.jpg,1,1,f,0,59,59,9,f,1,0.916409972858,01,01,60.0122026902,PLT_learning_01,N,2014_Mrz_12_1446,P28,
stim_fb/ques.jpg,stim_fb/negf.jpg,stim_fb/posf.jpg,stim_01/a.jpg,stim_01/b.jpg,2,1,j,1,0,60,12,f,0,1.44958206931,01,01,60.0122026902,PLT_learning_01,N,2014_Mrz_12_1446,P28,
stim_fb/ques.jpg,stim_fb/negf.jpg,stim_fb/posf.jpg,stim_01/e.jpg,stim_01/f.jpg,2,3,j,1,1,61,53,f,0,0.916424682521,01,01,60.0122026902,PLT_learning_01,N,2014_Mrz_12_1446,P28,
stim_fb/ques.jpg,stim_fb/posf.jpg,stim_fb/negf.jpg,stim_01/e.jpg,stim_01/f.jpg,2,3,j,1,2,62,58,j,1,0.516558308584,01,01,60.0122026902,PLT_learning_01,N,2014_Mrz_12_1446,P28,
stim_fb/ques.jpg,stim_fb/negf.jpg,stim_fb/posf.jpg,stim_01/c.jpg,stim_01/d.jpg,2,2,j,1,3,63,36,j,1,0.616514465305,01,01,60.0122026902,PLT_learning_01,N,2014_Mrz_12_1446,P28,
stim_fb/ques.jpg,stim_fb/negf.jpg,stim_fb/posf.jpg,stim_01/b.jpg,stim_01/a.jpg,1,1,f,1,4,64,1,j,0,0.666477262577,01,01,60.0122026902,PLT_learning_01,N,2014_Mrz_12_1446,P28,
stim_fb/ques.jpg,stim_fb/negf.jpg,stim_fb/posf.jpg,stim_01/f.jpg,stim_01/e.jpg,1,3,f,1,5,65,45,j,0,0.783106887919,01,01,60.0122026902,PLT_learning_01,N,2014_Mrz_12_1446,P28,
stim_fb/ques.jpg,stim_fb/negf.jpg,stim_fb/posf.jpg,stim_01/b.jpg,stim_01/a.jpg,1,1,f,1,6,66,2,f,1,1.13301825099,01,01,60.0122026902,PLT_learning_01,N,2014_Mrz_12_1446,P28,
stim_fb/ques.jpg,stim_fb/negf.jpg,stim_fb/posf.jpg,stim_01/a.jpg,stim_01/b.jpg,2,1,j,1,7,67,10,f,0,0.933037342576,01,01,60.0122026902,PLT_learning_01,N,2014_Mrz_12_1446,P28,
stim_fb/ques.jpg,stim_fb/negf.jpg,stim_fb/posf.jpg,stim_01/b.jpg,stim_01/a.jpg,1,1,f,1,8,68,4,f,1,1.13301765551,01,01,60.0122026902,PLT_learning_01,N,2014_Mrz_12_1446,P28,
stim_fb/ques.jpg,stim_fb/negf.jpg,stim_fb/posf.jpg,stim_01/b.jpg,stim_01/a.jpg,1,1,f,1,9,69,0,j,0,0.916387708363,01,01,60.0122026902,PLT_learning_01,N,2014_Mrz_12_1446,P28,
stim_fb/ques.jpg,stim_fb/posf.jpg,stim_fb/negf.jpg,stim_01/c.jpg,stim_01/d.jpg,2,2,j,1,10,70,37,j,1,0.766440565108,01,01,60.0122026902,PLT_learning_01,N,2014_Mrz_12_1446,P28,
stim_fb/ques.jpg,stim_fb/posf.jpg,stim_fb/negf.jpg,stim_01/f.jpg,stim_01/e.jpg,1,3,f,1,11,71,49,f,1,0.749803162382,01,01,60.0122026902,PLT_learning_01,N,2014_Mrz_12_1446,P28,
stim_fb/ques.jpg,stim_fb/negf.jpg,stim_fb/posf.jpg,stim_01/c.jpg,stim_01/d.jpg,2,2,j,1,12,72,31,j,1,0.516569610755,01,01,60.0122026902,PLT_learning_01,N,2014_Mrz_12_1446,P28,
stim_fb/ques.jpg,stim_fb/negf.jpg,stim_fb/posf.jpg,stim_01/f.jpg,stim_01/e.jpg,1,3,f,1,13,73,40,j,0,0.633173338546,01,01,60.0122026902,PLT_learning_01,N,2014_Mrz_12_1446,P28,
stim_fb/ques.jpg,stim_fb/posf.jpg,stim_fb/negf.jpg,stim_01/c.jpg,stim_01/d.jpg,2,2,j,1,14,74,38,j,1,0.633161702543,01,01,60.0122026902,PLT_learning_01,N,2014_Mrz_12_1446,P28,
stim_fb/ques.jpg,stim_fb/negf.jpg,stim_fb/posf.jpg,stim_01/a.jpg,stim_01/b.jpg,2,1,j,1,15,75,11,f,0,0.983076924234,01,01,60.0122026902,PLT_learning_01,N,2014_Mrz_12_1446,P28,
stim_fb/ques.jpg,stim_fb/negf.jpg,stim_fb/posf.jpg,stim_01/a.jpg,stim_01/b.jpg,2,1,j,1,16,76,14,f,0,0.449916057774,01,01,60.0122026902,PLT_learning_01,N,2014_Mrz_12_1446,P28,
stim_fb/ques.jpg,stim_fb/posf.jpg,stim_fb/negf.jpg,stim_01/f.jpg,stim_01/e.jpg,1,3,f,1,17,77,48,f,1,1.31628318584,01,01,60.0122026902,PLT_learning_01,N,2014_Mrz_12_1446,P28,
stim_fb/ques.jpg,stim_fb/posf.jpg,stim_fb/negf.jpg,stim_01/c.jpg,stim_01/d.jpg,2,2,j,1,18,78,39,j,1,0.533177723476,01,01,60.0122026902,PLT_learning_01,N,2014_Mrz_12_1446,P28,
stim_fb/ques.jpg,stim_fb/negf.jpg,stim_fb/posf.jpg,stim_01/c.jpg,stim_01/d.jpg,2,2,j,1,19,79,32,j,1,0.899728994519,01,01,60.0122026902,PLT_learning_01,N,2014_Mrz_12_1446,P28,
stim_fb/ques.jpg,stim_fb/posf.jpg,stim_fb/negf.jpg,stim_01/e.jpg,stim_01/f.jpg,2,3,j,1,20,80,56,f,0,0.833132716296,01,01,60.0122026902,PLT_learning_01,N,2014_Mrz_12_1446,P28,
stim_fb/ques.jpg,stim_fb/negf.jpg,stim_fb/posf.jpg,stim_01/c.jpg,stim_01/d.jpg,2,2,j,1,21,81,33,f,0,1.64948062947,01,01,60.0122026902,PLT_learning_01,N,2014_Mrz_12_1446,P28,
stim_fb/ques.jpg,stim_fb/negf.jpg,stim_fb/posf.jpg,stim_01/b.jpg,stim_01/a.jpg,1,1,f,1,22,82,6,j,0,1.03303260878,01,01,60.0122026902,PLT_learning_01,N,2014_Mrz_12_1446,P28,
stim_fb/ques.jpg,stim_fb/posf.jpg,stim_fb/negf.jpg,stim_01/b.jpg,stim_01/a.jpg,1,1,f,1,23,83,9,f,1,0.799780497891,01,01,60.0122026902,PLT_learning_01,N,2014_Mrz_12_1446,P28,
stim_fb/ques.jpg,stim_fb/negf.jpg,stim_fb/posf.jpg,stim_01/a.jpg,stim_01/b.jpg,2,1,j,1,24,84,13,j,1,0.266621198337,01,01,60.0122026902,PLT_learning_01,N,2014_Mrz_12_1446,P28,
stim_fb/ques.jpg,stim_fb/negf.jpg,stim_fb/posf.jpg,stim_01/d.jpg,stim_01/c.jpg,1,2,f,1,25,85,23,j,0,0.249989479778,01,01,60.0122026902,PLT_learning_01,N,2014_Mrz_12_1446,P28,
stim_fb/ques.jpg,stim_fb/negf.jpg,stim_fb/posf.jpg,stim_01/d.jpg,stim_01/c.jpg,1,2,f,1,26,86,24,j,0,0.199985139961,01,01,60.0122026902,PLT_learning_01,N,2014_Mrz_12_1446,P28,
stim_fb/ques.jpg,stim_fb/posf.jpg,stim_fb/negf.jpg,stim_01/d.jpg,stim_01/c.jpg,1,2,f,1,27,87,27,f,1,0.0500212569832,01,01,60.0122026902,PLT_learning_01,N,2014_Mrz_12_1446,P28,
stim_fb/ques.jpg,stim_fb/negf.jpg,stim_fb/posf.jpg,stim_01/b.jpg,stim_01/a.jpg,1,1,f,1,28,88,5,j,0,0.166615499132,01,01,60.0122026902,PLT_learning_01,N,2014_Mrz_12_1446,P28,
stim_fb/ques.jpg,stim_fb/negf.jpg,stim_fb/posf.jpg,stim_01/e.jpg,stim_01/f.jpg,2,3,j,1,29,89,50,j,1,0.0167138863617,01,01,60.0122026902,PLT_learning_01,N,2014_Mrz_12_1446,P28,
stim_fb/ques.jpg,stim_fb/negf.jpg,stim_fb/posf.jpg,stim_01/d.jpg,stim_01/c.jpg,1,2,f,1,30,90,21,j,0,0.549858277757,01,01,60.0122026902,PLT_learning_01,N,2014_Mrz_12_1446,P28,
stim_fb/ques.jpg,stim_fb/negf.jpg,stim_fb/posf.jpg,stim_01/e.jpg,stim_01/f.jpg,2,3,j,1,31,91,51,j,1,0.249961843896,01,01,60.0122026902,PLT_learning_01,N,2014_Mrz_12_1446,P28,
stim_fb/ques.jpg,stim_fb/posf.jpg,stim_fb/negf.jpg,stim_01/a.jpg,stim_01/b.jpg,2,1,j,1,32,92,19,j,1,0.349956391305,01,01,60.0122026902,PLT_learning_01,N,2014_Mrz_12_1446,P28,
stim_fb/ques.jpg,stim_fb/negf.jpg,stim_fb/posf.jpg,stim_01/f.jpg,stim_01/e.jpg,1,3,f,1,33,93,44,j,0,0.366611057059,01,01,60.0122026902,PLT_learning_01,N,2014_Mrz_12_1446,P28,
stim_fb/ques.jpg,stim_fb/posf.jpg,stim_fb/negf.jpg,stim_01/e.jpg,stim_01/f.jpg,2,3,j,1,34,94,57,j,1,0.583212039007,01,01,60.0122026902,PLT_learning_01,N,2014_Mrz_12_1446,P28,
stim_fb/ques.jpg,stim_fb/negf.jpg,stim_fb/posf.jpg,stim_01/d.jpg,stim_01/c.jpg,1,2,f,1,35,95,26,j,0,0.683140189924,01,01,60.0122026902,PLT_learning_01,N,2014_Mrz_12_1446,P28,
stim_fb/ques.jpg,stim_fb/negf.jpg,stim_fb/posf.jpg,stim_01/d.jpg,stim_01/c.jpg,1,2,f,1,36,96,20,f,1,1.31629363388,01,01,60.0122026902,PLT_learning_01,N,2014_Mrz_12_1446,P28,
stim_fb/ques.jpg,stim_fb/negf.jpg,stim_fb/posf.jpg,stim_01/f.jpg,stim_01/e.jpg,1,3,f,1,37,97,41,f,1,0.59978004376,01,01,60.0122026902,PLT_learning_01,N,2014_Mrz_12_1446,P28,
stim_fb/ques.jpg,stim_fb/posf.jpg,stim_fb/negf.jpg,stim_01/f.jpg,stim_01/e.jpg,1,3,f,1,38,98,46,f,1,0.266611959309,01,01,60.0122026902,PLT_learning_01,N,2014_Mrz_12_1446,P28,
stim_fb/ques.jpg,stim_fb/negf.jpg,stim_fb/posf.jpg,stim_01/f.jpg,stim_01/e.jpg,1,3,f,1,39,99,43,f,1,0.999722495319,01,01,60.0122026902,PLT_learning_01,N,2014_Mrz_12_1446,P28,
stim_fb/ques.jpg,stim_fb/negf.jpg,stim_fb/posf.jpg,stim_01/d.jpg,stim_01/c.jpg,1,2,f,1,40,100,22,f,1,0.166630356162,01,01,60.0122026902,PLT_learning_01,N,2014_Mrz_12_1446,P28,
stim_fb/ques.jpg,stim_fb/negf.jpg,stim_fb/posf.jpg,stim_01/a.jpg,stim_01/b.jpg,2,1,j,1,41,101,17,j,1,0.299913757039,01,01,60.0122026902,PLT_learning_01,N,2014_Mrz_12_1446,P28,
stim_fb/ques.jpg,stim_fb/negf.jpg,stim_fb/posf.jpg,stim_01/a.jpg,stim_01/b.jpg,2,1,j,1,42,102,15,j,1,0.283301830813,01,01,60.0122026902,PLT_learning_01,N,2014_Mrz_12_1446,P28,
stim_fb/ques.jpg,stim_fb/negf.jpg,stim_fb/posf.jpg,stim_01/b.jpg,stim_01/a.jpg,1,1,f,1,43,103,7,j,0,0.416594630115,01,01,60.0122026902,PLT_learning_01,N,2014_Mrz_12_1446,P28,
stim_fb/ques.jpg,stim_fb/posf.jpg,stim_fb/negf.jpg,stim_01/d.jpg,stim_01/c.jpg,1,2,f,1,44,104,29,j,0,0.249965329584,01,01,60.0122026902,PLT_learning_01,N,2014_Mrz_12_1446,P28,
stim_fb/ques.jpg,stim_fb/negf.jpg,stim_fb/posf.jpg,stim_01/c.jpg,stim_01/d.jpg,2,2,j,1,45,105,35,j,1,0.38326689273,01,01,60.0122026902,PLT_learning_01,N,2014_Mrz_12_1446,P28,
stim_fb/ques.jpg,stim_fb/posf.jpg,stim_fb/negf.jpg,stim_01/e.jpg,stim_01/f.jpg,2,3,j,1,46,106,59,f,0,0.283292528628,01,01,60.0122026902,PLT_learning_01,N,2014_Mrz_12_1446,P28,
stim_fb/ques.jpg,stim_fb/negf.jpg,stim_fb/posf.jpg,stim_01/c.jpg,stim_01/d.jpg,2,2,j,1,47,107,30,f,0,1.21633535086,01,01,60.0122026902,PLT_learning_01,N,2014_Mrz_12_1446,P28,
stim_fb/ques.jpg,stim_fb/negf.jpg,stim_fb/posf.jpg,stim_01/b.jpg,stim_01/a.jpg,1,1,f,1,48,108,3,f,1,0.283286682055,01,01,60.0122026902,PLT_learning_01,N,2014_Mrz_12_1446,P28,
stim_fb/ques.jpg,stim_fb/negf.jpg,stim_fb/posf.jpg,stim_01/e.jpg,stim_01/f.jpg,2,3,j,1,49,109,55,f,0,0.316600708265,01,01,60.0122026902,PLT_learning_01,N,2014_Mrz_12_1446,P28,
stim_fb/ques.jpg,stim_fb/negf.jpg,stim_fb/posf.jpg,stim_01/f.jpg,stim_01/e.jpg,1,3,f,1,50,110,42,f,1,0.566530405034,01,01,60.0122026902,PLT_learning_01,N,2014_Mrz_12_1446,P28,
stim_fb/ques.jpg,stim_fb/negf.jpg,stim_fb/posf.jpg,stim_01/e.jpg,stim_01/f.jpg,2,3,j,1,51,111,54,j,1,0.249970285938,01,01,60.0122026902,PLT_learning_01,N,2014_Mrz_12_1446,P28,
stim_fb/ques.jpg,stim_fb/negf.jpg,stim_fb/posf.jpg,stim_01/c.jpg,stim_01/d.jpg,2,2,j,1,52,112,34,j,1,0.333271797957,01,01,60.0122026902,PLT_learning_01,N,2014_Mrz_12_1446,P28,
stim_fb/ques.jpg,stim_fb/negf.jpg,stim_fb/posf.jpg,stim_01/a.jpg,stim_01/b.jpg,2,1,j,1,53,113,16,j,1,0.316599595492,01,01,60.0122026902,PLT_learning_01,N,2014_Mrz_12_1446,P28,
stim_fb/ques.jpg,stim_fb/negf.jpg,stim_fb/posf.jpg,stim_01/d.jpg,stim_01/c.jpg,1,2,f,1,54,114,25,j,0,0.299945260562,01,01,60.0122026902,PLT_learning_01,N,2014_Mrz_12_1446,P28,
stim_fb/ques.jpg,stim_fb/posf.jpg,stim_fb/negf.jpg,stim_01/a.jpg,stim_01/b.jpg,2,1,j,1,55,115,18,j,1,0.316603186442,01,01,60.0122026902,PLT_learning_01,N,2014_Mrz_12_1446,P28,
stim_fb/ques.jpg,stim_fb/posf.jpg,stim_fb/negf.jpg,stim_01/f.jpg,stim_01/e.jpg,1,3,f,1,56,116,47,f,1,0.29995490861,01,01,60.0122026902,PLT_learning_01,N,2014_Mrz_12_1446,P28,
stim_fb/ques.jpg,stim_fb/posf.jpg,stim_fb/negf.jpg,stim_01/b.jpg,stim_01/a.jpg,1,1,f,1,57,117,8,f,1,0.299907859339,01,01,60.0122026902,PLT_learning_01,N,2014_Mrz_12_1446,P28,
stim_fb/ques.jpg,stim_fb/posf.jpg,stim_fb/negf.jpg,stim_01/d.jpg,stim_01/c.jpg,1,2,f,1,58,118,28,f,1,0.233332982459,01,01,60.0122026902,PLT_learning_01,N,2014_Mrz_12_1446,P28,
stim_fb/ques.jpg,stim_fb/negf.jpg,stim_fb/posf.jpg,stim_01/e.jpg,stim_01/f.jpg,2,3,j,1,59,119,52,f,0,0.333275018985,01,01,60.0122026902,PLT_learning_01,N,2014_Mrz_12_1446,P28,
stim_fb/ques.jpg,stim_fb/negf.jpg,stim_fb/posf.jpg,stim_01/e.jpg,stim_01/f.jpg,2,3,j,2,0,120,51,f,0,0.366622130661,01,01,60.0122026902,PLT_learning_01,N,2014_Mrz_12_1446,P28,
stim_fb/ques.jpg,stim_fb/negf.jpg,stim_fb/posf.jpg,stim_01/a.jpg,stim_01/b.jpg,2,1,j,2,1,121,12,f,0,0.283268760385,01,01,60.0122026902,PLT_learning_01,N,2014_Mrz_12_1446,P28,
stim_fb/ques.jpg,stim_fb/negf.jpg,stim_fb/posf.jpg,stim_01/f.jpg,stim_01/e.jpg,1,3,f,2,2,122,44,j,0,0.749794906805,01,01,60.0122026902,PLT_learning_01,N,2014_Mrz_12_1446,P28,
stim_fb/ques.jpg,stim_fb/posf.jpg,stim_fb/negf.jpg,stim_01/f.jpg,stim_01/e.jpg,1,3,f,2,3,123,48,j,0,1.5328913136,01,01,60.0122026902,PLT_learning_01,N,2014_Mrz_12_1446,P28,
stim_fb/ques.jpg,stim_fb/negf.jpg,stim_fb/posf.jpg,stim_01/a.jpg,stim_01/b.jpg,2,1,j,2,4,124,16,j,1,0.233329827595,01,01,60.0122026902,PLT_learning_01,N,2014_Mrz_12_1446,P28,
stim_fb/ques.jpg,stim_fb/posf.jpg,stim_fb/negf.jpg,stim_01/c.jpg,stim_01/d.jpg,2,2,j,2,5,125,39,j,1,0.483267674679,01,01,60.0122026902,PLT_learning_01,N,2014_Mrz_12_1446,P28,
stim_fb/ques.jpg,stim_fb/posf.jpg,stim_fb/negf.jpg,stim_01/e.jpg,stim_01/f.jpg,2,3,j,2,6,126,59,j,1,0.0833487026412,01,01,60.0122026902,PLT_learning_01,N,2014_Mrz_12_1446,P28,
stim_fb/ques.jpg,stim_fb/posf.jpg,stim_fb/negf.jpg,stim_01/a.jpg,stim_01/b.jpg,2,1,j,2,7,127,19,f,0,0.283286230931,01,01,60.0122026902,PLT_learning_01,N,2014_Mrz_12_1446,P28,
stim_fb/ques.jpg,stim_fb/posf.jpg,stim_fb/negf.jpg,stim_01/f.jpg,stim_01/e.jpg,1,3,f,2,8,128,49,f,1,0.199954015384,01,01,60.0122026902,PLT_learning_01,N,2014_Mrz_12_1446,P28,
stim_fb/ques.jpg,stim_fb/negf.jpg,stim_fb/posf.jpg,stim_01/b.jpg,stim_01/a.jpg,1,1,f,2,9,129,5,j,0,0.283361460441,01,01,60.0122026902,PLT_learning_01,N,2014_Mrz_12_1446,P28,
stim_fb/ques.jpg,stim_fb/negf.jpg,stim_fb/posf.jpg,stim_01/c.jpg,stim_01/d.jpg,2,2,j,2,10,130,34,f,0,0.383445339508,01,01,60.0122026902,PLT_learning_01,N,2014_Mrz_12_1446,P28,
stim_fb/ques.jpg,stim_fb/negf.jpg,stim_fb/posf.jpg,stim_01/f.jpg,stim_01/e.jpg,1,3,f,2,11,131,41,f,1,0.29981914121,01,01,60.0122026902,PLT_learning_01,N,2014_Mrz_12_1446,P28,
stim_fb/ques.jpg,stim_fb/negf.jpg,stim_fb/posf.jpg,stim_01/a.jpg,stim_01/b.jpg,2,1,j,2,12,132,17,f,0,0.366558347681,01,01,60.0122026902,PLT_learning_01,N,2014_Mrz_12_1446,P28,
stim_fb/ques.jpg,stim_fb/negf.jpg,stim_fb/posf.jpg,stim_01/f.jpg,stim_01/e.jpg,1,3,f,2,13,133,45,f,1,0.233289978271,01,01,60.0122026902,PLT_learning_01,N,2014_Mrz_12_1446,P28,
stim_fb/ques.jpg,stim_fb/negf.jpg,stim_fb/posf.jpg,stim_01/e.jpg,stim_01/f.jpg,2,3,j,2,14,134,50,f,0,0.299944550793,01,01,60.0122026902,PLT_learning_01,N,2014_Mrz_12_1446,P28,
stim_fb/ques.jpg,stim_fb/posf.jpg,stim_fb/negf.jpg,stim_01/c.jpg,stim_01/d.jpg,2,2,j,2,15,135,38,j,1,0.24995667401,01,01,60.0122026902,PLT_learning_01,N,2014_Mrz_12_1446,P28,
stim_fb/ques.jpg,stim_fb/negf.jpg,stim_fb/posf.jpg,stim_01/a.jpg,stim_01/b.jpg,2,1,j,2,16,136,14,j,1,0.266612744265,01,01,60.0122026902,PLT_learning_01,N,2014_Mrz_12_1446,P28,
stim_fb/ques.jpg,stim_fb/posf.jpg,stim_fb/negf.jpg,stim_01/c.jpg,stim_01/d.jpg,2,2,j,2,17,137,37,j,1,0.249934626056,01,01,60.0122026902,PLT_learning_01,N,2014_Mrz_12_1446,P28,
stim_fb/ques.jpg,stim_fb/negf.jpg,stim_fb/posf.jpg,stim_01/e.jpg,stim_01/f.jpg,2,3,j,2,18,138,54,j,1,0.23329094067,01,01,60.0122026902,PLT_learning_01,N,2014_Mrz_12_1446,P28,
stim_fb/ques.jpg,stim_fb/negf.jpg,stim_fb/posf.jpg,stim_01/b.jpg,stim_01/a.jpg,1,1,f,2,19,139,4,f,1,0.249915552515,01,01,60.0122026902,PLT_learning_01,N,2014_Mrz_12_1446,P28,
stim_fb/ques.jpg,stim_fb/posf.jpg,stim_fb/negf.jpg,stim_01/a.jpg,stim_01/b.jpg,2,1,j,2,20,140,18,f,0,0.0333782964044,01,01,60.0122026902,PLT_learning_01,N,2014_Mrz_12_1446,P28,
stim_fb/ques.jpg,stim_fb/negf.jpg,stim_fb/posf.jpg,stim_01/c.jpg,stim_01/d.jpg,2,2,j,2,21,141,33,f,0,0.233294883497,01,01,60.0122026902,PLT_learning_01,N,2014_Mrz_12_1446,P28,
stim_fb/ques.jpg,stim_fb/negf.jpg,stim_fb/posf.jpg,stim_01/a.jpg,stim_01/b.jpg,2,1,j,2,22,142,15,f,0,0.233322609604,01,01,60.0122026902,PLT_learning_01,N,2014_Mrz_12_1446,P28,
stim_fb/ques.jpg,stim_fb/posf.jpg,stim_fb/negf.jpg,stim_01/b.jpg,stim_01/a.jpg,1,1,f,2,23,143,8,j,0,0.266628933617,01,01,60.0122026902,PLT_learning_01,N,2014_Mrz_12_1446,P28,
stim_fb/ques.jpg,stim_fb/negf.jpg,stim_fb/posf.jpg,stim_01/e.jpg,stim_01/f.jpg,2,3,j,2,24,144,52,j,1,0.233317993097,01,01,60.0122026902,PLT_learning_01,N,2014_Mrz_12_1446,P28,
stim_fb/ques.jpg,stim_fb/negf.jpg,stim_fb/posf.jpg,stim_01/c.jpg,stim_01/d.jpg,2,2,j,2,25,145,35,j,1,0.316616804385,01,01,60.0122026902,PLT_learning_01,N,2014_Mrz_12_1446,P28,
stim_fb/ques.jpg,stim_fb/negf.jpg,stim_fb/posf.jpg,stim_01/b.jpg,stim_01/a.jpg,1,1,f,2,26,146,6,j,0,0.366601312772,01,01,60.0122026902,PLT_learning_01,N,2014_Mrz_12_1446,P28,
stim_fb/ques.jpg,stim_fb/posf.jpg,stim_fb/negf.jpg,stim_01/b.jpg,stim_01/a.jpg,1,1,f,2,27,147,9,f,1,0.266603649597,01,01,60.0122026902,PLT_learning_01,N,2014_Mrz_12_1446,P28,
stim_fb/ques.jpg,stim_fb/posf.jpg,stim_fb/negf.jpg,stim_01/d.jpg,stim_01/c.jpg,1,2,f,2,28,148,28,f,1,0.299948839483,01,01,60.0122026902,PLT_learning_01,N,2014_Mrz_12_1446,P28,
stim_fb/ques.jpg,stim_fb/negf.jpg,stim_fb/posf.jpg,stim_01/f.jpg,stim_01/e.jpg,1,3,f,2,29,149,40,f,1,0.28315041541,01,01,60.0122026902,PLT_learning_01,N,2014_Mrz_12_1446,P28,
stim_fb/ques.jpg,stim_fb/negf.jpg,stim_fb/posf.jpg,stim_01/d.jpg,stim_01/c.jpg,1,2,f,2,30,150,26,f,1,0.266654722896,01,01,60.0122026902,PLT_learning_01,N,2014_Mrz_12_1446,P28,
stim_fb/ques.jpg,stim_fb/negf.jpg,stim_fb/posf.jpg,stim_01/a.jpg,stim_01/b.jpg,2,1,j,2,31,151,13,j,1,0.433244703423,01,01,60.0122026902,PLT_learning_01,N,2014_Mrz_12_1446,P28,
stim_fb/ques.jpg,stim_fb/negf.jpg,stim_fb/posf.jpg,stim_01/d.jpg,stim_01/c.jpg,1,2,f,2,32,152,25,j,0,0.383261205555,01,01,60.0122026902,PLT_learning_01,N,2014_Mrz_12_1446,P28,
stim_fb/ques.jpg,stim_fb/negf.jpg,stim_fb/posf.jpg,stim_01/b.jpg,stim_01/a.jpg,1,1,f,2,33,153,7,j,0,0.399870584431,01,01,60.0122026902,PLT_learning_01,N,2014_Mrz_12_1446,P28,
stim_fb/ques.jpg,stim_fb/posf.jpg,stim_fb/negf.jpg,stim_01/d.jpg,stim_01/c.jpg,1,2,f,2,34,154,27,j,0,0.299966908519,01,01,60.0122026902,PLT_learning_01,N,2014_Mrz_12_1446,P28,
stim_fb/ques.jpg,stim_fb/negf.jpg,stim_fb/posf.jpg,stim_01/d.jpg,stim_01/c.jpg,1,2,f,2,35,155,24,j,0,0.283301154127,01,01,60.0122026902,PLT_learning_01,N,2014_Mrz_12_1446,P28,
stim_fb/ques.jpg,stim_fb/posf.jpg,stim_fb/negf.jpg,stim_01/e.jpg,stim_01/f.jpg,2,3,j,2,36,156,56,f,0,0.266644572597,01,01,60.0122026902,PLT_learning_01,N,2014_Mrz_12_1446,P28,
stim_fb/ques.jpg,stim_fb/negf.jpg,stim_fb/posf.jpg,stim_01/a.jpg,stim_01/b.jpg,2,1,j,2,37,157,11,f,0,0.300016291607,01,01,60.0122026902,PLT_learning_01,N,2014_Mrz_12_1446,P28,
stim_fb/ques.jpg,stim_fb/negf.jpg,stim_fb/posf.jpg,stim_01/e.jpg,stim_01/f.jpg,2,3,j,2,38,158,53,f,0,0.199961919084,01,01,60.0122026902,PLT_learning_01,N,2014_Mrz_12_1446,P28,
stim_fb/ques.jpg,stim_fb/negf.jpg,stim_fb/posf.jpg,stim_01/b.jpg,stim_01/a.jpg,1,1,f,2,39,159,2,f,1,0.766464453651,01,01,60.0122026902,PLT_learning_01,N,2014_Mrz_12_1446,P28,
stim_fb/ques.jpg,stim_fb/negf.jpg,stim_fb/posf.jpg,stim_01/b.jpg,stim_01/a.jpg,1,1,f,2,40,160,1,j,0,0.733170529545,01,01,60.0122026902,PLT_learning_01,N,2014_Mrz_12_1446,P28,
stim_fb/ques.jpg,stim_fb/negf.jpg,stim_fb/posf.jpg,stim_01/c.jpg,stim_01/d.jpg,2,2,j,2,41,161,31,j,1,0.599869210007,01,01,60.0122026902,PLT_learning_01,N,2014_Mrz_12_1446,P28,
stim_fb/ques.jpg,stim_fb/negf.jpg,stim_fb/posf.jpg,stim_01/d.jpg,stim_01/c.jpg,1,2,f,2,42,162,22,f,1,0.633217356261,01,01,60.0122026902,PLT_learning_01,N,2014_Mrz_12_1446,P28,
stim_fb/ques.jpg,stim_fb/posf.jpg,stim_fb/negf.jpg,stim_01/e.jpg,stim_01/f.jpg,2,3,j,2,43,163,58,j,1,0.533196195517,01,01,60.0122026902,PLT_learning_01,N,2014_Mrz_12_1446,P28,
stim_fb/ques.jpg,stim_fb/posf.jpg,stim_fb/negf.jpg,stim_01/f.jpg,stim_01/e.jpg,1,3,f,2,44,164,47,j,0,0.949698128585,01,01,60.0122026902,PLT_learning_01,N,2014_Mrz_12_1446,P28,
stim_fb/ques.jpg,stim_fb/negf.jpg,stim_fb/posf.jpg,stim_01/c.jpg,stim_01/d.jpg,2,2,j,2,45,165,32,j,1,0.799792004571,01,01,60.0122026902,PLT_learning_01,N,2014_Mrz_12_1446,P28,
stim_fb/ques.jpg,stim_fb/posf.jpg,stim_fb/negf.jpg,stim_01/e.jpg,stim_01/f.jpg,2,3,j,2,46,166,57,f,0,0.916433539598,01,01,60.0122026902,PLT_learning_01,N,2014_Mrz_12_1446,P28,
stim_fb/ques.jpg,stim_fb/negf.jpg,stim_fb/posf.jpg,stim_01/c.jpg,stim_01/d.jpg,2,2,j,2,47,167,36,j,1,0.7997816648,01,01,60.0122026902,PLT_learning_01,N,2014_Mrz_12_1446,P28,
stim_fb/ques.jpg,stim_fb/posf.jpg,stim_fb/negf.jpg,stim_01/f.jpg,stim_01/e.jpg,1,3,f,2,48,168,46,f,1,0.799784404629,01,01,60.0122026902,PLT_learning_01,N,2014_Mrz_12_1446,P28,
stim_fb/ques.jpg,stim_fb/negf.jpg,stim_fb/posf.jpg,stim_01/a.jpg,stim_01/b.jpg,2,1,j,2,49,169,10,f,0,0.766454086812,01,01,60.0122026902,PLT_learning_01,N,2014_Mrz_12_1446,P28,
stim_fb/ques.jpg,stim_fb/negf.jpg,stim_fb/posf.jpg,stim_01/d.jpg,stim_01/c.jpg,1,2,f,2,50,170,23,f,1,0.633199933834,01,01,60.0122026902,PLT_learning_01,N,2014_Mrz_12_1446,P28,
stim_fb/ques.jpg,stim_fb/negf.jpg,stim_fb/posf.jpg,stim_01/b.jpg,stim_01/a.jpg,1,1,f,2,51,171,3,f,1,0.966387200096,01,01,60.0122026902,PLT_learning_01,N,2014_Mrz_12_1446,P28,
stim_fb/ques.jpg,stim_fb/negf.jpg,stim_fb/posf.jpg,stim_01/c.jpg,stim_01/d.jpg,2,2,j,2,52,172,30,j,1,0.866447208668,01,01,60.0122026902,PLT_learning_01,N,2014_Mrz_12_1446,P28,
stim_fb/ques.jpg,stim_fb/negf.jpg,stim_fb/posf.jpg,stim_01/f.jpg,stim_01/e.jpg,1,3,f,2,53,173,42,j,0,0.749802879677,01,01,60.0122026902,PLT_learning_01,N,2014_Mrz_12_1446,P28,
stim_fb/ques.jpg,stim_fb/negf.jpg,stim_fb/posf.jpg,stim_01/d.jpg,stim_01/c.jpg,1,2,f,2,54,174,21,f,1,0.649765722062,01,01,60.0122026902,PLT_learning_01,N,2014_Mrz_12_1446,P28,
stim_fb/ques.jpg,stim_fb/negf.jpg,stim_fb/posf.jpg,stim_01/f.jpg,stim_01/e.jpg,1,3,f,2,55,175,43,f,1,0.899803015015,01,01,60.0122026902,PLT_learning_01,N,2014_Mrz_12_1446,P28,
stim_fb/ques.jpg,stim_fb/negf.jpg,stim_fb/posf.jpg,stim_01/b.jpg,stim_01/a.jpg,1,1,f,2,56,176,0,f,1,0.783091561718,01,01,60.0122026902,PLT_learning_01,N,2014_Mrz_12_1446,P28,
stim_fb/ques.jpg,stim_fb/posf.jpg,stim_fb/negf.jpg,stim_01/d.jpg,stim_01/c.jpg,1,2,f,2,57,177,29,f,1,0.649848828204,01,01,60.0122026902,PLT_learning_01,N,2014_Mrz_12_1446,P28,
stim_fb/ques.jpg,stim_fb/negf.jpg,stim_fb/posf.jpg,stim_01/d.jpg,stim_01/c.jpg,1,2,f,2,58,178,20,f,1,0.616520735935,01,01,60.0122026902,PLT_learning_01,N,2014_Mrz_12_1446,P28,
stim_fb/ques.jpg,stim_fb/negf.jpg,stim_fb/posf.jpg,stim_01/e.jpg,stim_01/f.jpg,2,3,j,2,59,179,55,j,1,0.983076852053,01,01,60.0122026902,PLT_learning_01,N,2014_Mrz_12_1446,P28,
stim_fb/ques.jpg,stim_fb/negf.jpg,stim_fb/posf.jpg,stim_01/d.jpg,stim_01/c.jpg,1,2,f,3,0,180,25,f,1,0.716464098766,01,01,60.0122026902,PLT_learning_01,N,2014_Mrz_12_1446,P28,
stim_fb/ques.jpg,stim_fb/posf.jpg,stim_fb/negf.jpg,stim_01/c.jpg,stim_01/d.jpg,2,2,j,3,1,181,38,j,1,0.633057456711,01,01,60.0122026902,PLT_learning_01,N,2014_Mrz_12_1446,P28,
stim_fb/ques.jpg,stim_fb/negf.jpg,stim_fb/posf.jpg,stim_01/a.jpg,stim_01/b.jpg,2,1,j,3,2,182,14,j,1,0.966399248126,01,01,60.0122026902,PLT_learning_01,N,2014_Mrz_12_1446,P28,
stim_fb/ques.jpg,stim_fb/negf.jpg,stim_fb/posf.jpg,stim_01/c.jpg,stim_01/d.jpg,2,2,j,3,3,183,33,j,1,0.583205193946,01,01,60.0122026902,PLT_learning_01,N,2014_Mrz_12_1446,P28,
stim_fb/ques.jpg,stim_fb/posf.jpg,stim_fb/negf.jpg,stim_01/f.jpg,stim_01/e.jpg,1,3,f,3,4,184,46,f,1,0.883083709145,01,01,60.0122026902,PLT_learning_01,N,2014_Mrz_12_1446,P28,
stim_fb/ques.jpg,stim_fb/negf.jpg,stim_fb/posf.jpg,stim_01/b.jpg,stim_01/a.jpg,1,1,f,3,5,185,0,f,1,0.666493115089,01,01,60.0122026902,PLT_learning_01,N,2014_Mrz_12_1446,P28,
stim_fb/ques.jpg,stim_fb/posf.jpg,stim_fb/negf.jpg,stim_01/e.jpg,stim_01/f.jpg,2,3,j,3,6,186,59,j,1,0.599867447613,01,01,60.0122026902,PLT_learning_01,N,2014_Mrz_12_1446,P28,
stim_fb/ques.jpg,stim_fb/posf.jpg,stim_fb/negf.jpg,stim_01/a.jpg,stim_01/b.jpg,2,1,j,3,7,187,19,j,1,0.616540035037,01,01,60.0122026902,PLT_learning_01,N,2014_Mrz_12_1446,P28,
stim_fb/ques.jpg,stim_fb/negf.jpg,stim_fb/posf.jpg,stim_01/e.jpg,stim_01/f.jpg,2,3,j,3,8,188,52,j,1,0.799771312998,01,01,60.0122026902,PLT_learning_01,N,2014_Mrz_12_1446,P28,
stim_fb/ques.jpg,stim_fb/negf.jpg,stim_fb/posf.jpg,stim_01/c.jpg,stim_01/d.jpg,2,2,j,3,9,189,31,j,1,0.549860163457,01,01,60.0122026902,PLT_learning_01,N,2014_Mrz_12_1446,P28,
stim_fb/ques.jpg,stim_fb/negf.jpg,stim_fb/posf.jpg,stim_01/a.jpg,stim_01/b.jpg,2,1,j,3,10,190,13,j,1,0.699850852249,01,01,60.0122026902,PLT_learning_01,N,2014_Mrz_12_1446,P28,
stim_fb/ques.jpg,stim_fb/negf.jpg,stim_fb/posf.jpg,stim_01/a.jpg,stim_01/b.jpg,2,1,j,3,11,191,17,j,1,0.549860331877,01,01,60.0122026902,PLT_learning_01,N,2014_Mrz_12_1446,P28,
stim_fb/ques.jpg,stim_fb/posf.jpg,stim_fb/negf.jpg,stim_01/e.jpg,stim_01/f.jpg,2,3,j,3,12,192,56,j,1,0.533200333833,01,01,60.0122026902,PLT_learning_01,N,2014_Mrz_12_1446,P28,
stim_fb/ques.jpg,stim_fb/negf.jpg,stim_fb/posf.jpg,stim_01/b.jpg,stim_01/a.jpg,1,1,f,3,13,193,3,f,1,0.683127889264,01,01,60.0122026902,PLT_learning_01,N,2014_Mrz_12_1446,P28,
stim_fb/ques.jpg,stim_fb/negf.jpg,stim_fb/posf.jpg,stim_01/f.jpg,stim_01/e.jpg,1,3,f,3,14,194,43,j,0,0.666500312028,01,01,60.0122026902,PLT_learning_01,N,2014_Mrz_12_1446,P28,
stim_fb/ques.jpg,stim_fb/negf.jpg,stim_fb/posf.jpg,stim_01/b.jpg,stim_01/a.jpg,1,1,f,3,15,195,6,f,1,0.633163413809,01,01,60.0122026902,PLT_learning_01,N,2014_Mrz_12_1446,P28,
stim_fb/ques.jpg,stim_fb/posf.jpg,stim_fb/negf.jpg,stim_01/d.jpg,stim_01/c.jpg,1,2,f,3,16,196,29,f,1,0.68315244547,01,01,60.0122026902,PLT_learning_01,N,2014_Mrz_12_1446,P28,
stim_fb/ques.jpg,stim_fb/negf.jpg,stim_fb/posf.jpg,stim_01/e.jpg,stim_01/f.jpg,2,3,j,3,17,197,50,f,0,0.983062473214,01,01,60.0122026902,PLT_learning_01,N,2014_Mrz_12_1446,P28,
stim_fb/ques.jpg,stim_fb/negf.jpg,stim_fb/posf.jpg,stim_01/f.jpg,stim_01/e.jpg,1,3,f,3,18,198,41,f,1,1.14966981,01,01,60.0122026902,PLT_learning_01,N,2014_Mrz_12_1446,P28,
stim_fb/ques.jpg,stim_fb/negf.jpg,stim_fb/posf.jpg,stim_01/c.jpg,stim_01/d.jpg,2,2,j,3,19,199,35,j,1,0.91641801791,01,01,60.0122026902,PLT_learning_01,N,2014_Mrz_12_1446,P28,
stim_fb/ques.jpg,stim_fb/negf.jpg,stim_fb/posf.jpg,stim_01/d.jpg,stim_01/c.jpg,1,2,f,3,20,200,20,f,1,0.533195028609,01,01,60.0122026902,PLT_learning_01,N,2014_Mrz_12_1446,P28,
stim_fb/ques.jpg,stim_fb/posf.jpg,stim_fb/negf.jpg,stim_01/e.jpg,stim_01/f.jpg,2,3,j,3,21,201,58,f,0,0.783121468259,01,01,60.0122026902,PLT_learning_01,N,2014_Mrz_12_1446,P28,
stim_fb/ques.jpg,stim_fb/negf.jpg,stim_fb/posf.jpg,stim_01/d.jpg,stim_01/c.jpg,1,2,f,3,22,202,23,f,1,0.566538007984,01,01,60.0122026902,PLT_learning_01,N,2014_Mrz_12_1446,P28,
stim_fb/ques.jpg,stim_fb/negf.jpg,stim_fb/posf.jpg,stim_01/f.jpg,stim_01/e.jpg,1,3,f,3,23,203,45,f,1,0.566512552537,01,01,60.0122026902,PLT_learning_01,N,2014_Mrz_12_1446,P28,
stim_fb/ques.jpg,stim_fb/negf.jpg,stim_fb/posf.jpg,stim_01/f.jpg,stim_01/e.jpg,1,3,f,3,24,204,44,f,1,0.616513815686,01,01,60.0122026902,PLT_learning_01,N,2014_Mrz_12_1446,P28,
stim_fb/ques.jpg,stim_fb/posf.jpg,stim_fb/negf.jpg,stim_01/f.jpg,stim_01/e.jpg,1,3,f,3,25,205,49,f,1,0.533237927534,01,01,60.0122026902,PLT_learning_01,N,2014_Mrz_12_1446,P28,
stim_fb/ques.jpg,stim_fb/negf.jpg,stim_fb/posf.jpg,stim_01/a.jpg,stim_01/b.jpg,2,1,j,3,26,206,10,j,1,0.599861023601,01,01,60.0122026902,PLT_learning_01,N,2014_Mrz_12_1446,P28,
stim_fb/ques.jpg,stim_fb/negf.jpg,stim_fb/posf.jpg,stim_01/b.jpg,stim_01/a.jpg,1,1,f,3,27,207,7,f,1,0.699842325997,01,01,60.0122026902,PLT_learning_01,N,2014_Mrz_12_1446,P28,
stim_fb/ques.jpg,stim_fb/negf.jpg,stim_fb/posf.jpg,stim_01/e.jpg,stim_01/f.jpg,2,3,j,3,28,208,51,f,0,0.9330856971,01,01,60.0122026902,PLT_learning_01,N,2014_Mrz_12_1446,P28,
stim_fb/ques.jpg,stim_fb/negf.jpg,stim_fb/posf.jpg,stim_01/e.jpg,stim_01/f.jpg,2,3,j,3,29,209,54,f,0,0.933047189119,01,01,60.0122026902,PLT_learning_01,N,2014_Mrz_12_1446,P28,
stim_fb/ques.jpg,stim_fb/negf.jpg,stim_fb/posf.jpg,stim_01/c.jpg,stim_01/d.jpg,2,2,j,3,30,210,34,j,1,0.716518642717,01,01,60.0122026902,PLT_learning_01,N,2014_Mrz_12_1446,P28,
stim_fb/ques.jpg,stim_fb/posf.jpg,stim_fb/negf.jpg,stim_01/e.jpg,stim_01/f.jpg,2,3,j,3,31,211,57,j,1,0.516513923956,01,01,60.0122026902,PLT_learning_01,N,2014_Mrz_12_1446,P28,
stim_fb/ques.jpg,stim_fb/negf.jpg,stim_fb/posf.jpg,stim_01/b.jpg,stim_01/a.jpg,1,1,f,3,32,212,1,f,1,0.616515346501,01,01,60.0122026902,PLT_learning_01,N,2014_Mrz_12_1446,P28,
stim_fb/ques.jpg,stim_fb/posf.jpg,stim_fb/negf.jpg,stim_01/b.jpg,stim_01/a.jpg,1,1,f,3,33,213,8,f,1,0.566537307238,01,01,60.0122026902,PLT_learning_01,N,2014_Mrz_12_1446,P28,
stim_fb/ques.jpg,stim_fb/negf.jpg,stim_fb/posf.jpg,stim_01/a.jpg,stim_01/b.jpg,2,1,j,3,34,214,12,j,1,0.683224878008,01,01,60.0122026902,PLT_learning_01,N,2014_Mrz_12_1446,P28,
stim_fb/ques.jpg,stim_fb/posf.jpg,stim_fb/negf.jpg,stim_01/d.jpg,stim_01/c.jpg,1,2,f,3,35,215,28,f,1,0.83314694476,01,01,60.0122026902,PLT_learning_01,N,2014_Mrz_12_1446,P28,
stim_fb/ques.jpg,stim_fb/negf.jpg,stim_fb/posf.jpg,stim_01/a.jpg,stim_01/b.jpg,2,1,j,3,36,216,11,j,1,0.583186303863,01,01,60.0122026902,PLT_learning_01,N,2014_Mrz_12_1446,P28,
stim_fb/ques.jpg,stim_fb/posf.jpg,stim_fb/negf.jpg,stim_01/d.jpg,stim_01/c.jpg,1,2,f,3,37,217,27,f,1,0.699795000038,01,01,60.0122026902,PLT_learning_01,N,2014_Mrz_12_1446,P28,
stim_fb/ques.jpg,stim_fb/posf.jpg,stim_fb/negf.jpg,stim_01/b.jpg,stim_01/a.jpg,1,1,f,3,38,218,9,f,1,0.933068924293,01,01,60.0122026902,PLT_learning_01,N,2014_Mrz_12_1446,P28,
stim_fb/ques.jpg,stim_fb/posf.jpg,stim_fb/negf.jpg,stim_01/a.jpg,stim_01/b.jpg,2,1,j,3,39,219,18,j,1,0.449921209614,01,01,60.0122026902,PLT_learning_01,N,2014_Mrz_12_1446,P28,
stim_fb/ques.jpg,stim_fb/negf.jpg,stim_fb/posf.jpg,stim_01/b.jpg,stim_01/a.jpg,1,1,f,3,40,220,2,j,0,0.733138171894,01,01,60.0122026902,PLT_learning_01,N,2014_Mrz_12_1446,P28,
stim_fb/ques.jpg,stim_fb/negf.jpg,stim_fb/posf.jpg,stim_01/d.jpg,stim_01/c.jpg,1,2,f,3,41,221,26,f,1,1.01642149458,01,01,60.0122026902,PLT_learning_01,N,2014_Mrz_12_1446,P28,
stim_fb/ques.jpg,stim_fb/posf.jpg,stim_fb/negf.jpg,stim_01/f.jpg,stim_01/e.jpg,1,3,f,3,42,222,48,f,1,0.63318612642,01,01,60.0122026902,PLT_learning_01,N,2014_Mrz_12_1446,P28,
stim_fb/ques.jpg,stim_fb/negf.jpg,stim_fb/posf.jpg,stim_01/c.jpg,stim_01/d.jpg,2,2,j,3,43,223,32,j,1,0.699875188908,01,01,60.0122026902,PLT_learning_01,N,2014_Mrz_12_1446,P28,
stim_fb/ques.jpg,stim_fb/negf.jpg,stim_fb/posf.jpg,stim_01/c.jpg,stim_01/d.jpg,2,2,j,3,44,224,36,j,1,0.599846765062,01,01,60.0122026902,PLT_learning_01,N,2014_Mrz_12_1446,P28,
stim_fb/ques.jpg,stim_fb/negf.jpg,stim_fb/posf.jpg,stim_01/b.jpg,stim_01/a.jpg,1,1,f,3,45,225,5,f,1,0.766599932331,01,01,60.0122026902,PLT_learning_01,N,2014_Mrz_12_1446,P28,
stim_fb/ques.jpg,stim_fb/posf.jpg,stim_fb/negf.jpg,stim_01/c.jpg,stim_01/d.jpg,2,2,j,3,46,226,39,j,1,0.616504450343,01,01,60.0122026902,PLT_learning_01,N,2014_Mrz_12_1446,P28,
stim_fb/ques.jpg,stim_fb/negf.jpg,stim_fb/posf.jpg,stim_01/a.jpg,stim_01/b.jpg,2,1,j,3,47,227,15,j,1,1.11636680025,01,01,60.0122026902,PLT_learning_01,N,2014_Mrz_12_1446,P28,
stim_fb/ques.jpg,stim_fb/posf.jpg,stim_fb/negf.jpg,stim_01/c.jpg,stim_01/d.jpg,2,2,j,3,48,228,37,j,1,0.516541120744,01,01,60.0122026902,PLT_learning_01,N,2014_Mrz_12_1446,P28,
stim_fb/ques.jpg,stim_fb/negf.jpg,stim_fb/posf.jpg,stim_01/e.jpg,stim_01/f.jpg,2,3,j,3,49,229,53,j,1,0.73314905903,01,01,60.0122026902,PLT_learning_01,N,2014_Mrz_12_1446,P28,
stim_fb/ques.jpg,stim_fb/negf.jpg,stim_fb/posf.jpg,stim_01/d.jpg,stim_01/c.jpg,1,2,f,3,50,230,22,f,1,0.766486549725,01,01,60.0122026902,PLT_learning_01,N,2014_Mrz_12_1446,P28,
stim_fb/ques.jpg,stim_fb/negf.jpg,stim_fb/posf.jpg,stim_01/e.jpg,stim_01/f.jpg,2,3,j,3,51,231,55,j,1,0.533190974504,01,01,60.0122026902,PLT_learning_01,N,2014_Mrz_12_1446,P28,
stim_fb/ques.jpg,stim_fb/negf.jpg,stim_fb/posf.jpg,stim_01/f.jpg,stim_01/e.jpg,1,3,f,3,52,232,42,f,1,0.766472071638,01,01,60.0122026902,PLT_learning_01,N,2014_Mrz_12_1446,P28,
stim_fb/ques.jpg,stim_fb/negf.jpg,stim_fb/posf.jpg,stim_01/d.jpg,stim_01/c.jpg,1,2,f,3,53,233,21,f,1,0.866450664281,01,01,60.0122026902,PLT_learning_01,N,2014_Mrz_12_1446,P28,
stim_fb/ques.jpg,stim_fb/negf.jpg,stim_fb/posf.jpg,stim_01/a.jpg,stim_01/b.jpg,2,1,j,3,54,234,16,j,1,0.599825291539,01,01,60.0122026902,PLT_learning_01,N,2014_Mrz_12_1446,P28,
stim_fb/ques.jpg,stim_fb/negf.jpg,stim_fb/posf.jpg,stim_01/c.jpg,stim_01/d.jpg,2,2,j,3,55,235,30,j,1,0.633197888738,01,01,60.0122026902,PLT_learning_01,N,2014_Mrz_12_1446,P28,
stim_fb/ques.jpg,stim_fb/posf.jpg,stim_fb/negf.jpg,stim_01/f.jpg,stim_01/e.jpg,1,3,f,3,56,236,47,f,1,0.533209118728,01,01,60.0122026902,PLT_learning_01,N,2014_Mrz_12_1446,P28,
stim_fb/ques.jpg,stim_fb/negf.jpg,stim_fb/posf.jpg,stim_01/f.jpg,stim_01/e.jpg,1,3,f,3,57,237,40,f,1,0.54985281013,01,01,60.0122026902,PLT_learning_01,N,2014_Mrz_12_1446,P28,
stim_fb/ques.jpg,stim_fb/negf.jpg,stim_fb/posf.jpg,stim_01/d.jpg,stim_01/c.jpg,1,2,f,3,58,238,24,f,1,0.799779953534,01,01,60.0122026902,PLT_learning_01,N,2014_Mrz_12_1446,P28,
stim_fb/ques.jpg,stim_fb/negf.jpg,stim_fb/posf.jpg,stim_01/b.jpg,stim_01/a.jpg,1,1,f,3,59,239,4,f,1,0.766464143879,01,01,60.0122026902,PLT_learning_01,N,2014_Mrz_12_1446,P28,
stim_fb/ques.jpg,stim_fb/negf.jpg,stim_fb/posf.jpg,stim_01/e.jpg,stim_01/f.jpg,2,3,j,4,0,240,54,j,1,0.799782112916,01,01,60.0122026902,PLT_learning_01,N,2014_Mrz_12_1446,P28,
stim_fb/ques.jpg,stim_fb/negf.jpg,stim_fb/posf.jpg,stim_01/f.jpg,stim_01/e.jpg,1,3,f,4,1,241,42,f,1,0.516550642476,01,01,60.0122026902,PLT_learning_01,N,2014_Mrz_12_1446,P28,
stim_fb/ques.jpg,stim_fb/negf.jpg,stim_fb/posf.jpg,stim_01/e.jpg,stim_01/f.jpg,2,3,j,4,2,242,52,j,1,0.749804115759,01,01,60.0122026902,PLT_learning_01,N,2014_Mrz_12_1446,P28,
stim_fb/ques.jpg,stim_fb/negf.jpg,stim_fb/posf.jpg,stim_01/f.jpg,stim_01/e.jpg,1,3,f,4,3,243,40,f,1,0.449907314982,01,01,60.0122026902,PLT_learning_01,N,2014_Mrz_12_1446,P28,
stim_fb/ques.jpg,stim_fb/negf.jpg,stim_fb/posf.jpg,stim_01/c.jpg,stim_01/d.jpg,2,2,j,4,4,244,32,j,1,0.616489984286,01,01,60.0122026902,PLT_learning_01,N,2014_Mrz_12_1446,P28,
stim_fb/ques.jpg,stim_fb/posf.jpg,stim_fb/negf.jpg,stim_01/d.jpg,stim_01/c.jpg,1,2,f,4,5,245,29,f,1,0.533204102225,01,01,60.0122026902,PLT_learning_01,N,2014_Mrz_12_1446,P28,
stim_fb/ques.jpg,stim_fb/negf.jpg,stim_fb/posf.jpg,stim_01/b.jpg,stim_01/a.jpg,1,1,f,4,6,246,6,f,1,0.766472348329,01,01,60.0122026902,PLT_learning_01,N,2014_Mrz_12_1446,P28,
stim_fb/ques.jpg,stim_fb/negf.jpg,stim_fb/posf.jpg,stim_01/b.jpg,stim_01/a.jpg,1,1,f,4,7,247,5,f,1,0.566524997556,01,01,60.0122026902,PLT_learning_01,N,2014_Mrz_12_1446,P28,
stim_fb/ques.jpg,stim_fb/negf.jpg,stim_fb/posf.jpg,stim_01/b.jpg,stim_01/a.jpg,1,1,f,4,8,248,4,f,1,0.59983423884,01,01,60.0122026902,PLT_learning_01,N,2014_Mrz_12_1446,P28,
stim_fb/ques.jpg,stim_fb/negf.jpg,stim_fb/posf.jpg,stim_01/a.jpg,stim_01/b.jpg,2,1,j,4,9,249,17,j,1,0.666502940579,01,01,60.0122026902,PLT_learning_01,N,2014_Mrz_12_1446,P28,
stim_fb/ques.jpg,stim_fb/negf.jpg,stim_fb/posf.jpg,stim_01/f.jpg,stim_01/e.jpg,1,3,f,4,10,250,43,f,1,0.866481442997,01,01,60.0122026902,PLT_learning_01,N,2014_Mrz_12_1446,P28,
stim_fb/ques.jpg,stim_fb/negf.jpg,stim_fb/posf.jpg,stim_01/e.jpg,stim_01/f.jpg,2,3,j,4,11,251,50,j,1,0.583179109932,01,01,60.0122026902,PLT_learning_01,N,2014_Mrz_12_1446,P28,
stim_fb/ques.jpg,stim_fb/posf.jpg,stim_fb/negf.jpg,stim_01/c.jpg,stim_01/d.jpg,2,2,j,4,12,252,38,j,1,0.849790094811,01,01,60.0122026902,PLT_learning_01,N,2014_Mrz_12_1446,P28,
stim_fb/ques.jpg,stim_fb/negf.jpg,stim_fb/posf.jpg,stim_01/c.jpg,stim_01/d.jpg,2,2,j,4,13,253,31,j,1,0.566579619703,01,01,60.0122026902,PLT_learning_01,N,2014_Mrz_12_1446,P28,
stim_fb/ques.jpg,stim_fb/negf.jpg,stim_fb/posf.jpg,stim_01/a.jpg,stim_01/b.jpg,2,1,j,4,14,254,15,j,1,0.699786705363,01,01,60.0122026902,PLT_learning_01,N,2014_Mrz_12_1446,P28,
stim_fb/ques.jpg,stim_fb/negf.jpg,stim_fb/posf.jpg,stim_01/d.jpg,stim_01/c.jpg,1,2,f,4,15,255,20,f,1,0.733138460613,01,01,60.0122026902,PLT_learning_01,N,2014_Mrz_12_1446,P28,
stim_fb/ques.jpg,stim_fb/negf.jpg,stim_fb/posf.jpg,stim_01/d.jpg,stim_01/c.jpg,1,2,f,4,16,256,21,f,1,0.549852608627,01,01,60.0122026902,PLT_learning_01,N,2014_Mrz_12_1446,P28,
stim_fb/ques.jpg,stim_fb/posf.jpg,stim_fb/negf.jpg,stim_01/b.jpg,stim_01/a.jpg,1,1,f,4,17,257,9,f,1,0.716562308555,01,01,60.0122026902,PLT_learning_01,N,2014_Mrz_12_1446,P28,
stim_fb/ques.jpg,stim_fb/negf.jpg,stim_fb/posf.jpg,stim_01/a.jpg,stim_01/b.jpg,2,1,j,4,18,258,10,j,1,0.716463825083,01,01,60.0122026902,PLT_learning_01,N,2014_Mrz_12_1446,P28,
stim_fb/ques.jpg,stim_fb/negf.jpg,stim_fb/posf.jpg,stim_01/a.jpg,stim_01/b.jpg,2,1,j,4,19,259,11,j,1,0.533221659987,01,01,60.0122026902,PLT_learning_01,N,2014_Mrz_12_1446,P28,
stim_fb/ques.jpg,stim_fb/negf.jpg,stim_fb/posf.jpg,stim_01/c.jpg,stim_01/d.jpg,2,2,j,4,20,260,30,j,1,0.749814497635,01,01,60.0122026902,PLT_learning_01,N,2014_Mrz_12_1446,P28,
stim_fb/ques.jpg,stim_fb/posf.jpg,stim_fb/negf.jpg,stim_01/d.jpg,stim_01/c.jpg,1,2,f,4,21,261,27,f,1,0.599856596566,01,01,60.0122026902,PLT_learning_01,N,2014_Mrz_12_1446,P28,
stim_fb/ques.jpg,stim_fb/negf.jpg,stim_fb/posf.jpg,stim_01/c.jpg,stim_01/d.jpg,2,2,j,4,22,262,36,j,1,0.583209636018,01,01,60.0122026902,PLT_learning_01,N,2014_Mrz_12_1446,P28,
stim_fb/ques.jpg,stim_fb/negf.jpg,stim_fb/posf.jpg,stim_01/e.jpg,stim_01/f.jpg,2,3,j,4,23,263,53,j,1,0.566509490905,01,01,60.0122026902,PLT_learning_01,N,2014_Mrz_12_1446,P28,
stim_fb/ques.jpg,stim_fb/negf.jpg,stim_fb/posf.jpg,stim_01/c.jpg,stim_01/d.jpg,2,2,j,4,24,264,33,j,1,0.616501533072,01,01,60.0122026902,PLT_learning_01,N,2014_Mrz_12_1446,P28,
stim_fb/ques.jpg,stim_fb/negf.jpg,stim_fb/posf.jpg,stim_01/d.jpg,stim_01/c.jpg,1,2,f,4,25,265,22,f,1,0.633183837715,01,01,60.0122026902,PLT_learning_01,N,2014_Mrz_12_1446,P28,
stim_fb/ques.jpg,stim_fb/negf.jpg,stim_fb/posf.jpg,stim_01/e.jpg,stim_01/f.jpg,2,3,j,4,26,266,51,j,1,0.816444619214,01,01,60.0122026902,PLT_learning_01,N,2014_Mrz_12_1446,P28,
stim_fb/ques.jpg,stim_fb/negf.jpg,stim_fb/posf.jpg,stim_01/e.jpg,stim_01/f.jpg,2,3,j,4,27,267,55,j,1,0.583156821377,01,01,60.0122026902,PLT_learning_01,N,2014_Mrz_12_1446,P28,
stim_fb/ques.jpg,stim_fb/negf.jpg,stim_fb/posf.jpg,stim_01/f.jpg,stim_01/e.jpg,1,3,f,4,28,268,45,f,1,0.599833995234,01,01,60.0122026902,PLT_learning_01,N,2014_Mrz_12_1446,P28,
stim_fb/ques.jpg,stim_fb/negf.jpg,stim_fb/posf.jpg,stim_01/b.jpg,stim_01/a.jpg,1,1,f,4,29,269,2,f,1,0.733248339486,01,01,60.0122026902,PLT_learning_01,N,2014_Mrz_12_1446,P28,
stim_fb/ques.jpg,stim_fb/negf.jpg,stim_fb/posf.jpg,stim_01/c.jpg,stim_01/d.jpg,2,2,j,4,30,270,34,j,1,0.866418318659,01,01,60.0122026902,PLT_learning_01,N,2014_Mrz_12_1446,P28,
stim_fb/ques.jpg,stim_fb/posf.jpg,stim_fb/negf.jpg,stim_01/c.jpg,stim_01/d.jpg,2,2,j,4,31,271,39,j,1,0.649875176879,01,01,60.0122026902,PLT_learning_01,N,2014_Mrz_12_1446,P28,
stim_fb/ques.jpg,stim_fb/negf.jpg,stim_fb/posf.jpg,stim_01/b.jpg,stim_01/a.jpg,1,1,f,4,32,272,3,f,1,0.699827553176,01,01,60.0122026902,PLT_learning_01,N,2014_Mrz_12_1446,P28,
stim_fb/ques.jpg,stim_fb/negf.jpg,stim_fb/posf.jpg,stim_01/a.jpg,stim_01/b.jpg,2,1,j,4,33,273,16,j,1,0.816472784415,01,01,60.0122026902,PLT_learning_01,N,2014_Mrz_12_1446,P28,
stim_fb/ques.jpg,stim_fb/posf.jpg,stim_fb/negf.jpg,stim_01/a.jpg,stim_01/b.jpg,2,1,j,4,34,274,18,j,1,0.599842735017,01,01,60.0122026902,PLT_learning_01,N,2014_Mrz_12_1446,P28,
stim_fb/ques.jpg,stim_fb/posf.jpg,stim_fb/negf.jpg,stim_01/e.jpg,stim_01/f.jpg,2,3,j,4,35,275,58,j,1,0.516487650469,01,01,60.0122026902,PLT_learning_01,N,2014_Mrz_12_1446,P28,
stim_fb/ques.jpg,stim_fb/posf.jpg,stim_fb/negf.jpg,stim_01/e.jpg,stim_01/f.jpg,2,3,j,4,36,276,57,j,1,0.483214959286,01,01,60.0122026902,PLT_learning_01,N,2014_Mrz_12_1446,P28,
stim_fb/ques.jpg,stim_fb/posf.jpg,stim_fb/negf.jpg,stim_01/e.jpg,stim_01/f.jpg,2,3,j,4,37,277,56,j,1,0.583178027233,01,01,60.0122026902,PLT_learning_01,N,2014_Mrz_12_1446,P28,
stim_fb/ques.jpg,stim_fb/negf.jpg,stim_fb/posf.jpg,stim_01/b.jpg,stim_01/a.jpg,1,1,f,4,38,278,0,f,1,0.633168935572,01,01,60.0122026902,PLT_learning_01,N,2014_Mrz_12_1446,P28,
stim_fb/ques.jpg,stim_fb/negf.jpg,stim_fb/posf.jpg,stim_01/f.jpg,stim_01/e.jpg,1,3,f,4,39,279,41,f,1,0.499865862663,01,01,60.0122026902,PLT_learning_01,N,2014_Mrz_12_1446,P28,
stim_fb/ques.jpg,stim_fb/posf.jpg,stim_fb/negf.jpg,stim_01/f.jpg,stim_01/e.jpg,1,3,f,4,40,280,47,f,1,0.549858665725,01,01,60.0122026902,PLT_learning_01,N,2014_Mrz_12_1446,P28,
stim_fb/ques.jpg,stim_fb/posf.jpg,stim_fb/negf.jpg,stim_01/a.jpg,stim_01/b.jpg,2,1,j,4,41,281,19,j,1,0.666442986143,01,01,60.0122026902,PLT_learning_01,N,2014_Mrz_12_1446,P28,
stim_fb/ques.jpg,stim_fb/negf.jpg,stim_fb/posf.jpg,stim_01/a.jpg,stim_01/b.jpg,2,1,j,4,42,282,12,j,1,0.749810735258,01,01,60.0122026902,PLT_learning_01,N,2014_Mrz_12_1446,P28,
stim_fb/ques.jpg,stim_fb/posf.jpg,stim_fb/negf.jpg,stim_01/c.jpg,stim_01/d.jpg,2,2,j,4,43,283,37,j,1,0.516564413801,01,01,60.0122026902,PLT_learning_01,N,2014_Mrz_12_1446,P28,
stim_fb/ques.jpg,stim_fb/posf.jpg,stim_fb/negf.jpg,stim_01/b.jpg,stim_01/a.jpg,1,1,f,4,44,284,8,f,1,0.516540958339,01,01,60.0122026902,PLT_learning_01,N,2014_Mrz_12_1446,P28,
stim_fb/ques.jpg,stim_fb/posf.jpg,stim_fb/negf.jpg,stim_01/d.jpg,stim_01/c.jpg,1,2,f,4,45,285,28,f,1,0.516555183795,01,01,60.0122026902,PLT_learning_01,N,2014_Mrz_12_1446,P28,
stim_fb/ques.jpg,stim_fb/negf.jpg,stim_fb/posf.jpg,stim_01/f.jpg,stim_01/e.jpg,1,3,f,4,46,286,44,f,1,0.549854743949,01,01,60.0122026902,PLT_learning_01,N,2014_Mrz_12_1446,P28,
stim_fb/ques.jpg,stim_fb/negf.jpg,stim_fb/posf.jpg,stim_01/b.jpg,stim_01/a.jpg,1,1,f,4,47,287,7,f,1,0.516552606372,01,01,60.0122026902,PLT_learning_01,N,2014_Mrz_12_1446,P28,
stim_fb/ques.jpg,stim_fb/negf.jpg,stim_fb/posf.jpg,stim_01/d.jpg,stim_01/c.jpg,1,2,f,4,48,288,24,f,1,0.549851318411,01,01,60.0122026902,PLT_learning_01,N,2014_Mrz_12_1446,P28,
stim_fb/ques.jpg,stim_fb/posf.jpg,stim_fb/negf.jpg,stim_01/f.jpg,stim_01/e.jpg,1,3,f,4,49,289,48,f,1,0.549858181517,01,01,60.0122026902,PLT_learning_01,N,2014_Mrz_12_1446,P28,
stim_fb/ques.jpg,stim_fb/negf.jpg,stim_fb/posf.jpg,stim_01/d.jpg,stim_01/c.jpg,1,2,f,4,50,290,26,f,1,0.449929570455,01,01,60.0122026902,PLT_learning_01,N,2014_Mrz_12_1446,P28,
stim_fb/ques.jpg,stim_fb/negf.jpg,stim_fb/posf.jpg,stim_01/a.jpg,stim_01/b.jpg,2,1,j,4,51,291,13,j,1,0.783147696633,01,01,60.0122026902,PLT_learning_01,N,2014_Mrz_12_1446,P28,
stim_fb/ques.jpg,stim_fb/posf.jpg,stim_fb/negf.jpg,stim_01/f.jpg,stim_01/e.jpg,1,3,f,4,52,292,49,f,1,0.533315220187,01,01,60.0122026902,PLT_learning_01,N,2014_Mrz_12_1446,P28,
stim_fb/ques.jpg,stim_fb/negf.jpg,stim_fb/posf.jpg,stim_01/b.jpg,stim_01/a.jpg,1,1,f,4,53,293,1,f,1,0.816513899896,01,01,60.0122026902,PLT_learning_01,N,2014_Mrz_12_1446,P28,
stim_fb/ques.jpg,stim_fb/negf.jpg,stim_fb/posf.jpg,stim_01/d.jpg,stim_01/c.jpg,1,2,f,4,54,294,25,f,1,0.566565929579,01,01,60.0122026902,PLT_learning_01,N,2014_Mrz_12_1446,P28,
stim_fb/ques.jpg,stim_fb/negf.jpg,stim_fb/posf.jpg,stim_01/c.jpg,stim_01/d.jpg,2,2,j,4,55,295,35,f,0,0.899732245623,01,01,60.0122026902,PLT_learning_01,N,2014_Mrz_12_1446,P28,
stim_fb/ques.jpg,stim_fb/posf.jpg,stim_fb/negf.jpg,stim_01/e.jpg,stim_01/f.jpg,2,3,j,4,56,296,59,j,1,0.799775270863,01,01,60.0122026902,PLT_learning_01,N,2014_Mrz_12_1446,P28,
stim_fb/ques.jpg,stim_fb/negf.jpg,stim_fb/posf.jpg,stim_01/a.jpg,stim_01/b.jpg,2,1,j,4,57,297,14,j,1,0.549890181277,01,01,60.0122026902,PLT_learning_01,N,2014_Mrz_12_1446,P28,
stim_fb/ques.jpg,stim_fb/negf.jpg,stim_fb/posf.jpg,stim_01/d.jpg,stim_01/c.jpg,1,2,f,4,58,298,23,f,1,0.866448763543,01,01,60.0122026902,PLT_learning_01,N,2014_Mrz_12_1446,P28,
stim_fb/ques.jpg,stim_fb/posf.jpg,stim_fb/negf.jpg,stim_01/f.jpg,stim_01/e.jpg,1,3,f,4,59,299,46,f,1,0.649830103533,01,01,60.0122026902,PLT_learning_01,N,2014_Mrz_12_1446,P28,
stim_fb/ques.jpg,stim_fb/negf.jpg,stim_fb/posf.jpg,stim_01/a.jpg,stim_01/b.jpg,2,1,j,5,0,300,17,j,1,0.583112872836,01,01,60.0122026902,PLT_learning_01,N,2014_Mrz_12_1446,P28,
stim_fb/ques.jpg,stim_fb/negf.jpg,stim_fb/posf.jpg,stim_01/b.jpg,stim_01/a.jpg,1,1,f,5,1,301,5,f,1,0.66649077225,01,01,60.0122026902,PLT_learning_01,N,2014_Mrz_12_1446,P28,
stim_fb/ques.jpg,stim_fb/negf.jpg,stim_fb/posf.jpg,stim_01/c.jpg,stim_01/d.jpg,2,2,j,5,2,302,36,j,1,0.78306747468,01,01,60.0122026902,PLT_learning_01,N,2014_Mrz_12_1446,P28,
stim_fb/ques.jpg,stim_fb/posf.jpg,stim_fb/negf.jpg,stim_01/b.jpg,stim_01/a.jpg,1,1,f,5,3,303,8,f,1,0.599857580018,01,01,60.0122026902,PLT_learning_01,N,2014_Mrz_12_1446,P28,
stim_fb/ques.jpg,stim_fb/negf.jpg,stim_fb/posf.jpg,stim_01/b.jpg,stim_01/a.jpg,1,1,f,5,4,304,7,f,1,0.950143836512,01,01,60.0122026902,PLT_learning_01,N,2014_Mrz_12_1446,P28,
stim_fb/ques.jpg,stim_fb/posf.jpg,stim_fb/negf.jpg,stim_01/f.jpg,stim_01/e.jpg,1,3,f,5,5,305,48,f,1,0.799784696355,01,01,60.0122026902,PLT_learning_01,N,2014_Mrz_12_1446,P28,
stim_fb/ques.jpg,stim_fb/negf.jpg,stim_fb/posf.jpg,stim_01/c.jpg,stim_01/d.jpg,2,2,j,5,6,306,35,j,1,0.716432514041,01,01,60.0122026902,PLT_learning_01,N,2014_Mrz_12_1446,P28,
stim_fb/ques.jpg,stim_fb/posf.jpg,stim_fb/negf.jpg,stim_01/b.jpg,stim_01/a.jpg,1,1,f,5,7,307,9,f,1,0.583182532462,01,01,60.0122026902,PLT_learning_01,N,2014_Mrz_12_1446,P28,
stim_fb/ques.jpg,stim_fb/negf.jpg,stim_fb/posf.jpg,stim_01/d.jpg,stim_01/c.jpg,1,2,f,5,8,308,22,f,1,0.699778843767,01,01,60.0122026902,PLT_learning_01,N,2014_Mrz_12_1446,P28,
stim_fb/ques.jpg,stim_fb/negf.jpg,stim_fb/posf.jpg,stim_01/a.jpg,stim_01/b.jpg,2,1,j,5,9,309,14,j,1,0.816416613408,01,01,60.0122026902,PLT_learning_01,N,2014_Mrz_12_1446,P28,
stim_fb/ques.jpg,stim_fb/negf.jpg,stim_fb/posf.jpg,stim_01/e.jpg,stim_01/f.jpg,2,3,j,5,10,310,54,j,1,0.53319986767,01,01,60.0122026902,PLT_learning_01,N,2014_Mrz_12_1446,P28,
stim_fb/ques.jpg,stim_fb/negf.jpg,stim_fb/posf.jpg,stim_01/b.jpg,stim_01/a.jpg,1,1,f,5,11,311,2,j,0,0.599832831332,01,01,60.0122026902,PLT_learning_01,N,2014_Mrz_12_1446,P28,
stim_fb/ques.jpg,stim_fb/posf.jpg,stim_fb/negf.jpg,stim_01/e.jpg,stim_01/f.jpg,2,3,j,5,12,312,56,j,1,0.516566624311,01,01,60.0122026902,PLT_learning_01,N,2014_Mrz_12_1446,P28,
stim_fb/ques.jpg,stim_fb/posf.jpg,stim_fb/negf.jpg,stim_01/e.jpg,stim_01/f.jpg,2,3,j,5,13,313,57,j,1,0.483228775724,01,01,60.0122026902,PLT_learning_01,N,2014_Mrz_12_1446,P28,
stim_fb/ques.jpg,stim_fb/posf.jpg,stim_fb/negf.jpg,stim_01/d.jpg,stim_01/c.jpg,1,2,f,5,14,314,27,f,1,0.966391353449,01,01,60.0122026902,PLT_learning_01,N,2014_Mrz_12_1446,P28,
stim_fb/ques.jpg,stim_fb/negf.jpg,stim_fb/posf.jpg,stim_01/a.jpg,stim_01/b.jpg,2,1,j,5,15,315,11,j,1,0.566552257502,01,01,60.0122026902,PLT_learning_01,N,2014_Mrz_12_1446,P28,
stim_fb/ques.jpg,stim_fb/negf.jpg,stim_fb/posf.jpg,stim_01/b.jpg,stim_01/a.jpg,1,1,f,5,16,316,0,f,1,0.749799577447,01,01,60.0122026902,PLT_learning_01,N,2014_Mrz_12_1446,P28,
stim_fb/ques.jpg,stim_fb/posf.jpg,stim_fb/negf.jpg,stim_01/c.jpg,stim_01/d.jpg,2,2,j,5,17,317,37,j,1,0.599857366486,01,01,60.0122026902,PLT_learning_01,N,2014_Mrz_12_1446,P28,
stim_fb/ques.jpg,stim_fb/posf.jpg,stim_fb/negf.jpg,stim_01/f.jpg,stim_01/e.jpg,1,3,f,5,18,318,49,f,1,0.583199221059,01,01,60.0122026902,PLT_learning_01,N,2014_Mrz_12_1446,P28,
stim_fb/ques.jpg,stim_fb/negf.jpg,stim_fb/posf.jpg,stim_01/c.jpg,stim_01/d.jpg,2,2,j,5,19,319,34,j,1,0.56654433275,01,01,60.0122026902,PLT_learning_01,N,2014_Mrz_12_1446,P28,
stim_fb/ques.jpg,stim_fb/posf.jpg,stim_fb/negf.jpg,stim_01/e.jpg,stim_01/f.jpg,2,3,j,5,20,320,59,j,1,0.549875964843,01,01,60.0122026902,PLT_learning_01,N,2014_Mrz_12_1446,P28,
stim_fb/ques.jpg,stim_fb/negf.jpg,stim_fb/posf.jpg,stim_01/f.jpg,stim_01/e.jpg,1,3,f,5,21,321,43,j,0,0.749792362463,01,01,60.0122026902,PLT_learning_01,N,2014_Mrz_12_1446,P28,
stim_fb/ques.jpg,stim_fb/negf.jpg,stim_fb/posf.jpg,stim_01/c.jpg,stim_01/d.jpg,2,2,j,5,22,322,32,j,1,0.633139224517,01,01,60.0122026902,PLT_learning_01,N,2014_Mrz_12_1446,P28,
stim_fb/ques.jpg,stim_fb/posf.jpg,stim_fb/negf.jpg,stim_01/d.jpg,stim_01/c.jpg,1,2,f,5,23,323,28,f,1,0.649792539905,01,01,60.0122026902,PLT_learning_01,N,2014_Mrz_12_1446,P28,
stim_fb/ques.jpg,stim_fb/negf.jpg,stim_fb/posf.jpg,stim_01/d.jpg,stim_01/c.jpg,1,2,f,5,24,324,20,f,1,0.599847589116,01,01,60.0122026902,PLT_learning_01,N,2014_Mrz_12_1446,P28,
stim_fb/ques.jpg,stim_fb/posf.jpg,stim_fb/negf.jpg,stim_01/f.jpg,stim_01/e.jpg,1,3,f,5,25,325,47,f,1,1.21635513116,01,01,60.0122026902,PLT_learning_01,N,2014_Mrz_12_1446,P28,
stim_fb/ques.jpg,stim_fb/negf.jpg,stim_fb/posf.jpg,stim_01/c.jpg,stim_01/d.jpg,2,2,j,5,26,326,33,j,1,0.633085065526,01,01,60.0122026902,PLT_learning_01,N,2014_Mrz_12_1446,P28,
stim_fb/ques.jpg,stim_fb/negf.jpg,stim_fb/posf.jpg,stim_01/a.jpg,stim_01/b.jpg,2,1,j,5,27,327,15,j,1,0.749794344403,01,01,60.0122026902,PLT_learning_01,N,2014_Mrz_12_1446,P28,
stim_fb/ques.jpg,stim_fb/negf.jpg,stim_fb/posf.jpg,stim_01/e.jpg,stim_01/f.jpg,2,3,j,5,28,328,55,j,1,0.516537253104,01,01,60.0122026902,PLT_learning_01,N,2014_Mrz_12_1446,P28,
stim_fb/ques.jpg,stim_fb/negf.jpg,stim_fb/posf.jpg,stim_01/c.jpg,stim_01/d.jpg,2,2,j,5,29,329,31,j,1,0.499878770836,01,01,60.0122026902,PLT_learning_01,N,2014_Mrz_12_1446,P28,
stim_fb/ques.jpg,stim_fb/negf.jpg,stim_fb/posf.jpg,stim_01/d.jpg,stim_01/c.jpg,1,2,f,5,30,330,25,j,0,0.833196682732,01,01,60.0122026902,PLT_learning_01,N,2014_Mrz_12_1446,P28,
stim_fb/ques.jpg,stim_fb/posf.jpg,stim_fb/negf.jpg,stim_01/d.jpg,stim_01/c.jpg,1,2,f,5,31,331,29,f,1,0.483233804257,01,01,60.0122026902,PLT_learning_01,N,2014_Mrz_12_1446,P28,
stim_fb/ques.jpg,stim_fb/negf.jpg,stim_fb/posf.jpg,stim_01/f.jpg,stim_01/e.jpg,1,3,f,5,32,332,44,f,1,0.599831883971,01,01,60.0122026902,PLT_learning_01,N,2014_Mrz_12_1446,P28,
stim_fb/ques.jpg,stim_fb/posf.jpg,stim_fb/negf.jpg,stim_01/e.jpg,stim_01/f.jpg,2,3,j,5,33,333,58,j,1,0.883148598882,01,01,60.0122026902,PLT_learning_01,N,2014_Mrz_12_1446,P28,
stim_fb/ques.jpg,stim_fb/negf.jpg,stim_fb/posf.jpg,stim_01/f.jpg,stim_01/e.jpg,1,3,f,5,34,334,41,f,1,0.449892241411,01,01,60.0122026902,PLT_learning_01,N,2014_Mrz_12_1446,P28,
stim_fb/ques.jpg,stim_fb/posf.jpg,stim_fb/negf.jpg,stim_01/c.jpg,stim_01/d.jpg,2,2,j,5,35,335,38,j,1,0.666424947181,01,01,60.0122026902,PLT_learning_01,N,2014_Mrz_12_1446,P28,
stim_fb/ques.jpg,stim_fb/negf.jpg,stim_fb/posf.jpg,stim_01/c.jpg,stim_01/d.jpg,2,2,j,5,36,336,30,j,1,1.0329980346,01,01,60.0122026902,PLT_learning_01,N,2014_Mrz_12_1446,P28,
stim_fb/ques.jpg,stim_fb/negf.jpg,stim_fb/posf.jpg,stim_01/b.jpg,stim_01/a.jpg,1,1,f,5,37,337,4,f,1,0.649824969737,01,01,60.0122026902,PLT_learning_01,N,2014_Mrz_12_1446,P28,
stim_fb/ques.jpg,stim_fb/negf.jpg,stim_fb/posf.jpg,stim_01/d.jpg,stim_01/c.jpg,1,2,f,5,38,338,26,f,1,0.783155864993,01,01,60.0122026902,PLT_learning_01,N,2014_Mrz_12_1446,P28,
stim_fb/ques.jpg,stim_fb/negf.jpg,stim_fb/posf.jpg,stim_01/e.jpg,stim_01/f.jpg,2,3,j,5,39,339,51,j,1,0.683154027413,01,01,60.0122026902,PLT_learning_01,N,2014_Mrz_12_1446,P28,
stim_fb/ques.jpg,stim_fb/negf.jpg,stim_fb/posf.jpg,stim_01/f.jpg,stim_01/e.jpg,1,3,f,5,40,340,45,f,1,0.583227049421,01,01,60.0122026902,PLT_learning_01,N,2014_Mrz_12_1446,P28,
stim_fb/ques.jpg,stim_fb/negf.jpg,stim_fb/posf.jpg,stim_01/a.jpg,stim_01/b.jpg,2,1,j,5,41,341,13,j,1,0.633173732528,01,01,60.0122026902,PLT_learning_01,N,2014_Mrz_12_1446,P28,
stim_fb/ques.jpg,stim_fb/negf.jpg,stim_fb/posf.jpg,stim_01/f.jpg,stim_01/e.jpg,1,3,f,5,42,342,42,f,1,0.583169780678,01,01,60.0122026902,PLT_learning_01,N,2014_Mrz_12_1446,P28,
stim_fb/ques.jpg,stim_fb/posf.jpg,stim_fb/negf.jpg,stim_01/a.jpg,stim_01/b.jpg,2,1,j,5,43,343,18,j,1,0.599841601191,01,01,60.0122026902,PLT_learning_01,N,2014_Mrz_12_1446,P28,
stim_fb/ques.jpg,stim_fb/negf.jpg,stim_fb/posf.jpg,stim_01/b.jpg,stim_01/a.jpg,1,1,f,5,44,344,6,f,1,0.833121988557,01,01,60.0122026902,PLT_learning_01,N,2014_Mrz_12_1446,P28,
stim_fb/ques.jpg,stim_fb/negf.jpg,stim_fb/posf.jpg,stim_01/d.jpg,stim_01/c.jpg,1,2,f,5,45,345,23,f,1,0.799793679746,01,01,60.0122026902,PLT_learning_01,N,2014_Mrz_12_1446,P28,
stim_fb/ques.jpg,stim_fb/negf.jpg,stim_fb/posf.jpg,stim_01/a.jpg,stim_01/b.jpg,2,1,j,5,46,346,12,j,1,0.749808488658,01,01,60.0122026902,PLT_learning_01,N,2014_Mrz_12_1446,P28,
stim_fb/ques.jpg,stim_fb/negf.jpg,stim_fb/posf.jpg,stim_01/e.jpg,stim_01/f.jpg,2,3,j,5,47,347,50,j,1,0.949750883076,01,01,60.0122026902,PLT_learning_01,N,2014_Mrz_12_1446,P28,
stim_fb/ques.jpg,stim_fb/posf.jpg,stim_fb/negf.jpg,stim_01/c.jpg,stim_01/d.jpg,2,2,j,5,48,348,39,j,1,0.949740263607,01,01,60.0122026902,PLT_learning_01,N,2014_Mrz_12_1446,P28,
stim_fb/ques.jpg,stim_fb/negf.jpg,stim_fb/posf.jpg,stim_01/f.jpg,stim_01/e.jpg,1,3,f,5,49,349,40,f,1,0.933084061023,01,01,60.0122026902,PLT_learning_01,N,2014_Mrz_12_1446,P28,
stim_fb/ques.jpg,stim_fb/negf.jpg,stim_fb/posf.jpg,stim_01/b.jpg,stim_01/a.jpg,1,1,f,5,50,350,3,f,1,1.31628146255,01,01,60.0122026902,PLT_learning_01,N,2014_Mrz_12_1446,P28,
stim_fb/ques.jpg,stim_fb/negf.jpg,stim_fb/posf.jpg,stim_01/d.jpg,stim_01/c.jpg,1,2,f,5,51,351,24,f,1,0.683143684634,01,01,60.0122026902,PLT_learning_01,N,2014_Mrz_12_1446,P28,
stim_fb/ques.jpg,stim_fb/negf.jpg,stim_fb/posf.jpg,stim_01/a.jpg,stim_01/b.jpg,2,1,j,5,52,352,16,j,1,0.71643568695,01,01,60.0122026902,PLT_learning_01,N,2014_Mrz_12_1446,P28,
stim_fb/ques.jpg,stim_fb/negf.jpg,stim_fb/posf.jpg,stim_01/d.jpg,stim_01/c.jpg,1,2,f,5,53,353,21,f,1,0.816444354553,01,01,60.0122026902,PLT_learning_01,N,2014_Mrz_12_1446,P28,
stim_fb/ques.jpg,stim_fb/posf.jpg,stim_fb/negf.jpg,stim_01/a.jpg,stim_01/b.jpg,2,1,j,5,54,354,19,j,1,1.01638864971,01,01,60.0122026902,PLT_learning_01,N,2014_Mrz_12_1446,P28,
stim_fb/ques.jpg,stim_fb/negf.jpg,stim_fb/posf.jpg,stim_01/e.jpg,stim_01/f.jpg,2,3,j,5,55,355,52,j,1,1.1496637499,01,01,60.0122026902,PLT_learning_01,N,2014_Mrz_12_1446,P28,
stim_fb/ques.jpg,stim_fb/negf.jpg,stim_fb/posf.jpg,stim_01/b.jpg,stim_01/a.jpg,1,1,f,5,56,356,1,f,1,0.566541283149,01,01,60.0122026902,PLT_learning_01,N,2014_Mrz_12_1446,P28,
stim_fb/ques.jpg,stim_fb/negf.jpg,stim_fb/posf.jpg,stim_01/e.jpg,stim_01/f.jpg,2,3,j,5,57,357,53,j,1,0.733140000451,01,01,60.0122026902,PLT_learning_01,N,2014_Mrz_12_1446,P28,
stim_fb/ques.jpg,stim_fb/posf.jpg,stim_fb/negf.jpg,stim_01/f.jpg,stim_01/e.jpg,1,3,f,5,58,358,46,f,1,0.533248381591,01,01,60.0122026902,PLT_learning_01,N,2014_Mrz_12_1446,P28,
stim_fb/ques.jpg,stim_fb/negf.jpg,stim_fb/posf.jpg,stim_01/a.jpg,stim_01/b.jpg,2,1,j,5,59,359,10,j,1,0.583183061782,01,01,60.0122026902,PLT_learning_01,N,2014_Mrz_12_1446,P28,
