Fb3,Fb2,Fb1,Symbol2,Symbol1,PosCond,Pair,Correct,trials.thisRepN,trials.thisTrialN,trials.thisN,trials.thisIndex,Response.keys,Response.corr,Response.rt,Version,Session Number,frameRate,expName,StimCondition,date,Participant,
stim_fb/ques.jpg,stim_fb/negf.jpg,stim_fb/posf.jpg,stim_02/a.jpg,stim_02/b.jpg,2,1,j,0,0,0,11,f,0,1.01637570244,02,01,60.0209904009,PLT_learning_02,N,2014_Mrz_12_1657,P29,
stim_fb/ques.jpg,stim_fb/posf.jpg,stim_fb/negf.jpg,stim_02/d.jpg,stim_02/c.jpg,1,2,f,0,1,1,28,j,0,0.749807956332,02,01,60.0209904009,PLT_learning_02,N,2014_Mrz_12_1657,P29,
stim_fb/ques.jpg,stim_fb/negf.jpg,stim_fb/posf.jpg,stim_02/c.jpg,stim_02/d.jpg,2,2,j,0,2,2,34,f,0,0.749778591138,02,01,60.0209904009,PLT_learning_02,N,2014_Mrz_12_1657,P29,
stim_fb/ques.jpg,stim_fb/negf.jpg,stim_fb/posf.jpg,stim_02/e.jpg,stim_02/f.jpg,2,3,j,0,3,3,52,j,1,0.799793102307,02,01,60.0209904009,PLT_learning_02,N,2014_Mrz_12_1657,P29,
stim_fb/ques.jpg,stim_fb/posf.jpg,stim_fb/negf.jpg,stim_02/a.jpg,stim_02/b.jpg,2,1,j,0,4,4,18,j,1,0.966401675176,02,01,60.0209904009,PLT_learning_02,N,2014_Mrz_12_1657,P29,
stim_fb/ques.jpg,stim_fb/posf.jpg,stim_fb/negf.jpg,stim_02/a.jpg,stim_02/b.jpg,2,1,j,0,5,5,19,j,1,1.16632113142,02,01,60.0209904009,PLT_learning_02,N,2014_Mrz_12_1657,P29,
stim_fb/ques.jpg,stim_fb/negf.jpg,stim_fb/posf.jpg,stim_02/a.jpg,stim_02/b.jpg,2,1,j,0,6,6,12,j,1,1.04956806941,02,01,60.0209904009,PLT_learning_02,N,2014_Mrz_12_1657,P29,
stim_fb/ques.jpg,stim_fb/posf.jpg,stim_fb/negf.jpg,stim_02/e.jpg,stim_02/f.jpg,2,3,j,0,7,7,56,j,1,0.899760299546,02,01,60.0209904009,PLT_learning_02,N,2014_Mrz_12_1657,P29,
stim_fb/ques.jpg,stim_fb/posf.jpg,stim_fb/negf.jpg,stim_02/f.jpg,stim_02/e.jpg,1,3,f,0,8,8,46,f,1,0.949731890736,02,01,60.0209904009,PLT_learning_02,N,2014_Mrz_12_1657,P29,
stim_fb/ques.jpg,stim_fb/negf.jpg,stim_fb/posf.jpg,stim_02/a.jpg,stim_02/b.jpg,2,1,j,0,9,9,13,f,0,0.716488787302,02,01,60.0209904009,PLT_learning_02,N,2014_Mrz_12_1657,P29,
stim_fb/ques.jpg,stim_fb/posf.jpg,stim_fb/negf.jpg,stim_02/c.jpg,stim_02/d.jpg,2,2,j,0,10,10,38,f,0,1.416260383,02,01,60.0209904009,PLT_learning_02,N,2014_Mrz_12_1657,P29,
stim_fb/ques.jpg,stim_fb/negf.jpg,stim_fb/posf.jpg,stim_02/e.jpg,stim_02/f.jpg,2,3,j,0,11,11,53,j,1,1.5661723987,02,01,60.0209904009,PLT_learning_02,N,2014_Mrz_12_1657,P29,
stim_fb/ques.jpg,stim_fb/posf.jpg,stim_fb/negf.jpg,stim_02/c.jpg,stim_02/d.jpg,2,2,j,0,12,12,39,f,0,1.31627309268,02,01,60.0209904009,PLT_learning_02,N,2014_Mrz_12_1657,P29,
stim_fb/ques.jpg,stim_fb/negf.jpg,stim_fb/posf.jpg,stim_02/a.jpg,stim_02/b.jpg,2,1,j,0,13,13,10,j,1,1.36625662664,02,01,60.0209904009,PLT_learning_02,N,2014_Mrz_12_1657,P29,
stim_fb/ques.jpg,stim_fb/posf.jpg,stim_fb/negf.jpg,stim_02/b.jpg,stim_02/a.jpg,1,1,f,0,14,14,9,f,1,1.13302804039,02,01,60.0209904009,PLT_learning_02,N,2014_Mrz_12_1657,P29,
stim_fb/ques.jpg,stim_fb/negf.jpg,stim_fb/posf.jpg,stim_02/b.jpg,stim_02/a.jpg,1,1,f,0,15,15,4,j,0,1.51622482839,02,01,60.0209904009,PLT_learning_02,N,2014_Mrz_12_1657,P29,
stim_fb/ques.jpg,stim_fb/negf.jpg,stim_fb/posf.jpg,stim_02/f.jpg,stim_02/e.jpg,1,3,f,0,16,16,42,f,1,1.36628231066,02,01,60.0209904009,PLT_learning_02,N,2014_Mrz_12_1657,P29,
stim_fb/ques.jpg,stim_fb/negf.jpg,stim_fb/posf.jpg,stim_02/f.jpg,stim_02/e.jpg,1,3,f,0,17,17,45,None,0,,02,01,60.0209904009,PLT_learning_02,N,2014_Mrz_12_1657,P29,
stim_fb/ques.jpg,stim_fb/negf.jpg,stim_fb/posf.jpg,stim_02/a.jpg,stim_02/b.jpg,2,1,j,0,18,18,17,j,1,0.866403175914,02,01,60.0209904009,PLT_learning_02,N,2014_Mrz_12_1657,P29,
stim_fb/ques.jpg,stim_fb/posf.jpg,stim_fb/negf.jpg,stim_02/e.jpg,stim_02/f.jpg,2,3,j,0,19,19,57,j,1,0.933088403848,02,01,60.0209904009,PLT_learning_02,N,2014_Mrz_12_1657,P29,
stim_fb/ques.jpg,stim_fb/negf.jpg,stim_fb/posf.jpg,stim_02/b.jpg,stim_02/a.jpg,1,1,f,0,20,20,0,f,1,0.916418763769,02,01,60.0209904009,PLT_learning_02,N,2014_Mrz_12_1657,P29,
stim_fb/ques.jpg,stim_fb/negf.jpg,stim_fb/posf.jpg,stim_02/f.jpg,stim_02/e.jpg,1,3,f,0,21,21,44,f,1,1.08300868415,02,01,60.0209904009,PLT_learning_02,N,2014_Mrz_12_1657,P29,
stim_fb/ques.jpg,stim_fb/negf.jpg,stim_fb/posf.jpg,stim_02/a.jpg,stim_02/b.jpg,2,1,j,0,22,22,16,j,1,0.799809947293,02,01,60.0209904009,PLT_learning_02,N,2014_Mrz_12_1657,P29,
stim_fb/ques.jpg,stim_fb/negf.jpg,stim_fb/posf.jpg,stim_02/f.jpg,stim_02/e.jpg,1,3,f,0,23,23,43,f,1,1.23300416388,02,01,60.0209904009,PLT_learning_02,N,2014_Mrz_12_1657,P29,
stim_fb/ques.jpg,stim_fb/posf.jpg,stim_fb/negf.jpg,stim_02/e.jpg,stim_02/f.jpg,2,3,j,0,24,24,58,j,1,0.849769643839,02,01,60.0209904009,PLT_learning_02,N,2014_Mrz_12_1657,P29,
stim_fb/ques.jpg,stim_fb/negf.jpg,stim_fb/posf.jpg,stim_02/b.jpg,stim_02/a.jpg,1,1,f,0,25,25,2,j,0,0.766462826594,02,01,60.0209904009,PLT_learning_02,N,2014_Mrz_12_1657,P29,
stim_fb/ques.jpg,stim_fb/negf.jpg,stim_fb/posf.jpg,stim_02/e.jpg,stim_02/f.jpg,2,3,j,0,26,26,50,j,1,1.06638778355,02,01,60.0209904009,PLT_learning_02,N,2014_Mrz_12_1657,P29,
stim_fb/ques.jpg,stim_fb/negf.jpg,stim_fb/posf.jpg,stim_02/b.jpg,stim_02/a.jpg,1,1,f,0,27,27,6,f,1,0.599858364974,02,01,60.0209904009,PLT_learning_02,N,2014_Mrz_12_1657,P29,
stim_fb/ques.jpg,stim_fb/negf.jpg,stim_fb/posf.jpg,stim_02/c.jpg,stim_02/d.jpg,2,2,j,0,28,28,30,f,0,1.11634097187,02,01,60.0209904009,PLT_learning_02,N,2014_Mrz_12_1657,P29,
stim_fb/ques.jpg,stim_fb/negf.jpg,stim_fb/posf.jpg,stim_02/d.jpg,stim_02/c.jpg,1,2,f,0,29,29,23,j,0,0.716461590515,02,01,60.0209904009,PLT_learning_02,N,2014_Mrz_12_1657,P29,
stim_fb/ques.jpg,stim_fb/posf.jpg,stim_fb/negf.jpg,stim_02/d.jpg,stim_02/c.jpg,1,2,f,0,30,30,27,j,0,0.716478104676,02,01,60.0209904009,PLT_learning_02,N,2014_Mrz_12_1657,P29,
stim_fb/ques.jpg,stim_fb/negf.jpg,stim_fb/posf.jpg,stim_02/d.jpg,stim_02/c.jpg,1,2,f,0,31,31,20,j,0,1.13301888858,02,01,60.0209904009,PLT_learning_02,N,2014_Mrz_12_1657,P29,
stim_fb/ques.jpg,stim_fb/negf.jpg,stim_fb/posf.jpg,stim_02/e.jpg,stim_02/f.jpg,2,3,j,0,32,32,54,f,0,1.29960981947,02,01,60.0209904009,PLT_learning_02,N,2014_Mrz_12_1657,P29,
stim_fb/ques.jpg,stim_fb/posf.jpg,stim_fb/negf.jpg,stim_02/f.jpg,stim_02/e.jpg,1,3,f,0,33,33,47,j,0,1.5161975534,02,01,60.0209904009,PLT_learning_02,N,2014_Mrz_12_1657,P29,
stim_fb/ques.jpg,stim_fb/negf.jpg,stim_fb/posf.jpg,stim_02/c.jpg,stim_02/d.jpg,2,2,j,0,34,34,33,j,1,1.41624568537,02,01,60.0209904009,PLT_learning_02,N,2014_Mrz_12_1657,P29,
stim_fb/ques.jpg,stim_fb/negf.jpg,stim_fb/posf.jpg,stim_02/e.jpg,stim_02/f.jpg,2,3,j,0,35,35,51,f,0,1.36623106894,02,01,60.0209904009,PLT_learning_02,N,2014_Mrz_12_1657,P29,
stim_fb/ques.jpg,stim_fb/negf.jpg,stim_fb/posf.jpg,stim_02/b.jpg,stim_02/a.jpg,1,1,f,0,36,36,3,None,0,,02,01,60.0209904009,PLT_learning_02,N,2014_Mrz_12_1657,P29,
stim_fb/ques.jpg,stim_fb/posf.jpg,stim_fb/negf.jpg,stim_02/f.jpg,stim_02/e.jpg,1,3,f,0,37,37,48,j,0,1.24967107315,02,01,60.0209904009,PLT_learning_02,N,2014_Mrz_12_1657,P29,
stim_fb/ques.jpg,stim_fb/negf.jpg,stim_fb/posf.jpg,stim_02/d.jpg,stim_02/c.jpg,1,2,f,0,38,38,22,j,0,1.0663222863,02,01,60.0209904009,PLT_learning_02,N,2014_Mrz_12_1657,P29,
stim_fb/ques.jpg,stim_fb/negf.jpg,stim_fb/posf.jpg,stim_02/c.jpg,stim_02/d.jpg,2,2,j,0,39,39,31,f,0,1.38292955091,02,01,60.0209904009,PLT_learning_02,N,2014_Mrz_12_1657,P29,
stim_fb/ques.jpg,stim_fb/posf.jpg,stim_fb/negf.jpg,stim_02/f.jpg,stim_02/e.jpg,1,3,f,0,40,40,49,j,0,1.13303179074,02,01,60.0209904009,PLT_learning_02,N,2014_Mrz_12_1657,P29,
stim_fb/ques.jpg,stim_fb/negf.jpg,stim_fb/posf.jpg,stim_02/b.jpg,stim_02/a.jpg,1,1,f,0,41,41,7,j,0,1.13296950549,02,01,60.0209904009,PLT_learning_02,N,2014_Mrz_12_1657,P29,
stim_fb/ques.jpg,stim_fb/posf.jpg,stim_fb/negf.jpg,stim_02/e.jpg,stim_02/f.jpg,2,3,j,0,42,42,59,f,0,0.833106361606,02,01,60.0209904009,PLT_learning_02,N,2014_Mrz_12_1657,P29,
stim_fb/ques.jpg,stim_fb/negf.jpg,stim_fb/posf.jpg,stim_02/a.jpg,stim_02/b.jpg,2,1,j,0,43,43,14,f,0,1.08298735799,02,01,60.0209904009,PLT_learning_02,N,2014_Mrz_12_1657,P29,
stim_fb/ques.jpg,stim_fb/negf.jpg,stim_fb/posf.jpg,stim_02/d.jpg,stim_02/c.jpg,1,2,f,0,44,44,21,j,0,0.966413654032,02,01,60.0209904009,PLT_learning_02,N,2014_Mrz_12_1657,P29,
stim_fb/ques.jpg,stim_fb/negf.jpg,stim_fb/posf.jpg,stim_02/d.jpg,stim_02/c.jpg,1,2,f,0,45,45,24,f,1,1.23298427531,02,01,60.0209904009,PLT_learning_02,N,2014_Mrz_12_1657,P29,
stim_fb/ques.jpg,stim_fb/negf.jpg,stim_fb/posf.jpg,stim_02/d.jpg,stim_02/c.jpg,1,2,f,0,46,46,26,j,0,0.999715707401,02,01,60.0209904009,PLT_learning_02,N,2014_Mrz_12_1657,P29,
stim_fb/ques.jpg,stim_fb/negf.jpg,stim_fb/posf.jpg,stim_02/a.jpg,stim_02/b.jpg,2,1,j,0,47,47,15,j,1,1.28292965015,02,01,60.0209904009,PLT_learning_02,N,2014_Mrz_12_1657,P29,
stim_fb/ques.jpg,stim_fb/negf.jpg,stim_fb/posf.jpg,stim_02/d.jpg,stim_02/c.jpg,1,2,f,0,48,48,25,f,1,1.13300767363,02,01,60.0209904009,PLT_learning_02,N,2014_Mrz_12_1657,P29,
stim_fb/ques.jpg,stim_fb/posf.jpg,stim_fb/negf.jpg,stim_02/d.jpg,stim_02/c.jpg,1,2,f,0,49,49,29,j,0,1.21630622025,02,01,60.0209904009,PLT_learning_02,N,2014_Mrz_12_1657,P29,
stim_fb/ques.jpg,stim_fb/negf.jpg,stim_fb/posf.jpg,stim_02/c.jpg,stim_02/d.jpg,2,2,j,0,50,50,35,j,1,0.866464676206,02,01,60.0209904009,PLT_learning_02,N,2014_Mrz_12_1657,P29,
stim_fb/ques.jpg,stim_fb/negf.jpg,stim_fb/posf.jpg,stim_02/c.jpg,stim_02/d.jpg,2,2,j,0,51,51,32,j,1,0.783104090946,02,01,60.0209904009,PLT_learning_02,N,2014_Mrz_12_1657,P29,
stim_fb/ques.jpg,stim_fb/posf.jpg,stim_fb/negf.jpg,stim_02/b.jpg,stim_02/a.jpg,1,1,f,0,52,52,8,j,0,0.783118863767,02,01,60.0209904009,PLT_learning_02,N,2014_Mrz_12_1657,P29,
stim_fb/ques.jpg,stim_fb/posf.jpg,stim_fb/negf.jpg,stim_02/c.jpg,stim_02/d.jpg,2,2,j,0,53,53,37,j,1,0.533212908174,02,01,60.0209904009,PLT_learning_02,N,2014_Mrz_12_1657,P29,
stim_fb/ques.jpg,stim_fb/negf.jpg,stim_fb/posf.jpg,stim_02/e.jpg,stim_02/f.jpg,2,3,j,0,54,54,55,f,0,0.833112505921,02,01,60.0209904009,PLT_learning_02,N,2014_Mrz_12_1657,P29,
stim_fb/ques.jpg,stim_fb/negf.jpg,stim_fb/posf.jpg,stim_02/b.jpg,stim_02/a.jpg,1,1,f,0,55,55,5,f,1,1.16632540808,02,01,60.0209904009,PLT_learning_02,N,2014_Mrz_12_1657,P29,
stim_fb/ques.jpg,stim_fb/negf.jpg,stim_fb/posf.jpg,stim_02/f.jpg,stim_02/e.jpg,1,3,f,0,56,56,41,f,1,0.79982589003,02,01,60.0209904009,PLT_learning_02,N,2014_Mrz_12_1657,P29,
stim_fb/ques.jpg,stim_fb/negf.jpg,stim_fb/posf.jpg,stim_02/c.jpg,stim_02/d.jpg,2,2,j,0,57,57,36,f,0,0.499881249014,02,01,60.0209904009,PLT_learning_02,N,2014_Mrz_12_1657,P29,
stim_fb/ques.jpg,stim_fb/negf.jpg,stim_fb/posf.jpg,stim_02/b.jpg,stim_02/a.jpg,1,1,f,0,58,58,1,f,1,1.11633832828,02,01,60.0209904009,PLT_learning_02,N,2014_Mrz_12_1657,P29,
stim_fb/ques.jpg,stim_fb/negf.jpg,stim_fb/posf.jpg,stim_02/f.jpg,stim_02/e.jpg,1,3,f,0,59,59,40,f,1,0.883087949715,02,01,60.0209904009,PLT_learning_02,N,2014_Mrz_12_1657,P29,
stim_fb/ques.jpg,stim_fb/negf.jpg,stim_fb/posf.jpg,stim_02/f.jpg,stim_02/e.jpg,1,3,f,1,0,60,45,f,1,0.749789791054,02,01,60.0209904009,PLT_learning_02,N,2014_Mrz_12_1657,P29,
stim_fb/ques.jpg,stim_fb/posf.jpg,stim_fb/negf.jpg,stim_02/d.jpg,stim_02/c.jpg,1,2,f,1,1,61,27,j,0,0.783136932805,02,01,60.0209904009,PLT_learning_02,N,2014_Mrz_12_1657,P29,
stim_fb/ques.jpg,stim_fb/posf.jpg,stim_fb/negf.jpg,stim_02/c.jpg,stim_02/d.jpg,2,2,j,1,2,62,39,f,0,0.98305743265,02,01,60.0209904009,PLT_learning_02,N,2014_Mrz_12_1657,P29,
stim_fb/ques.jpg,stim_fb/negf.jpg,stim_fb/posf.jpg,stim_02/c.jpg,stim_02/d.jpg,2,2,j,1,3,63,33,f,0,0.533160331124,02,01,60.0209904009,PLT_learning_02,N,2014_Mrz_12_1657,P29,
stim_fb/ques.jpg,stim_fb/negf.jpg,stim_fb/posf.jpg,stim_02/c.jpg,stim_02/d.jpg,2,2,j,1,4,64,30,f,0,0.89978231442,02,01,60.0209904009,PLT_learning_02,N,2014_Mrz_12_1657,P29,
stim_fb/ques.jpg,stim_fb/negf.jpg,stim_fb/posf.jpg,stim_02/b.jpg,stim_02/a.jpg,1,1,f,1,5,65,6,f,1,1.14966257998,02,01,60.0209904009,PLT_learning_02,N,2014_Mrz_12_1657,P29,
stim_fb/ques.jpg,stim_fb/negf.jpg,stim_fb/posf.jpg,stim_02/d.jpg,stim_02/c.jpg,1,2,f,1,6,66,26,f,1,1.19969630003,02,01,60.0209904009,PLT_learning_02,N,2014_Mrz_12_1657,P29,
stim_fb/ques.jpg,stim_fb/negf.jpg,stim_fb/posf.jpg,stim_02/f.jpg,stim_02/e.jpg,1,3,f,1,7,67,40,f,1,1.01636790701,02,01,60.0209904009,PLT_learning_02,N,2014_Mrz_12_1657,P29,
stim_fb/ques.jpg,stim_fb/negf.jpg,stim_fb/posf.jpg,stim_02/b.jpg,stim_02/a.jpg,1,1,f,1,8,68,1,j,0,0.98307266562,02,01,60.0209904009,PLT_learning_02,N,2014_Mrz_12_1657,P29,
stim_fb/ques.jpg,stim_fb/posf.jpg,stim_fb/negf.jpg,stim_02/a.jpg,stim_02/b.jpg,2,1,j,1,9,69,18,j,1,1.43291264577,02,01,60.0209904009,PLT_learning_02,N,2014_Mrz_12_1657,P29,
stim_fb/ques.jpg,stim_fb/posf.jpg,stim_fb/negf.jpg,stim_02/d.jpg,stim_02/c.jpg,1,2,f,1,10,70,29,j,0,0.966407296186,02,01,60.0209904009,PLT_learning_02,N,2014_Mrz_12_1657,P29,
stim_fb/ques.jpg,stim_fb/negf.jpg,stim_fb/posf.jpg,stim_02/b.jpg,stim_02/a.jpg,1,1,f,1,11,71,5,j,0,0.916413783356,02,01,60.0209904009,PLT_learning_02,N,2014_Mrz_12_1657,P29,
stim_fb/ques.jpg,stim_fb/negf.jpg,stim_fb/posf.jpg,stim_02/c.jpg,stim_02/d.jpg,2,2,j,1,12,72,35,f,0,0.866436911001,02,01,60.0209904009,PLT_learning_02,N,2014_Mrz_12_1657,P29,
stim_fb/ques.jpg,stim_fb/posf.jpg,stim_fb/negf.jpg,stim_02/f.jpg,stim_02/e.jpg,1,3,f,1,13,73,47,f,1,1.16630648491,02,01,60.0209904009,PLT_learning_02,N,2014_Mrz_12_1657,P29,
stim_fb/ques.jpg,stim_fb/posf.jpg,stim_fb/negf.jpg,stim_02/f.jpg,stim_02/e.jpg,1,3,f,1,14,74,49,f,1,1.08303056368,02,01,60.0209904009,PLT_learning_02,N,2014_Mrz_12_1657,P29,
stim_fb/ques.jpg,stim_fb/negf.jpg,stim_fb/posf.jpg,stim_02/b.jpg,stim_02/a.jpg,1,1,f,1,15,75,3,f,1,0.866441476381,02,01,60.0209904009,PLT_learning_02,N,2014_Mrz_12_1657,P29,
stim_fb/ques.jpg,stim_fb/negf.jpg,stim_fb/posf.jpg,stim_02/f.jpg,stim_02/e.jpg,1,3,f,1,16,76,44,j,0,1.19965472139,02,01,60.0209904009,PLT_learning_02,N,2014_Mrz_12_1657,P29,
stim_fb/ques.jpg,stim_fb/negf.jpg,stim_fb/posf.jpg,stim_02/a.jpg,stim_02/b.jpg,2,1,j,1,17,77,15,j,1,0.716493581251,02,01,60.0209904009,PLT_learning_02,N,2014_Mrz_12_1657,P29,
stim_fb/ques.jpg,stim_fb/posf.jpg,stim_fb/negf.jpg,stim_02/c.jpg,stim_02/d.jpg,2,2,j,1,18,78,37,f,0,0.866431689989,02,01,60.0209904009,PLT_learning_02,N,2014_Mrz_12_1657,P29,
stim_fb/ques.jpg,stim_fb/negf.jpg,stim_fb/posf.jpg,stim_02/a.jpg,stim_02/b.jpg,2,1,j,1,19,79,14,j,1,1.04965964466,02,01,60.0209904009,PLT_learning_02,N,2014_Mrz_12_1657,P29,
stim_fb/ques.jpg,stim_fb/posf.jpg,stim_fb/negf.jpg,stim_02/c.jpg,stim_02/d.jpg,2,2,j,1,20,80,38,f,0,0.783097603777,02,01,60.0209904009,PLT_learning_02,N,2014_Mrz_12_1657,P29,
stim_fb/ques.jpg,stim_fb/negf.jpg,stim_fb/posf.jpg,stim_02/d.jpg,stim_02/c.jpg,1,2,f,1,21,81,25,j,0,1.03304576056,02,01,60.0209904009,PLT_learning_02,N,2014_Mrz_12_1657,P29,
stim_fb/ques.jpg,stim_fb/posf.jpg,stim_fb/negf.jpg,stim_02/e.jpg,stim_02/f.jpg,2,3,j,1,22,82,59,j,1,0.866449295871,02,01,60.0209904009,PLT_learning_02,N,2014_Mrz_12_1657,P29,
stim_fb/ques.jpg,stim_fb/negf.jpg,stim_fb/posf.jpg,stim_02/f.jpg,stim_02/e.jpg,1,3,f,1,23,83,42,j,0,0.999722056225,02,01,60.0209904009,PLT_learning_02,N,2014_Mrz_12_1657,P29,
stim_fb/ques.jpg,stim_fb/negf.jpg,stim_fb/posf.jpg,stim_02/b.jpg,stim_02/a.jpg,1,1,f,1,24,84,7,f,1,0.716446974082,02,01,60.0209904009,PLT_learning_02,N,2014_Mrz_12_1657,P29,
stim_fb/ques.jpg,stim_fb/negf.jpg,stim_fb/posf.jpg,stim_02/a.jpg,stim_02/b.jpg,2,1,j,1,25,85,13,j,1,0.749804374404,02,01,60.0209904009,PLT_learning_02,N,2014_Mrz_12_1657,P29,
stim_fb/ques.jpg,stim_fb/negf.jpg,stim_fb/posf.jpg,stim_02/a.jpg,stim_02/b.jpg,2,1,j,1,26,86,10,f,0,1.06640961797,02,01,60.0209904009,PLT_learning_02,N,2014_Mrz_12_1657,P29,
stim_fb/ques.jpg,stim_fb/negf.jpg,stim_fb/posf.jpg,stim_02/e.jpg,stim_02/f.jpg,2,3,j,1,27,87,52,j,1,0.899756452958,02,01,60.0209904009,PLT_learning_02,N,2014_Mrz_12_1657,P29,
stim_fb/ques.jpg,stim_fb/negf.jpg,stim_fb/posf.jpg,stim_02/d.jpg,stim_02/c.jpg,1,2,f,1,28,88,23,j,0,0.949736113262,02,01,60.0209904009,PLT_learning_02,N,2014_Mrz_12_1657,P29,
stim_fb/ques.jpg,stim_fb/negf.jpg,stim_fb/posf.jpg,stim_02/e.jpg,stim_02/f.jpg,2,3,j,1,29,89,50,j,1,0.89974997782,02,01,60.0209904009,PLT_learning_02,N,2014_Mrz_12_1657,P29,
stim_fb/ques.jpg,stim_fb/negf.jpg,stim_fb/posf.jpg,stim_02/c.jpg,stim_02/d.jpg,2,2,j,1,30,90,36,f,0,0.783118030691,02,01,60.0209904009,PLT_learning_02,N,2014_Mrz_12_1657,P29,
stim_fb/ques.jpg,stim_fb/negf.jpg,stim_fb/posf.jpg,stim_02/c.jpg,stim_02/d.jpg,2,2,j,1,31,91,31,f,0,0.566501403748,02,01,60.0209904009,PLT_learning_02,N,2014_Mrz_12_1657,P29,
stim_fb/ques.jpg,stim_fb/posf.jpg,stim_fb/negf.jpg,stim_02/d.jpg,stim_02/c.jpg,1,2,f,1,32,92,28,j,0,1.1830093488,02,01,60.0209904009,PLT_learning_02,N,2014_Mrz_12_1657,P29,
stim_fb/ques.jpg,stim_fb/posf.jpg,stim_fb/negf.jpg,stim_02/b.jpg,stim_02/a.jpg,1,1,f,1,33,93,9,j,0,0.966406225516,02,01,60.0209904009,PLT_learning_02,N,2014_Mrz_12_1657,P29,
stim_fb/ques.jpg,stim_fb/negf.jpg,stim_fb/posf.jpg,stim_02/b.jpg,stim_02/a.jpg,1,1,f,1,34,94,0,f,1,1.4995689476,02,01,60.0209904009,PLT_learning_02,N,2014_Mrz_12_1657,P29,
stim_fb/ques.jpg,stim_fb/negf.jpg,stim_fb/posf.jpg,stim_02/d.jpg,stim_02/c.jpg,1,2,f,1,35,95,20,f,1,1.34960468568,02,01,60.0209904009,PLT_learning_02,N,2014_Mrz_12_1657,P29,
stim_fb/ques.jpg,stim_fb/negf.jpg,stim_fb/posf.jpg,stim_02/d.jpg,stim_02/c.jpg,1,2,f,1,36,96,21,f,1,0.733100647363,02,01,60.0209904009,PLT_learning_02,N,2014_Mrz_12_1657,P29,
stim_fb/ques.jpg,stim_fb/negf.jpg,stim_fb/posf.jpg,stim_02/d.jpg,stim_02/c.jpg,1,2,f,1,37,97,24,f,1,0.749789803085,02,01,60.0209904009,PLT_learning_02,N,2014_Mrz_12_1657,P29,
stim_fb/ques.jpg,stim_fb/negf.jpg,stim_fb/posf.jpg,stim_02/c.jpg,stim_02/d.jpg,2,2,j,1,38,98,32,f,0,1.38295143646,02,01,60.0209904009,PLT_learning_02,N,2014_Mrz_12_1657,P29,
stim_fb/ques.jpg,stim_fb/negf.jpg,stim_fb/posf.jpg,stim_02/d.jpg,stim_02/c.jpg,1,2,f,1,39,99,22,f,1,1.43295298832,02,01,60.0209904009,PLT_learning_02,N,2014_Mrz_12_1657,P29,
stim_fb/ques.jpg,stim_fb/negf.jpg,stim_fb/posf.jpg,stim_02/a.jpg,stim_02/b.jpg,2,1,j,1,40,100,12,j,1,1.11638157909,02,01,60.0209904009,PLT_learning_02,N,2014_Mrz_12_1657,P29,
stim_fb/ques.jpg,stim_fb/negf.jpg,stim_fb/posf.jpg,stim_02/e.jpg,stim_02/f.jpg,2,3,j,1,41,101,51,f,0,1.41620097894,02,01,60.0209904009,PLT_learning_02,N,2014_Mrz_12_1657,P29,
stim_fb/ques.jpg,stim_fb/posf.jpg,stim_fb/negf.jpg,stim_02/e.jpg,stim_02/f.jpg,2,3,j,1,42,102,56,j,1,0.766501208262,02,01,60.0209904009,PLT_learning_02,N,2014_Mrz_12_1657,P29,
stim_fb/ques.jpg,stim_fb/negf.jpg,stim_fb/posf.jpg,stim_02/a.jpg,stim_02/b.jpg,2,1,j,1,43,103,17,j,1,1.08300928564,02,01,60.0209904009,PLT_learning_02,N,2014_Mrz_12_1657,P29,
stim_fb/ques.jpg,stim_fb/negf.jpg,stim_fb/posf.jpg,stim_02/f.jpg,stim_02/e.jpg,1,3,f,1,44,104,43,j,0,1.16637960617,02,01,60.0209904009,PLT_learning_02,N,2014_Mrz_12_1657,P29,
stim_fb/ques.jpg,stim_fb/posf.jpg,stim_fb/negf.jpg,stim_02/f.jpg,stim_02/e.jpg,1,3,f,1,45,105,48,f,1,1.0163677837,02,01,60.0209904009,PLT_learning_02,N,2014_Mrz_12_1657,P29,
stim_fb/ques.jpg,stim_fb/negf.jpg,stim_fb/posf.jpg,stim_02/e.jpg,stim_02/f.jpg,2,3,j,1,46,106,55,f,0,1.33294682897,02,01,60.0209904009,PLT_learning_02,N,2014_Mrz_12_1657,P29,
stim_fb/ques.jpg,stim_fb/negf.jpg,stim_fb/posf.jpg,stim_02/f.jpg,stim_02/e.jpg,1,3,f,1,47,107,41,f,1,1.28272081263,02,01,60.0209904009,PLT_learning_02,N,2014_Mrz_12_1657,P29,
stim_fb/ques.jpg,stim_fb/negf.jpg,stim_fb/posf.jpg,stim_02/e.jpg,stim_02/f.jpg,2,3,j,1,48,108,54,j,1,1.16634068917,02,01,60.0209904009,PLT_learning_02,N,2014_Mrz_12_1657,P29,
stim_fb/ques.jpg,stim_fb/posf.jpg,stim_fb/negf.jpg,stim_02/a.jpg,stim_02/b.jpg,2,1,j,1,49,109,19,j,1,0.899760076993,02,01,60.0209904009,PLT_learning_02,N,2014_Mrz_12_1657,P29,
stim_fb/ques.jpg,stim_fb/negf.jpg,stim_fb/posf.jpg,stim_02/a.jpg,stim_02/b.jpg,2,1,j,1,50,110,16,j,1,0.699825709582,02,01,60.0209904009,PLT_learning_02,N,2014_Mrz_12_1657,P29,
stim_fb/ques.jpg,stim_fb/posf.jpg,stim_fb/negf.jpg,stim_02/b.jpg,stim_02/a.jpg,1,1,f,1,51,111,8,f,1,0.699833273433,02,01,60.0209904009,PLT_learning_02,N,2014_Mrz_12_1657,P29,
stim_fb/ques.jpg,stim_fb/posf.jpg,stim_fb/negf.jpg,stim_02/e.jpg,stim_02/f.jpg,2,3,j,1,52,112,57,j,1,1.11638747979,02,01,60.0209904009,PLT_learning_02,N,2014_Mrz_12_1657,P29,
stim_fb/ques.jpg,stim_fb/posf.jpg,stim_fb/negf.jpg,stim_02/f.jpg,stim_02/e.jpg,1,3,f,1,53,113,46,j,0,1.59953103511,02,01,60.0209904009,PLT_learning_02,N,2014_Mrz_12_1657,P29,
stim_fb/ques.jpg,stim_fb/negf.jpg,stim_fb/posf.jpg,stim_02/e.jpg,stim_02/f.jpg,2,3,j,1,54,114,53,f,0,0.98304504778,02,01,60.0209904009,PLT_learning_02,N,2014_Mrz_12_1657,P29,
stim_fb/ques.jpg,stim_fb/negf.jpg,stim_fb/posf.jpg,stim_02/c.jpg,stim_02/d.jpg,2,2,j,1,55,115,34,f,0,0.716503493959,02,01,60.0209904009,PLT_learning_02,N,2014_Mrz_12_1657,P29,
stim_fb/ques.jpg,stim_fb/negf.jpg,stim_fb/posf.jpg,stim_02/a.jpg,stim_02/b.jpg,2,1,j,1,56,116,11,j,1,1.0163821054,02,01,60.0209904009,PLT_learning_02,N,2014_Mrz_12_1657,P29,
stim_fb/ques.jpg,stim_fb/posf.jpg,stim_fb/negf.jpg,stim_02/e.jpg,stim_02/f.jpg,2,3,j,1,57,117,58,f,0,1.26631446981,02,01,60.0209904009,PLT_learning_02,N,2014_Mrz_12_1657,P29,
stim_fb/ques.jpg,stim_fb/negf.jpg,stim_fb/posf.jpg,stim_02/b.jpg,stim_02/a.jpg,1,1,f,1,58,118,2,j,0,1.43296715965,02,01,60.0209904009,PLT_learning_02,N,2014_Mrz_12_1657,P29,
stim_fb/ques.jpg,stim_fb/negf.jpg,stim_fb/posf.jpg,stim_02/b.jpg,stim_02/a.jpg,1,1,f,1,59,119,4,f,1,0.749804867633,02,01,60.0209904009,PLT_learning_02,N,2014_Mrz_12_1657,P29,
stim_fb/ques.jpg,stim_fb/negf.jpg,stim_fb/posf.jpg,stim_02/f.jpg,stim_02/e.jpg,1,3,f,2,0,120,42,j,0,1.14969024895,02,01,60.0209904009,PLT_learning_02,N,2014_Mrz_12_1657,P29,
stim_fb/ques.jpg,stim_fb/posf.jpg,stim_fb/negf.jpg,stim_02/e.jpg,stim_02/f.jpg,2,3,j,2,1,121,58,j,1,0.949764976203,02,01,60.0209904009,PLT_learning_02,N,2014_Mrz_12_1657,P29,
stim_fb/ques.jpg,stim_fb/posf.jpg,stim_fb/negf.jpg,stim_02/f.jpg,stim_02/e.jpg,1,3,f,2,2,122,48,f,1,0.649806217998,02,01,60.0209904009,PLT_learning_02,N,2014_Mrz_12_1657,P29,
stim_fb/ques.jpg,stim_fb/posf.jpg,stim_fb/negf.jpg,stim_02/e.jpg,stim_02/f.jpg,2,3,j,2,3,123,57,f,0,1.39958929331,02,01,60.0209904009,PLT_learning_02,N,2014_Mrz_12_1657,P29,
stim_fb/ques.jpg,stim_fb/posf.jpg,stim_fb/negf.jpg,stim_02/a.jpg,stim_02/b.jpg,2,1,j,2,4,124,19,j,1,0.766458790535,02,01,60.0209904009,PLT_learning_02,N,2014_Mrz_12_1657,P29,
stim_fb/ques.jpg,stim_fb/posf.jpg,stim_fb/negf.jpg,stim_02/e.jpg,stim_02/f.jpg,2,3,j,2,5,125,56,j,1,0.866442270359,02,01,60.0209904009,PLT_learning_02,N,2014_Mrz_12_1657,P29,
stim_fb/ques.jpg,stim_fb/negf.jpg,stim_fb/posf.jpg,stim_02/f.jpg,stim_02/e.jpg,1,3,f,2,6,126,40,f,1,1.14968217983,02,01,60.0209904009,PLT_learning_02,N,2014_Mrz_12_1657,P29,
stim_fb/ques.jpg,stim_fb/negf.jpg,stim_fb/posf.jpg,stim_02/d.jpg,stim_02/c.jpg,1,2,f,2,7,127,21,j,0,0.899764973195,02,01,60.0209904009,PLT_learning_02,N,2014_Mrz_12_1657,P29,
stim_fb/ques.jpg,stim_fb/negf.jpg,stim_fb/posf.jpg,stim_02/f.jpg,stim_02/e.jpg,1,3,f,2,8,128,43,f,1,1.28302757423,02,01,60.0209904009,PLT_learning_02,N,2014_Mrz_12_1657,P29,
stim_fb/ques.jpg,stim_fb/negf.jpg,stim_fb/posf.jpg,stim_02/d.jpg,stim_02/c.jpg,1,2,f,2,9,129,23,j,0,0.733160442402,02,01,60.0209904009,PLT_learning_02,N,2014_Mrz_12_1657,P29,
stim_fb/ques.jpg,stim_fb/negf.jpg,stim_fb/posf.jpg,stim_02/a.jpg,stim_02/b.jpg,2,1,j,2,10,130,17,j,1,0.783260414582,02,01,60.0209904009,PLT_learning_02,N,2014_Mrz_12_1657,P29,
stim_fb/ques.jpg,stim_fb/negf.jpg,stim_fb/posf.jpg,stim_02/b.jpg,stim_02/a.jpg,1,1,f,2,11,131,2,j,0,1.09965560259,02,01,60.0209904009,PLT_learning_02,N,2014_Mrz_12_1657,P29,
stim_fb/ques.jpg,stim_fb/posf.jpg,stim_fb/negf.jpg,stim_02/e.jpg,stim_02/f.jpg,2,3,j,2,12,132,59,j,1,0.983043889895,02,01,60.0209904009,PLT_learning_02,N,2014_Mrz_12_1657,P29,
stim_fb/ques.jpg,stim_fb/negf.jpg,stim_fb/posf.jpg,stim_02/f.jpg,stim_02/e.jpg,1,3,f,2,13,133,41,j,0,0.366603195464,02,01,60.0209904009,PLT_learning_02,N,2014_Mrz_12_1657,P29,
stim_fb/ques.jpg,stim_fb/posf.jpg,stim_fb/negf.jpg,stim_02/b.jpg,stim_02/a.jpg,1,1,f,2,14,134,9,j,0,1.29961101947,02,01,60.0209904009,PLT_learning_02,N,2014_Mrz_12_1657,P29,
stim_fb/ques.jpg,stim_fb/negf.jpg,stim_fb/posf.jpg,stim_02/d.jpg,stim_02/c.jpg,1,2,f,2,15,135,22,j,0,0.816429052413,02,01,60.0209904009,PLT_learning_02,N,2014_Mrz_12_1657,P29,
stim_fb/ques.jpg,stim_fb/negf.jpg,stim_fb/posf.jpg,stim_02/a.jpg,stim_02/b.jpg,2,1,j,2,16,136,15,j,1,0.616538708731,02,01,60.0209904009,PLT_learning_02,N,2014_Mrz_12_1657,P29,
stim_fb/ques.jpg,stim_fb/negf.jpg,stim_fb/posf.jpg,stim_02/b.jpg,stim_02/a.jpg,1,1,f,2,17,137,7,f,1,0.516406682656,02,01,60.0209904009,PLT_learning_02,N,2014_Mrz_12_1657,P29,
stim_fb/ques.jpg,stim_fb/posf.jpg,stim_fb/negf.jpg,stim_02/f.jpg,stim_02/e.jpg,1,3,f,2,18,138,49,f,1,0.916404604477,02,01,60.0209904009,PLT_learning_02,N,2014_Mrz_12_1657,P29,
stim_fb/ques.jpg,stim_fb/negf.jpg,stim_fb/posf.jpg,stim_02/e.jpg,stim_02/f.jpg,2,3,j,2,19,139,54,f,0,0.966405792436,02,01,60.0209904009,PLT_learning_02,N,2014_Mrz_12_1657,P29,
stim_fb/ques.jpg,stim_fb/posf.jpg,stim_fb/negf.jpg,stim_02/f.jpg,stim_02/e.jpg,1,3,f,2,20,140,47,f,1,1.04971054353,02,01,60.0209904009,PLT_learning_02,N,2014_Mrz_12_1657,P29,
stim_fb/ques.jpg,stim_fb/posf.jpg,stim_fb/negf.jpg,stim_02/c.jpg,stim_02/d.jpg,2,2,j,2,21,141,39,f,0,0.849780281351,02,01,60.0209904009,PLT_learning_02,N,2014_Mrz_12_1657,P29,
stim_fb/ques.jpg,stim_fb/posf.jpg,stim_fb/negf.jpg,stim_02/d.jpg,stim_02/c.jpg,1,2,f,2,22,142,28,j,0,0.733148613919,02,01,60.0209904009,PLT_learning_02,N,2014_Mrz_12_1657,P29,
stim_fb/ques.jpg,stim_fb/negf.jpg,stim_fb/posf.jpg,stim_02/d.jpg,stim_02/c.jpg,1,2,f,2,23,143,26,j,0,0.899756922128,02,01,60.0209904009,PLT_learning_02,N,2014_Mrz_12_1657,P29,
stim_fb/ques.jpg,stim_fb/negf.jpg,stim_fb/posf.jpg,stim_02/e.jpg,stim_02/f.jpg,2,3,j,2,24,144,51,f,0,1.24944960414,02,01,60.0209904009,PLT_learning_02,N,2014_Mrz_12_1657,P29,
stim_fb/ques.jpg,stim_fb/posf.jpg,stim_fb/negf.jpg,stim_02/c.jpg,stim_02/d.jpg,2,2,j,2,25,145,38,f,0,0.633155961234,02,01,60.0209904009,PLT_learning_02,N,2014_Mrz_12_1657,P29,
stim_fb/ques.jpg,stim_fb/negf.jpg,stim_fb/posf.jpg,stim_02/c.jpg,stim_02/d.jpg,2,2,j,2,26,146,30,f,0,0.649842301937,02,01,60.0209904009,PLT_learning_02,N,2014_Mrz_12_1657,P29,
stim_fb/ques.jpg,stim_fb/negf.jpg,stim_fb/posf.jpg,stim_02/e.jpg,stim_02/f.jpg,2,3,j,2,27,147,55,j,1,1.41625511086,02,01,60.0209904009,PLT_learning_02,N,2014_Mrz_12_1657,P29,
stim_fb/ques.jpg,stim_fb/negf.jpg,stim_fb/posf.jpg,stim_02/c.jpg,stim_02/d.jpg,2,2,j,2,28,148,35,f,0,0.783131672693,02,01,60.0209904009,PLT_learning_02,N,2014_Mrz_12_1657,P29,
stim_fb/ques.jpg,stim_fb/negf.jpg,stim_fb/posf.jpg,stim_02/a.jpg,stim_02/b.jpg,2,1,j,2,29,149,16,j,1,0.849762504042,02,01,60.0209904009,PLT_learning_02,N,2014_Mrz_12_1657,P29,
stim_fb/ques.jpg,stim_fb/negf.jpg,stim_fb/posf.jpg,stim_02/b.jpg,stim_02/a.jpg,1,1,f,2,30,150,5,f,1,0.66646067022,02,01,60.0209904009,PLT_learning_02,N,2014_Mrz_12_1657,P29,
stim_fb/ques.jpg,stim_fb/negf.jpg,stim_fb/posf.jpg,stim_02/a.jpg,stim_02/b.jpg,2,1,j,2,31,151,10,f,0,1.11636973857,02,01,60.0209904009,PLT_learning_02,N,2014_Mrz_12_1657,P29,
stim_fb/ques.jpg,stim_fb/posf.jpg,stim_fb/negf.jpg,stim_02/d.jpg,stim_02/c.jpg,1,2,f,2,32,152,29,j,0,0.983063492757,02,01,60.0209904009,PLT_learning_02,N,2014_Mrz_12_1657,P29,
stim_fb/ques.jpg,stim_fb/negf.jpg,stim_fb/posf.jpg,stim_02/a.jpg,stim_02/b.jpg,2,1,j,2,33,153,14,j,1,0.766470032557,02,01,60.0209904009,PLT_learning_02,N,2014_Mrz_12_1657,P29,
stim_fb/ques.jpg,stim_fb/negf.jpg,stim_fb/posf.jpg,stim_02/c.jpg,stim_02/d.jpg,2,2,j,2,34,154,33,j,1,1.03304222374,02,01,60.0209904009,PLT_learning_02,N,2014_Mrz_12_1657,P29,
stim_fb/ques.jpg,stim_fb/negf.jpg,stim_fb/posf.jpg,stim_02/a.jpg,stim_02/b.jpg,2,1,j,2,35,155,12,j,1,1.01638438809,02,01,60.0209904009,PLT_learning_02,N,2014_Mrz_12_1657,P29,
stim_fb/ques.jpg,stim_fb/negf.jpg,stim_fb/posf.jpg,stim_02/c.jpg,stim_02/d.jpg,2,2,j,2,36,156,32,f,0,0.64979690679,02,01,60.0209904009,PLT_learning_02,N,2014_Mrz_12_1657,P29,
stim_fb/ques.jpg,stim_fb/negf.jpg,stim_fb/posf.jpg,stim_02/f.jpg,stim_02/e.jpg,1,3,f,2,37,157,45,j,0,1.31634504101,02,01,60.0209904009,PLT_learning_02,N,2014_Mrz_12_1657,P29,
stim_fb/ques.jpg,stim_fb/posf.jpg,stim_fb/negf.jpg,stim_02/c.jpg,stim_02/d.jpg,2,2,j,2,38,158,37,j,1,1.53288590612,02,01,60.0209904009,PLT_learning_02,N,2014_Mrz_12_1657,P29,
stim_fb/ques.jpg,stim_fb/negf.jpg,stim_fb/posf.jpg,stim_02/a.jpg,stim_02/b.jpg,2,1,j,2,39,159,13,j,1,0.833079399403,02,01,60.0209904009,PLT_learning_02,N,2014_Mrz_12_1657,P29,
stim_fb/ques.jpg,stim_fb/negf.jpg,stim_fb/posf.jpg,stim_02/b.jpg,stim_02/a.jpg,1,1,f,2,40,160,0,f,1,0.949649918421,02,01,60.0209904009,PLT_learning_02,N,2014_Mrz_12_1657,P29,
stim_fb/ques.jpg,stim_fb/negf.jpg,stim_fb/posf.jpg,stim_02/e.jpg,stim_02/f.jpg,2,3,j,2,41,161,53,f,0,1.23297869941,02,01,60.0209904009,PLT_learning_02,N,2014_Mrz_12_1657,P29,
stim_fb/ques.jpg,stim_fb/negf.jpg,stim_fb/posf.jpg,stim_02/e.jpg,stim_02/f.jpg,2,3,j,2,42,162,50,j,1,1.56621887655,02,01,60.0209904009,PLT_learning_02,N,2014_Mrz_12_1657,P29,
stim_fb/ques.jpg,stim_fb/negf.jpg,stim_fb/posf.jpg,stim_02/d.jpg,stim_02/c.jpg,1,2,f,2,43,163,20,j,0,0.916430871948,02,01,60.0209904009,PLT_learning_02,N,2014_Mrz_12_1657,P29,
stim_fb/ques.jpg,stim_fb/negf.jpg,stim_fb/posf.jpg,stim_02/f.jpg,stim_02/e.jpg,1,3,f,2,44,164,44,j,0,0.949812278104,02,01,60.0209904009,PLT_learning_02,N,2014_Mrz_12_1657,P29,
stim_fb/ques.jpg,stim_fb/negf.jpg,stim_fb/posf.jpg,stim_02/c.jpg,stim_02/d.jpg,2,2,j,2,45,165,31,j,1,1.14966668521,02,01,60.0209904009,PLT_learning_02,N,2014_Mrz_12_1657,P29,
stim_fb/ques.jpg,stim_fb/negf.jpg,stim_fb/posf.jpg,stim_02/b.jpg,stim_02/a.jpg,1,1,f,2,46,166,1,f,1,0.86642860129,02,01,60.0209904009,PLT_learning_02,N,2014_Mrz_12_1657,P29,
stim_fb/ques.jpg,stim_fb/negf.jpg,stim_fb/posf.jpg,stim_02/e.jpg,stim_02/f.jpg,2,3,j,2,47,167,52,j,1,1.46624230795,02,01,60.0209904009,PLT_learning_02,N,2014_Mrz_12_1657,P29,
stim_fb/ques.jpg,stim_fb/posf.jpg,stim_fb/negf.jpg,stim_02/f.jpg,stim_02/e.jpg,1,3,f,2,48,168,46,j,0,1.28291690138,02,01,60.0209904009,PLT_learning_02,N,2014_Mrz_12_1657,P29,
stim_fb/ques.jpg,stim_fb/negf.jpg,stim_fb/posf.jpg,stim_02/c.jpg,stim_02/d.jpg,2,2,j,2,49,169,36,j,1,1.19964628236,02,01,60.0209904009,PLT_learning_02,N,2014_Mrz_12_1657,P29,
stim_fb/ques.jpg,stim_fb/posf.jpg,stim_fb/negf.jpg,stim_02/a.jpg,stim_02/b.jpg,2,1,j,2,50,170,18,j,1,1.63285089586,02,01,60.0209904009,PLT_learning_02,N,2014_Mrz_12_1657,P29,
stim_fb/ques.jpg,stim_fb/negf.jpg,stim_fb/posf.jpg,stim_02/d.jpg,stim_02/c.jpg,1,2,f,2,51,171,24,f,1,1.39959734739,02,01,60.0209904009,PLT_learning_02,N,2014_Mrz_12_1657,P29,
stim_fb/ques.jpg,stim_fb/negf.jpg,stim_fb/posf.jpg,stim_02/c.jpg,stim_02/d.jpg,2,2,j,2,52,172,34,None,0,,02,01,60.0209904009,PLT_learning_02,N,2014_Mrz_12_1657,P29,
stim_fb/ques.jpg,stim_fb/posf.jpg,stim_fb/negf.jpg,stim_02/b.jpg,stim_02/a.jpg,1,1,f,2,53,173,8,j,0,0.783131564425,02,01,60.0209904009,PLT_learning_02,N,2014_Mrz_12_1657,P29,
stim_fb/ques.jpg,stim_fb/posf.jpg,stim_fb/negf.jpg,stim_02/d.jpg,stim_02/c.jpg,1,2,f,2,54,174,27,f,1,1.49953137194,02,01,60.0209904009,PLT_learning_02,N,2014_Mrz_12_1657,P29,
stim_fb/ques.jpg,stim_fb/negf.jpg,stim_fb/posf.jpg,stim_02/b.jpg,stim_02/a.jpg,1,1,f,2,55,175,4,j,0,0.999707599191,02,01,60.0209904009,PLT_learning_02,N,2014_Mrz_12_1657,P29,
stim_fb/ques.jpg,stim_fb/negf.jpg,stim_fb/posf.jpg,stim_02/a.jpg,stim_02/b.jpg,2,1,j,2,56,176,11,j,1,1.11636302584,02,01,60.0209904009,PLT_learning_02,N,2014_Mrz_12_1657,P29,
stim_fb/ques.jpg,stim_fb/negf.jpg,stim_fb/posf.jpg,stim_02/b.jpg,stim_02/a.jpg,1,1,f,2,57,177,3,f,1,1.13303464485,02,01,60.0209904009,PLT_learning_02,N,2014_Mrz_12_1657,P29,
stim_fb/ques.jpg,stim_fb/negf.jpg,stim_fb/posf.jpg,stim_02/b.jpg,stim_02/a.jpg,1,1,f,2,58,178,6,f,1,0.733167332577,02,01,60.0209904009,PLT_learning_02,N,2014_Mrz_12_1657,P29,
stim_fb/ques.jpg,stim_fb/negf.jpg,stim_fb/posf.jpg,stim_02/d.jpg,stim_02/c.jpg,1,2,f,2,59,179,25,j,0,0.966381329463,02,01,60.0209904009,PLT_learning_02,N,2014_Mrz_12_1657,P29,
stim_fb/ques.jpg,stim_fb/negf.jpg,stim_fb/posf.jpg,stim_02/f.jpg,stim_02/e.jpg,1,3,f,3,0,180,40,f,1,0.816496877467,02,01,60.0209904009,PLT_learning_02,N,2014_Mrz_12_1657,P29,
stim_fb/ques.jpg,stim_fb/posf.jpg,stim_fb/negf.jpg,stim_02/f.jpg,stim_02/e.jpg,1,3,f,3,1,181,47,f,1,0.633175717478,02,01,60.0209904009,PLT_learning_02,N,2014_Mrz_12_1657,P29,
stim_fb/ques.jpg,stim_fb/negf.jpg,stim_fb/posf.jpg,stim_02/c.jpg,stim_02/d.jpg,2,2,j,3,2,182,35,j,1,0.86649644138,02,01,60.0209904009,PLT_learning_02,N,2014_Mrz_12_1657,P29,
stim_fb/ques.jpg,stim_fb/negf.jpg,stim_fb/posf.jpg,stim_02/b.jpg,stim_02/a.jpg,1,1,f,3,3,183,5,f,1,1.13300907512,02,01,60.0209904009,PLT_learning_02,N,2014_Mrz_12_1657,P29,
stim_fb/ques.jpg,stim_fb/posf.jpg,stim_fb/negf.jpg,stim_02/a.jpg,stim_02/b.jpg,2,1,j,3,4,184,18,j,1,1.01640837287,02,01,60.0209904009,PLT_learning_02,N,2014_Mrz_12_1657,P29,
stim_fb/ques.jpg,stim_fb/negf.jpg,stim_fb/posf.jpg,stim_02/b.jpg,stim_02/a.jpg,1,1,f,3,5,185,2,j,0,1.23296402583,02,01,60.0209904009,PLT_learning_02,N,2014_Mrz_12_1657,P29,
stim_fb/ques.jpg,stim_fb/negf.jpg,stim_fb/posf.jpg,stim_02/d.jpg,stim_02/c.jpg,1,2,f,3,6,186,26,j,0,1.53287010774,02,01,60.0209904009,PLT_learning_02,N,2014_Mrz_12_1657,P29,
stim_fb/ques.jpg,stim_fb/negf.jpg,stim_fb/posf.jpg,stim_02/d.jpg,stim_02/c.jpg,1,2,f,3,7,187,22,f,1,1.01639306171,02,01,60.0209904009,PLT_learning_02,N,2014_Mrz_12_1657,P29,
stim_fb/ques.jpg,stim_fb/negf.jpg,stim_fb/posf.jpg,stim_02/a.jpg,stim_02/b.jpg,2,1,j,3,8,188,12,j,1,0.849789126398,02,01,60.0209904009,PLT_learning_02,N,2014_Mrz_12_1657,P29,
stim_fb/ques.jpg,stim_fb/negf.jpg,stim_fb/posf.jpg,stim_02/e.jpg,stim_02/f.jpg,2,3,j,3,9,189,52,j,1,0.949732949377,02,01,60.0209904009,PLT_learning_02,N,2014_Mrz_12_1657,P29,
stim_fb/ques.jpg,stim_fb/negf.jpg,stim_fb/posf.jpg,stim_02/b.jpg,stim_02/a.jpg,1,1,f,3,10,190,4,f,1,0.733143666588,02,01,60.0209904009,PLT_learning_02,N,2014_Mrz_12_1657,P29,
stim_fb/ques.jpg,stim_fb/negf.jpg,stim_fb/posf.jpg,stim_02/b.jpg,stim_02/a.jpg,1,1,f,3,11,191,0,j,0,0.749795336877,02,01,60.0209904009,PLT_learning_02,N,2014_Mrz_12_1657,P29,
stim_fb/ques.jpg,stim_fb/negf.jpg,stim_fb/posf.jpg,stim_02/f.jpg,stim_02/e.jpg,1,3,f,3,12,192,42,j,0,0.599873931775,02,01,60.0209904009,PLT_learning_02,N,2014_Mrz_12_1657,P29,
stim_fb/ques.jpg,stim_fb/negf.jpg,stim_fb/posf.jpg,stim_02/e.jpg,stim_02/f.jpg,2,3,j,3,13,193,51,j,1,0.616561571718,02,01,60.0209904009,PLT_learning_02,N,2014_Mrz_12_1657,P29,
stim_fb/ques.jpg,stim_fb/posf.jpg,stim_fb/negf.jpg,stim_02/f.jpg,stim_02/e.jpg,1,3,f,3,14,194,46,f,1,0.733147104156,02,01,60.0209904009,PLT_learning_02,N,2014_Mrz_12_1657,P29,
stim_fb/ques.jpg,stim_fb/posf.jpg,stim_fb/negf.jpg,stim_02/b.jpg,stim_02/a.jpg,1,1,f,3,15,195,8,f,1,1.06641218036,02,01,60.0209904009,PLT_learning_02,N,2014_Mrz_12_1657,P29,
stim_fb/ques.jpg,stim_fb/posf.jpg,stim_fb/negf.jpg,stim_02/e.jpg,stim_02/f.jpg,2,3,j,3,16,196,56,j,1,0.916445283869,02,01,60.0209904009,PLT_learning_02,N,2014_Mrz_12_1657,P29,
stim_fb/ques.jpg,stim_fb/posf.jpg,stim_fb/negf.jpg,stim_02/e.jpg,stim_02/f.jpg,2,3,j,3,17,197,58,j,1,0.6331817054,02,01,60.0209904009,PLT_learning_02,N,2014_Mrz_12_1657,P29,
stim_fb/ques.jpg,stim_fb/negf.jpg,stim_fb/posf.jpg,stim_02/a.jpg,stim_02/b.jpg,2,1,j,3,18,198,17,j,1,0.949747271074,02,01,60.0209904009,PLT_learning_02,N,2014_Mrz_12_1657,P29,
stim_fb/ques.jpg,stim_fb/posf.jpg,stim_fb/negf.jpg,stim_02/e.jpg,stim_02/f.jpg,2,3,j,3,19,199,59,j,1,1.1662015263,02,01,60.0209904009,PLT_learning_02,N,2014_Mrz_12_1657,P29,
stim_fb/ques.jpg,stim_fb/negf.jpg,stim_fb/posf.jpg,stim_02/a.jpg,stim_02/b.jpg,2,1,j,3,20,200,10,f,0,0.716481927202,02,01,60.0209904009,PLT_learning_02,N,2014_Mrz_12_1657,P29,
stim_fb/ques.jpg,stim_fb/negf.jpg,stim_fb/posf.jpg,stim_02/d.jpg,stim_02/c.jpg,1,2,f,3,21,201,25,j,0,0.48319203615,02,01,60.0209904009,PLT_learning_02,N,2014_Mrz_12_1657,P29,
stim_fb/ques.jpg,stim_fb/negf.jpg,stim_fb/posf.jpg,stim_02/c.jpg,stim_02/d.jpg,2,2,j,3,22,202,34,f,0,0.649809926241,02,01,60.0209904009,PLT_learning_02,N,2014_Mrz_12_1657,P29,
stim_fb/ques.jpg,stim_fb/negf.jpg,stim_fb/posf.jpg,stim_02/a.jpg,stim_02/b.jpg,2,1,j,3,23,203,15,j,1,0.733156556718,02,01,60.0209904009,PLT_learning_02,N,2014_Mrz_12_1657,P29,
stim_fb/ques.jpg,stim_fb/posf.jpg,stim_fb/negf.jpg,stim_02/f.jpg,stim_02/e.jpg,1,3,f,3,24,204,49,f,1,0.71647843851,02,01,60.0209904009,PLT_learning_02,N,2014_Mrz_12_1657,P29,
stim_fb/ques.jpg,stim_fb/posf.jpg,stim_fb/negf.jpg,stim_02/d.jpg,stim_02/c.jpg,1,2,f,3,25,205,28,j,0,0.883111757055,02,01,60.0209904009,PLT_learning_02,N,2014_Mrz_12_1657,P29,
stim_fb/ques.jpg,stim_fb/negf.jpg,stim_fb/posf.jpg,stim_02/f.jpg,stim_02/e.jpg,1,3,f,3,26,206,45,j,0,0.816460628115,02,01,60.0209904009,PLT_learning_02,N,2014_Mrz_12_1657,P29,
stim_fb/ques.jpg,stim_fb/negf.jpg,stim_fb/posf.jpg,stim_02/d.jpg,stim_02/c.jpg,1,2,f,3,27,207,23,j,0,0.916421290065,02,01,60.0209904009,PLT_learning_02,N,2014_Mrz_12_1657,P29,
stim_fb/ques.jpg,stim_fb/negf.jpg,stim_fb/posf.jpg,stim_02/c.jpg,stim_02/d.jpg,2,2,j,3,28,208,31,f,0,1.09967818287,02,01,60.0209904009,PLT_learning_02,N,2014_Mrz_12_1657,P29,
stim_fb/ques.jpg,stim_fb/posf.jpg,stim_fb/negf.jpg,stim_02/a.jpg,stim_02/b.jpg,2,1,j,3,29,209,19,f,0,0.999678958804,02,01,60.0209904009,PLT_learning_02,N,2014_Mrz_12_1657,P29,
stim_fb/ques.jpg,stim_fb/negf.jpg,stim_fb/posf.jpg,stim_02/d.jpg,stim_02/c.jpg,1,2,f,3,30,210,21,j,0,0.666519869776,02,01,60.0209904009,PLT_learning_02,N,2014_Mrz_12_1657,P29,
stim_fb/ques.jpg,stim_fb/negf.jpg,stim_fb/posf.jpg,stim_02/e.jpg,stim_02/f.jpg,2,3,j,3,31,211,55,f,0,0.69986062962,02,01,60.0209904009,PLT_learning_02,N,2014_Mrz_12_1657,P29,
stim_fb/ques.jpg,stim_fb/negf.jpg,stim_fb/posf.jpg,stim_02/e.jpg,stim_02/f.jpg,2,3,j,3,32,212,50,j,1,1.13300218795,02,01,60.0209904009,PLT_learning_02,N,2014_Mrz_12_1657,P29,
stim_fb/ques.jpg,stim_fb/posf.jpg,stim_fb/negf.jpg,stim_02/d.jpg,stim_02/c.jpg,1,2,f,3,33,213,29,f,1,0.749789213616,02,01,60.0209904009,PLT_learning_02,N,2014_Mrz_12_1657,P29,
stim_fb/ques.jpg,stim_fb/posf.jpg,stim_fb/negf.jpg,stim_02/c.jpg,stim_02/d.jpg,2,2,j,3,34,214,39,j,1,0.783123976511,02,01,60.0209904009,PLT_learning_02,N,2014_Mrz_12_1657,P29,
stim_fb/ques.jpg,stim_fb/posf.jpg,stim_fb/negf.jpg,stim_02/b.jpg,stim_02/a.jpg,1,1,f,3,35,215,9,f,1,0.733132165924,02,01,60.0209904009,PLT_learning_02,N,2014_Mrz_12_1657,P29,
stim_fb/ques.jpg,stim_fb/negf.jpg,stim_fb/posf.jpg,stim_02/b.jpg,stim_02/a.jpg,1,1,f,3,36,216,1,j,0,1.03303183284,02,01,60.0209904009,PLT_learning_02,N,2014_Mrz_12_1657,P29,
stim_fb/ques.jpg,stim_fb/posf.jpg,stim_fb/negf.jpg,stim_02/f.jpg,stim_02/e.jpg,1,3,f,3,37,217,48,f,1,1.2996273622,02,01,60.0209904009,PLT_learning_02,N,2014_Mrz_12_1657,P29,
stim_fb/ques.jpg,stim_fb/negf.jpg,stim_fb/posf.jpg,stim_02/a.jpg,stim_02/b.jpg,2,1,j,3,38,218,11,j,1,0.699820605862,02,01,60.0209904009,PLT_learning_02,N,2014_Mrz_12_1657,P29,
stim_fb/ques.jpg,stim_fb/posf.jpg,stim_fb/negf.jpg,stim_02/c.jpg,stim_02/d.jpg,2,2,j,3,39,219,38,f,0,0.649840680897,02,01,60.0209904009,PLT_learning_02,N,2014_Mrz_12_1657,P29,
stim_fb/ques.jpg,stim_fb/negf.jpg,stim_fb/posf.jpg,stim_02/c.jpg,stim_02/d.jpg,2,2,j,3,40,220,30,j,1,0.999698360161,02,01,60.0209904009,PLT_learning_02,N,2014_Mrz_12_1657,P29,
stim_fb/ques.jpg,stim_fb/negf.jpg,stim_fb/posf.jpg,stim_02/c.jpg,stim_02/d.jpg,2,2,j,3,41,221,36,j,1,1.08303259374,02,01,60.0209904009,PLT_learning_02,N,2014_Mrz_12_1657,P29,
stim_fb/ques.jpg,stim_fb/negf.jpg,stim_fb/posf.jpg,stim_02/a.jpg,stim_02/b.jpg,2,1,j,3,42,222,14,j,1,0.883080382853,02,01,60.0209904009,PLT_learning_02,N,2014_Mrz_12_1657,P29,
stim_fb/ques.jpg,stim_fb/negf.jpg,stim_fb/posf.jpg,stim_02/e.jpg,stim_02/f.jpg,2,3,j,3,43,223,53,j,1,0.866478667078,02,01,60.0209904009,PLT_learning_02,N,2014_Mrz_12_1657,P29,
stim_fb/ques.jpg,stim_fb/negf.jpg,stim_fb/posf.jpg,stim_02/f.jpg,stim_02/e.jpg,1,3,f,3,44,224,41,f,1,0.999726224616,02,01,60.0209904009,PLT_learning_02,N,2014_Mrz_12_1657,P29,
stim_fb/ques.jpg,stim_fb/negf.jpg,stim_fb/posf.jpg,stim_02/d.jpg,stim_02/c.jpg,1,2,f,3,45,225,24,f,1,1.09971484425,02,01,60.0209904009,PLT_learning_02,N,2014_Mrz_12_1657,P29,
stim_fb/ques.jpg,stim_fb/posf.jpg,stim_fb/negf.jpg,stim_02/e.jpg,stim_02/f.jpg,2,3,j,3,46,226,57,j,1,0.783178069338,02,01,60.0209904009,PLT_learning_02,N,2014_Mrz_12_1657,P29,
stim_fb/ques.jpg,stim_fb/negf.jpg,stim_fb/posf.jpg,stim_02/c.jpg,stim_02/d.jpg,2,2,j,3,47,227,33,j,1,1.66613863354,02,01,60.0209904009,PLT_learning_02,N,2014_Mrz_12_1657,P29,
stim_fb/ques.jpg,stim_fb/negf.jpg,stim_fb/posf.jpg,stim_02/a.jpg,stim_02/b.jpg,2,1,j,3,48,228,16,f,0,0.866470916759,02,01,60.0209904009,PLT_learning_02,N,2014_Mrz_12_1657,P29,
stim_fb/ques.jpg,stim_fb/negf.jpg,stim_fb/posf.jpg,stim_02/d.jpg,stim_02/c.jpg,1,2,f,3,49,229,20,f,1,0.849770464883,02,01,60.0209904009,PLT_learning_02,N,2014_Mrz_12_1657,P29,
stim_fb/ques.jpg,stim_fb/negf.jpg,stim_fb/posf.jpg,stim_02/b.jpg,stim_02/a.jpg,1,1,f,3,50,230,7,j,0,0.949759301058,02,01,60.0209904009,PLT_learning_02,N,2014_Mrz_12_1657,P29,
stim_fb/ques.jpg,stim_fb/posf.jpg,stim_fb/negf.jpg,stim_02/c.jpg,stim_02/d.jpg,2,2,j,3,51,231,37,j,1,0.849757481523,02,01,60.0209904009,PLT_learning_02,N,2014_Mrz_12_1657,P29,
stim_fb/ques.jpg,stim_fb/negf.jpg,stim_fb/posf.jpg,stim_02/f.jpg,stim_02/e.jpg,1,3,f,3,52,232,43,f,1,1.31629730904,02,01,60.0209904009,PLT_learning_02,N,2014_Mrz_12_1657,P29,
stim_fb/ques.jpg,stim_fb/negf.jpg,stim_fb/posf.jpg,stim_02/e.jpg,stim_02/f.jpg,2,3,j,3,53,233,54,j,1,0.733148974821,02,01,60.0209904009,PLT_learning_02,N,2014_Mrz_12_1657,P29,
stim_fb/ques.jpg,stim_fb/posf.jpg,stim_fb/negf.jpg,stim_02/d.jpg,stim_02/c.jpg,1,2,f,3,54,234,27,j,0,1.13301237735,02,01,60.0209904009,PLT_learning_02,N,2014_Mrz_12_1657,P29,
stim_fb/ques.jpg,stim_fb/negf.jpg,stim_fb/posf.jpg,stim_02/a.jpg,stim_02/b.jpg,2,1,j,3,55,235,13,j,1,0.883091020367,02,01,60.0209904009,PLT_learning_02,N,2014_Mrz_12_1657,P29,
stim_fb/ques.jpg,stim_fb/negf.jpg,stim_fb/posf.jpg,stim_02/c.jpg,stim_02/d.jpg,2,2,j,3,56,236,32,j,1,0.88308110766,02,01,60.0209904009,PLT_learning_02,N,2014_Mrz_12_1657,P29,
stim_fb/ques.jpg,stim_fb/negf.jpg,stim_fb/posf.jpg,stim_02/b.jpg,stim_02/a.jpg,1,1,f,3,57,237,6,f,1,0.983052575544,02,01,60.0209904009,PLT_learning_02,N,2014_Mrz_12_1657,P29,
stim_fb/ques.jpg,stim_fb/negf.jpg,stim_fb/posf.jpg,stim_02/b.jpg,stim_02/a.jpg,1,1,f,3,58,238,3,f,1,0.999744065082,02,01,60.0209904009,PLT_learning_02,N,2014_Mrz_12_1657,P29,
stim_fb/ques.jpg,stim_fb/negf.jpg,stim_fb/posf.jpg,stim_02/f.jpg,stim_02/e.jpg,1,3,f,3,59,239,44,f,1,1.13299301208,02,01,60.0209904009,PLT_learning_02,N,2014_Mrz_12_1657,P29,
stim_fb/ques.jpg,stim_fb/negf.jpg,stim_fb/posf.jpg,stim_02/c.jpg,stim_02/d.jpg,2,2,j,4,0,240,35,f,0,1.06636959722,02,01,60.0209904009,PLT_learning_02,N,2014_Mrz_12_1657,P29,
stim_fb/ques.jpg,stim_fb/negf.jpg,stim_fb/posf.jpg,stim_02/d.jpg,stim_02/c.jpg,1,2,f,4,1,241,22,j,0,1.1663398591,02,01,60.0209904009,PLT_learning_02,N,2014_Mrz_12_1657,P29,
stim_fb/ques.jpg,stim_fb/negf.jpg,stim_fb/posf.jpg,stim_02/a.jpg,stim_02/b.jpg,2,1,j,4,2,242,17,j,1,1.31629336622,02,01,60.0209904009,PLT_learning_02,N,2014_Mrz_12_1657,P29,
stim_fb/ques.jpg,stim_fb/negf.jpg,stim_fb/posf.jpg,stim_02/a.jpg,stim_02/b.jpg,2,1,j,4,3,243,11,j,1,1.21634397636,02,01,60.0209904009,PLT_learning_02,N,2014_Mrz_12_1657,P29,
stim_fb/ques.jpg,stim_fb/posf.jpg,stim_fb/negf.jpg,stim_02/b.jpg,stim_02/a.jpg,1,1,f,4,4,244,9,j,0,1.43294152675,02,01,60.0209904009,PLT_learning_02,N,2014_Mrz_12_1657,P29,
stim_fb/ques.jpg,stim_fb/negf.jpg,stim_fb/posf.jpg,stim_02/f.jpg,stim_02/e.jpg,1,3,f,4,5,245,44,f,1,1.13301067812,02,01,60.0209904009,PLT_learning_02,N,2014_Mrz_12_1657,P29,
stim_fb/ques.jpg,stim_fb/posf.jpg,stim_fb/negf.jpg,stim_02/c.jpg,stim_02/d.jpg,2,2,j,4,6,246,39,j,1,0.849776296418,02,01,60.0209904009,PLT_learning_02,N,2014_Mrz_12_1657,P29,
stim_fb/ques.jpg,stim_fb/negf.jpg,stim_fb/posf.jpg,stim_02/f.jpg,stim_02/e.jpg,1,3,f,4,7,247,41,j,0,0.84976062135,02,01,60.0209904009,PLT_learning_02,N,2014_Mrz_12_1657,P29,
stim_fb/ques.jpg,stim_fb/posf.jpg,stim_fb/negf.jpg,stim_02/e.jpg,stim_02/f.jpg,2,3,j,4,8,248,59,j,1,1.0830165698,02,01,60.0209904009,PLT_learning_02,N,2014_Mrz_12_1657,P29,
stim_fb/ques.jpg,stim_fb/posf.jpg,stim_fb/negf.jpg,stim_02/f.jpg,stim_02/e.jpg,1,3,f,4,9,249,48,f,1,1.21631721265,02,01,60.0209904009,PLT_learning_02,N,2014_Mrz_12_1657,P29,
stim_fb/ques.jpg,stim_fb/negf.jpg,stim_fb/posf.jpg,stim_02/e.jpg,stim_02/f.jpg,2,3,j,4,10,250,50,f,0,1.28296515966,02,01,60.0209904009,PLT_learning_02,N,2014_Mrz_12_1657,P29,
stim_fb/ques.jpg,stim_fb/negf.jpg,stim_fb/posf.jpg,stim_02/f.jpg,stim_02/e.jpg,1,3,f,4,11,251,42,None,0,,02,01,60.0209904009,PLT_learning_02,N,2014_Mrz_12_1657,P29,
stim_fb/ques.jpg,stim_fb/negf.jpg,stim_fb/posf.jpg,stim_02/a.jpg,stim_02/b.jpg,2,1,j,4,12,252,10,j,1,1.01638011444,02,01,60.0209904009,PLT_learning_02,N,2014_Mrz_12_1657,P29,
stim_fb/ques.jpg,stim_fb/negf.jpg,stim_fb/posf.jpg,stim_02/f.jpg,stim_02/e.jpg,1,3,f,4,13,253,45,j,0,0.716473599448,02,01,60.0209904009,PLT_learning_02,N,2014_Mrz_12_1657,P29,
stim_fb/ques.jpg,stim_fb/negf.jpg,stim_fb/posf.jpg,stim_02/b.jpg,stim_02/a.jpg,1,1,f,4,14,254,6,f,1,1.01640968714,02,01,60.0209904009,PLT_learning_02,N,2014_Mrz_12_1657,P29,
stim_fb/ques.jpg,stim_fb/negf.jpg,stim_fb/posf.jpg,stim_02/f.jpg,stim_02/e.jpg,1,3,f,4,15,255,40,j,0,0.599849956016,02,01,60.0209904009,PLT_learning_02,N,2014_Mrz_12_1657,P29,
stim_fb/ques.jpg,stim_fb/negf.jpg,stim_fb/posf.jpg,stim_02/c.jpg,stim_02/d.jpg,2,2,j,4,16,256,30,j,1,0.866422622386,02,01,60.0209904009,PLT_learning_02,N,2014_Mrz_12_1657,P29,
stim_fb/ques.jpg,stim_fb/posf.jpg,stim_fb/negf.jpg,stim_02/d.jpg,stim_02/c.jpg,1,2,f,4,17,257,28,j,0,0.933110439772,02,01,60.0209904009,PLT_learning_02,N,2014_Mrz_12_1657,P29,
stim_fb/ques.jpg,stim_fb/negf.jpg,stim_fb/posf.jpg,stim_02/a.jpg,stim_02/b.jpg,2,1,j,4,18,258,16,f,0,1.03303369749,02,01,60.0209904009,PLT_learning_02,N,2014_Mrz_12_1657,P29,
stim_fb/ques.jpg,stim_fb/negf.jpg,stim_fb/posf.jpg,stim_02/c.jpg,stim_02/d.jpg,2,2,j,4,19,259,31,j,1,0.816465626574,02,01,60.0209904009,PLT_learning_02,N,2014_Mrz_12_1657,P29,
stim_fb/ques.jpg,stim_fb/posf.jpg,stim_fb/negf.jpg,stim_02/e.jpg,stim_02/f.jpg,2,3,j,4,20,260,56,j,1,0.466560025865,02,01,60.0209904009,PLT_learning_02,N,2014_Mrz_12_1657,P29,
stim_fb/ques.jpg,stim_fb/negf.jpg,stim_fb/posf.jpg,stim_02/e.jpg,stim_02/f.jpg,2,3,j,4,21,261,52,j,1,0.766463025089,02,01,60.0209904009,PLT_learning_02,N,2014_Mrz_12_1657,P29,
stim_fb/ques.jpg,stim_fb/posf.jpg,stim_fb/negf.jpg,stim_02/c.jpg,stim_02/d.jpg,2,2,j,4,22,262,38,j,1,0.68310504733,02,01,60.0209904009,PLT_learning_02,N,2014_Mrz_12_1657,P29,
stim_fb/ques.jpg,stim_fb/negf.jpg,stim_fb/posf.jpg,stim_02/e.jpg,stim_02/f.jpg,2,3,j,4,23,263,55,j,1,1.39959143164,02,01,60.0209904009,PLT_learning_02,N,2014_Mrz_12_1657,P29,
stim_fb/ques.jpg,stim_fb/posf.jpg,stim_fb/negf.jpg,stim_02/a.jpg,stim_02/b.jpg,2,1,j,4,24,264,18,f,0,0.866415154773,02,01,60.0209904009,PLT_learning_02,N,2014_Mrz_12_1657,P29,
stim_fb/ques.jpg,stim_fb/negf.jpg,stim_fb/posf.jpg,stim_02/e.jpg,stim_02/f.jpg,2,3,j,4,25,265,51,j,1,0.733142935767,02,01,60.0209904009,PLT_learning_02,N,2014_Mrz_12_1657,P29,
stim_fb/ques.jpg,stim_fb/negf.jpg,stim_fb/posf.jpg,stim_02/a.jpg,stim_02/b.jpg,2,1,j,4,26,266,15,j,1,0.933083315163,02,01,60.0209904009,PLT_learning_02,N,2014_Mrz_12_1657,P29,
stim_fb/ques.jpg,stim_fb/posf.jpg,stim_fb/negf.jpg,stim_02/d.jpg,stim_02/c.jpg,1,2,f,4,27,267,27,f,1,0.966395918827,02,01,60.0209904009,PLT_learning_02,N,2014_Mrz_12_1657,P29,
stim_fb/ques.jpg,stim_fb/negf.jpg,stim_fb/posf.jpg,stim_02/d.jpg,stim_02/c.jpg,1,2,f,4,28,268,26,f,1,0.933058740911,02,01,60.0209904009,PLT_learning_02,N,2014_Mrz_12_1657,P29,
stim_fb/ques.jpg,stim_fb/negf.jpg,stim_fb/posf.jpg,stim_02/d.jpg,stim_02/c.jpg,1,2,f,4,29,269,21,f,1,0.999717950992,02,01,60.0209904009,PLT_learning_02,N,2014_Mrz_12_1657,P29,
stim_fb/ques.jpg,stim_fb/negf.jpg,stim_fb/posf.jpg,stim_02/c.jpg,stim_02/d.jpg,2,2,j,4,30,270,34,f,0,1.03300091578,02,01,60.0209904009,PLT_learning_02,N,2014_Mrz_12_1657,P29,
stim_fb/ques.jpg,stim_fb/negf.jpg,stim_fb/posf.jpg,stim_02/f.jpg,stim_02/e.jpg,1,3,f,4,31,271,43,j,0,0.766465256653,02,01,60.0209904009,PLT_learning_02,N,2014_Mrz_12_1657,P29,
stim_fb/ques.jpg,stim_fb/negf.jpg,stim_fb/posf.jpg,stim_02/a.jpg,stim_02/b.jpg,2,1,j,4,32,272,13,j,1,1.03304317411,02,01,60.0209904009,PLT_learning_02,N,2014_Mrz_12_1657,P29,
stim_fb/ques.jpg,stim_fb/negf.jpg,stim_fb/posf.jpg,stim_02/c.jpg,stim_02/d.jpg,2,2,j,4,33,273,32,f,0,0.799819709626,02,01,60.0209904009,PLT_learning_02,N,2014_Mrz_12_1657,P29,
stim_fb/ques.jpg,stim_fb/negf.jpg,stim_fb/posf.jpg,stim_02/c.jpg,stim_02/d.jpg,2,2,j,4,34,274,36,f,0,1.13304046436,02,01,60.0209904009,PLT_learning_02,N,2014_Mrz_12_1657,P29,
stim_fb/ques.jpg,stim_fb/negf.jpg,stim_fb/posf.jpg,stim_02/a.jpg,stim_02/b.jpg,2,1,j,4,35,275,12,j,1,1.04971815851,02,01,60.0209904009,PLT_learning_02,N,2014_Mrz_12_1657,P29,
stim_fb/ques.jpg,stim_fb/negf.jpg,stim_fb/posf.jpg,stim_02/b.jpg,stim_02/a.jpg,1,1,f,4,36,276,3,f,1,0.69982278028,02,01,60.0209904009,PLT_learning_02,N,2014_Mrz_12_1657,P29,
stim_fb/ques.jpg,stim_fb/negf.jpg,stim_fb/posf.jpg,stim_02/b.jpg,stim_02/a.jpg,1,1,f,4,37,277,5,f,1,1.11636560627,02,01,60.0209904009,PLT_learning_02,N,2014_Mrz_12_1657,P29,
stim_fb/ques.jpg,stim_fb/posf.jpg,stim_fb/negf.jpg,stim_02/f.jpg,stim_02/e.jpg,1,3,f,4,38,278,47,j,0,1.04969571056,02,01,60.0209904009,PLT_learning_02,N,2014_Mrz_12_1657,P29,
stim_fb/ques.jpg,stim_fb/negf.jpg,stim_fb/posf.jpg,stim_02/b.jpg,stim_02/a.jpg,1,1,f,4,39,279,7,f,1,0.783108602192,02,01,60.0209904009,PLT_learning_02,N,2014_Mrz_12_1657,P29,
stim_fb/ques.jpg,stim_fb/posf.jpg,stim_fb/negf.jpg,stim_02/f.jpg,stim_02/e.jpg,1,3,f,4,40,280,46,j,0,0.733147356787,02,01,60.0209904009,PLT_learning_02,N,2014_Mrz_12_1657,P29,
stim_fb/ques.jpg,stim_fb/negf.jpg,stim_fb/posf.jpg,stim_02/b.jpg,stim_02/a.jpg,1,1,f,4,41,281,0,j,0,0.766462402538,02,01,60.0209904009,PLT_learning_02,N,2014_Mrz_12_1657,P29,
stim_fb/ques.jpg,stim_fb/posf.jpg,stim_fb/negf.jpg,stim_02/f.jpg,stim_02/e.jpg,1,3,f,4,42,282,49,j,0,0.949772031789,02,01,60.0209904009,PLT_learning_02,N,2014_Mrz_12_1657,P29,
stim_fb/ques.jpg,stim_fb/posf.jpg,stim_fb/negf.jpg,stim_02/a.jpg,stim_02/b.jpg,2,1,j,4,43,283,19,j,1,0.949743364336,02,01,60.0209904009,PLT_learning_02,N,2014_Mrz_12_1657,P29,
stim_fb/ques.jpg,stim_fb/posf.jpg,stim_fb/negf.jpg,stim_02/e.jpg,stim_02/f.jpg,2,3,j,4,44,284,58,f,0,1.1830379952,02,01,60.0209904009,PLT_learning_02,N,2014_Mrz_12_1657,P29,
stim_fb/ques.jpg,stim_fb/negf.jpg,stim_fb/posf.jpg,stim_02/e.jpg,stim_02/f.jpg,2,3,j,4,45,285,54,f,0,0.999711686378,02,01,60.0209904009,PLT_learning_02,N,2014_Mrz_12_1657,P29,
stim_fb/ques.jpg,stim_fb/posf.jpg,stim_fb/negf.jpg,stim_02/b.jpg,stim_02/a.jpg,1,1,f,4,46,286,8,f,1,1.13299653687,02,01,60.0209904009,PLT_learning_02,N,2014_Mrz_12_1657,P29,
stim_fb/ques.jpg,stim_fb/negf.jpg,stim_fb/posf.jpg,stim_02/d.jpg,stim_02/c.jpg,1,2,f,4,47,287,25,j,0,1.14970670296,02,01,60.0209904009,PLT_learning_02,N,2014_Mrz_12_1657,P29,
stim_fb/ques.jpg,stim_fb/negf.jpg,stim_fb/posf.jpg,stim_02/a.jpg,stim_02/b.jpg,2,1,j,4,48,288,14,j,1,0.783123525387,02,01,60.0209904009,PLT_learning_02,N,2014_Mrz_12_1657,P29,
stim_fb/ques.jpg,stim_fb/posf.jpg,stim_fb/negf.jpg,stim_02/e.jpg,stim_02/f.jpg,2,3,j,4,49,289,57,f,0,1.01637242126,02,01,60.0209904009,PLT_learning_02,N,2014_Mrz_12_1657,P29,
stim_fb/ques.jpg,stim_fb/negf.jpg,stim_fb/posf.jpg,stim_02/b.jpg,stim_02/a.jpg,1,1,f,4,50,290,4,j,0,1.21629226547,02,01,60.0209904009,PLT_learning_02,N,2014_Mrz_12_1657,P29,
stim_fb/ques.jpg,stim_fb/posf.jpg,stim_fb/negf.jpg,stim_02/c.jpg,stim_02/d.jpg,2,2,j,4,51,291,37,j,1,0.949809288652,02,01,60.0209904009,PLT_learning_02,N,2014_Mrz_12_1657,P29,
stim_fb/ques.jpg,stim_fb/posf.jpg,stim_fb/negf.jpg,stim_02/d.jpg,stim_02/c.jpg,1,2,f,4,52,292,29,j,0,1.1163640935,02,01,60.0209904009,PLT_learning_02,N,2014_Mrz_12_1657,P29,
stim_fb/ques.jpg,stim_fb/negf.jpg,stim_fb/posf.jpg,stim_02/b.jpg,stim_02/a.jpg,1,1,f,4,53,293,2,f,1,0.966400433081,02,01,60.0209904009,PLT_learning_02,N,2014_Mrz_12_1657,P29,
stim_fb/ques.jpg,stim_fb/negf.jpg,stim_fb/posf.jpg,stim_02/c.jpg,stim_02/d.jpg,2,2,j,4,54,294,33,j,1,1.61617132202,02,01,60.0209904009,PLT_learning_02,N,2014_Mrz_12_1657,P29,
stim_fb/ques.jpg,stim_fb/negf.jpg,stim_fb/posf.jpg,stim_02/d.jpg,stim_02/c.jpg,1,2,f,4,55,295,24,f,1,1.33294860039,02,01,60.0209904009,PLT_learning_02,N,2014_Mrz_12_1657,P29,
stim_fb/ques.jpg,stim_fb/negf.jpg,stim_fb/posf.jpg,stim_02/d.jpg,stim_02/c.jpg,1,2,f,4,56,296,20,f,1,0.933120289321,02,01,60.0209904009,PLT_learning_02,N,2014_Mrz_12_1657,P29,
stim_fb/ques.jpg,stim_fb/negf.jpg,stim_fb/posf.jpg,stim_02/b.jpg,stim_02/a.jpg,1,1,f,4,57,297,1,j,0,0.899723162984,02,01,60.0209904009,PLT_learning_02,N,2014_Mrz_12_1657,P29,
stim_fb/ques.jpg,stim_fb/negf.jpg,stim_fb/posf.jpg,stim_02/d.jpg,stim_02/c.jpg,1,2,f,4,58,298,23,f,1,0.916432240359,02,01,60.0209904009,PLT_learning_02,N,2014_Mrz_12_1657,P29,
stim_fb/ques.jpg,stim_fb/negf.jpg,stim_fb/posf.jpg,stim_02/e.jpg,stim_02/f.jpg,2,3,j,4,59,299,53,f,0,0.933070319772,02,01,60.0209904009,PLT_learning_02,N,2014_Mrz_12_1657,P29,
stim_fb/ques.jpg,stim_fb/posf.jpg,stim_fb/negf.jpg,stim_02/b.jpg,stim_02/a.jpg,1,1,f,5,0,300,9,f,1,0.916410532252,02,01,60.0209904009,PLT_learning_02,N,2014_Mrz_12_1657,P29,
stim_fb/ques.jpg,stim_fb/negf.jpg,stim_fb/posf.jpg,stim_02/b.jpg,stim_02/a.jpg,1,1,f,5,1,301,1,j,0,1.14973764709,02,01,60.0209904009,PLT_learning_02,N,2014_Mrz_12_1657,P29,
stim_fb/ques.jpg,stim_fb/negf.jpg,stim_fb/posf.jpg,stim_02/c.jpg,stim_02/d.jpg,2,2,j,5,2,302,33,j,1,0.883086271531,02,01,60.0209904009,PLT_learning_02,N,2014_Mrz_12_1657,P29,
stim_fb/ques.jpg,stim_fb/posf.jpg,stim_fb/negf.jpg,stim_02/a.jpg,stim_02/b.jpg,2,1,j,5,3,303,19,j,1,1.06635597326,02,01,60.0209904009,PLT_learning_02,N,2014_Mrz_12_1657,P29,
stim_fb/ques.jpg,stim_fb/negf.jpg,stim_fb/posf.jpg,stim_02/a.jpg,stim_02/b.jpg,2,1,j,5,4,304,12,f,0,0.816740779392,02,01,60.0209904009,PLT_learning_02,N,2014_Mrz_12_1657,P29,
stim_fb/ques.jpg,stim_fb/negf.jpg,stim_fb/posf.jpg,stim_02/c.jpg,stim_02/d.jpg,2,2,j,5,5,305,34,j,1,0.616484676055,02,01,60.0209904009,PLT_learning_02,N,2014_Mrz_12_1657,P29,
stim_fb/ques.jpg,stim_fb/negf.jpg,stim_fb/posf.jpg,stim_02/c.jpg,stim_02/d.jpg,2,2,j,5,6,306,35,f,0,1.03326371982,02,01,60.0209904009,PLT_learning_02,N,2014_Mrz_12_1657,P29,
stim_fb/ques.jpg,stim_fb/negf.jpg,stim_fb/posf.jpg,stim_02/b.jpg,stim_02/a.jpg,1,1,f,5,7,307,2,f,1,0.699858554446,02,01,60.0209904009,PLT_learning_02,N,2014_Mrz_12_1657,P29,
stim_fb/ques.jpg,stim_fb/posf.jpg,stim_fb/negf.jpg,stim_02/c.jpg,stim_02/d.jpg,2,2,j,5,8,308,39,j,1,0.933052479306,02,01,60.0209904009,PLT_learning_02,N,2014_Mrz_12_1657,P29,
stim_fb/ques.jpg,stim_fb/posf.jpg,stim_fb/negf.jpg,stim_02/d.jpg,stim_02/c.jpg,1,2,f,5,9,309,28,f,1,1.34958961812,02,01,60.0209904009,PLT_learning_02,N,2014_Mrz_12_1657,P29,
stim_fb/ques.jpg,stim_fb/negf.jpg,stim_fb/posf.jpg,stim_02/b.jpg,stim_02/a.jpg,1,1,f,5,10,310,7,j,0,0.849798136856,02,01,60.0209904009,PLT_learning_02,N,2014_Mrz_12_1657,P29,
stim_fb/ques.jpg,stim_fb/posf.jpg,stim_fb/negf.jpg,stim_02/d.jpg,stim_02/c.jpg,1,2,f,5,11,311,27,f,1,0.733151483071,02,01,60.0209904009,PLT_learning_02,N,2014_Mrz_12_1657,P29,
stim_fb/ques.jpg,stim_fb/negf.jpg,stim_fb/posf.jpg,stim_02/f.jpg,stim_02/e.jpg,1,3,f,5,12,312,44,f,1,1.31627316186,02,01,60.0209904009,PLT_learning_02,N,2014_Mrz_12_1657,P29,
stim_fb/ques.jpg,stim_fb/posf.jpg,stim_fb/negf.jpg,stim_02/e.jpg,stim_02/f.jpg,2,3,j,5,13,313,59,j,1,0.833129913308,02,01,60.0209904009,PLT_learning_02,N,2014_Mrz_12_1657,P29,
stim_fb/ques.jpg,stim_fb/negf.jpg,stim_fb/posf.jpg,stim_02/e.jpg,stim_02/f.jpg,2,3,j,5,14,314,54,f,0,0.833134048617,02,01,60.0209904009,PLT_learning_02,N,2014_Mrz_12_1657,P29,
stim_fb/ques.jpg,stim_fb/posf.jpg,stim_fb/negf.jpg,stim_02/e.jpg,stim_02/f.jpg,2,3,j,5,15,315,57,f,0,0.949730603528,02,01,60.0209904009,PLT_learning_02,N,2014_Mrz_12_1657,P29,
stim_fb/ques.jpg,stim_fb/posf.jpg,stim_fb/negf.jpg,stim_02/f.jpg,stim_02/e.jpg,1,3,f,5,16,316,46,f,1,1.33290131352,02,01,60.0209904009,PLT_learning_02,N,2014_Mrz_12_1657,P29,
stim_fb/ques.jpg,stim_fb/negf.jpg,stim_fb/posf.jpg,stim_02/e.jpg,stim_02/f.jpg,2,3,j,5,17,317,52,f,0,0.899742104195,02,01,60.0209904009,PLT_learning_02,N,2014_Mrz_12_1657,P29,
stim_fb/ques.jpg,stim_fb/negf.jpg,stim_fb/posf.jpg,stim_02/c.jpg,stim_02/d.jpg,2,2,j,5,18,318,32,j,1,0.93303886437,02,01,60.0209904009,PLT_learning_02,N,2014_Mrz_12_1657,P29,
stim_fb/ques.jpg,stim_fb/posf.jpg,stim_fb/negf.jpg,stim_02/f.jpg,stim_02/e.jpg,1,3,f,5,19,319,47,j,0,0.733146505667,02,01,60.0209904009,PLT_learning_02,N,2014_Mrz_12_1657,P29,
stim_fb/ques.jpg,stim_fb/negf.jpg,stim_fb/posf.jpg,stim_02/c.jpg,stim_02/d.jpg,2,2,j,5,20,320,31,f,0,0.683147807911,02,01,60.0209904009,PLT_learning_02,N,2014_Mrz_12_1657,P29,
stim_fb/ques.jpg,stim_fb/negf.jpg,stim_fb/posf.jpg,stim_02/d.jpg,stim_02/c.jpg,1,2,f,5,21,321,22,j,0,0.749783755009,02,01,60.0209904009,PLT_learning_02,N,2014_Mrz_12_1657,P29,
stim_fb/ques.jpg,stim_fb/negf.jpg,stim_fb/posf.jpg,stim_02/a.jpg,stim_02/b.jpg,2,1,j,5,22,322,13,j,1,0.649843222231,02,01,60.0209904009,PLT_learning_02,N,2014_Mrz_12_1657,P29,
stim_fb/ques.jpg,stim_fb/negf.jpg,stim_fb/posf.jpg,stim_02/d.jpg,stim_02/c.jpg,1,2,f,5,23,323,26,f,1,0.699814735228,02,01,60.0209904009,PLT_learning_02,N,2014_Mrz_12_1657,P29,
stim_fb/ques.jpg,stim_fb/negf.jpg,stim_fb/posf.jpg,stim_02/a.jpg,stim_02/b.jpg,2,1,j,5,24,324,16,j,1,0.983058777001,02,01,60.0209904009,PLT_learning_02,N,2014_Mrz_12_1657,P29,
stim_fb/ques.jpg,stim_fb/negf.jpg,stim_fb/posf.jpg,stim_02/a.jpg,stim_02/b.jpg,2,1,j,5,25,325,11,j,1,0.916408514222,02,01,60.0209904009,PLT_learning_02,N,2014_Mrz_12_1657,P29,
stim_fb/ques.jpg,stim_fb/negf.jpg,stim_fb/posf.jpg,stim_02/c.jpg,stim_02/d.jpg,2,2,j,5,26,326,30,f,0,1.08302078932,02,01,60.0209904009,PLT_learning_02,N,2014_Mrz_12_1657,P29,
stim_fb/ques.jpg,stim_fb/negf.jpg,stim_fb/posf.jpg,stim_02/d.jpg,stim_02/c.jpg,1,2,f,5,27,327,23,f,1,0.533201807506,02,01,60.0209904009,PLT_learning_02,N,2014_Mrz_12_1657,P29,
stim_fb/ques.jpg,stim_fb/negf.jpg,stim_fb/posf.jpg,stim_02/f.jpg,stim_02/e.jpg,1,3,f,5,28,328,43,f,1,0.86639210833,02,01,60.0209904009,PLT_learning_02,N,2014_Mrz_12_1657,P29,
stim_fb/ques.jpg,stim_fb/posf.jpg,stim_fb/negf.jpg,stim_02/e.jpg,stim_02/f.jpg,2,3,j,5,29,329,56,j,1,1.43289847144,02,01,60.0209904009,PLT_learning_02,N,2014_Mrz_12_1657,P29,
stim_fb/ques.jpg,stim_fb/posf.jpg,stim_fb/negf.jpg,stim_02/c.jpg,stim_02/d.jpg,2,2,j,5,30,330,37,f,0,0.866448727453,02,01,60.0209904009,PLT_learning_02,N,2014_Mrz_12_1657,P29,
stim_fb/ques.jpg,stim_fb/posf.jpg,stim_fb/negf.jpg,stim_02/d.jpg,stim_02/c.jpg,1,2,f,5,31,331,29,j,0,1.24963496214,02,01,60.0209904009,PLT_learning_02,N,2014_Mrz_12_1657,P29,
stim_fb/ques.jpg,stim_fb/negf.jpg,stim_fb/posf.jpg,stim_02/d.jpg,stim_02/c.jpg,1,2,f,5,32,332,20,j,0,0.983077122728,02,01,60.0209904009,PLT_learning_02,N,2014_Mrz_12_1657,P29,
stim_fb/ques.jpg,stim_fb/negf.jpg,stim_fb/posf.jpg,stim_02/f.jpg,stim_02/e.jpg,1,3,f,5,33,333,45,f,1,0.599801763896,02,01,60.0209904009,PLT_learning_02,N,2014_Mrz_12_1657,P29,
stim_fb/ques.jpg,stim_fb/posf.jpg,stim_fb/negf.jpg,stim_02/a.jpg,stim_02/b.jpg,2,1,j,5,34,334,18,j,1,1.0496937617,02,01,60.0209904009,PLT_learning_02,N,2014_Mrz_12_1657,P29,
stim_fb/ques.jpg,stim_fb/negf.jpg,stim_fb/posf.jpg,stim_02/b.jpg,stim_02/a.jpg,1,1,f,5,35,335,4,f,1,0.799783051254,02,01,60.0209904009,PLT_learning_02,N,2014_Mrz_12_1657,P29,
stim_fb/ques.jpg,stim_fb/negf.jpg,stim_fb/posf.jpg,stim_02/b.jpg,stim_02/a.jpg,1,1,f,5,36,336,5,f,1,0.749803652605,02,01,60.0209904009,PLT_learning_02,N,2014_Mrz_12_1657,P29,
stim_fb/ques.jpg,stim_fb/negf.jpg,stim_fb/posf.jpg,stim_02/e.jpg,stim_02/f.jpg,2,3,j,5,37,337,51,f,0,0.899812608926,02,01,60.0209904009,PLT_learning_02,N,2014_Mrz_12_1657,P29,
stim_fb/ques.jpg,stim_fb/posf.jpg,stim_fb/negf.jpg,stim_02/b.jpg,stim_02/a.jpg,1,1,f,5,38,338,8,j,0,0.716415431463,02,01,60.0209904009,PLT_learning_02,N,2014_Mrz_12_1657,P29,
stim_fb/ques.jpg,stim_fb/negf.jpg,stim_fb/posf.jpg,stim_02/d.jpg,stim_02/c.jpg,1,2,f,5,39,339,25,f,1,0.799975082895,02,01,60.0209904009,PLT_learning_02,N,2014_Mrz_12_1657,P29,
stim_fb/ques.jpg,stim_fb/negf.jpg,stim_fb/posf.jpg,stim_02/e.jpg,stim_02/f.jpg,2,3,j,5,40,340,53,f,0,0.666506185667,02,01,60.0209904009,PLT_learning_02,N,2014_Mrz_12_1657,P29,
stim_fb/ques.jpg,stim_fb/negf.jpg,stim_fb/posf.jpg,stim_02/b.jpg,stim_02/a.jpg,1,1,f,5,41,341,0,f,1,1.19964677559,02,01,60.0209904009,PLT_learning_02,N,2014_Mrz_12_1657,P29,
stim_fb/ques.jpg,stim_fb/negf.jpg,stim_fb/posf.jpg,stim_02/d.jpg,stim_02/c.jpg,1,2,f,5,42,342,21,j,0,0.616571237812,02,01,60.0209904009,PLT_learning_02,N,2014_Mrz_12_1657,P29,
stim_fb/ques.jpg,stim_fb/negf.jpg,stim_fb/posf.jpg,stim_02/f.jpg,stim_02/e.jpg,1,3,f,5,43,343,40,f,1,0.316598948881,02,01,60.0209904009,PLT_learning_02,N,2014_Mrz_12_1657,P29,
stim_fb/ques.jpg,stim_fb/negf.jpg,stim_fb/posf.jpg,stim_02/f.jpg,stim_02/e.jpg,1,3,f,5,44,344,41,j,0,0.883113450274,02,01,60.0209904009,PLT_learning_02,N,2014_Mrz_12_1657,P29,
stim_fb/ques.jpg,stim_fb/posf.jpg,stim_fb/negf.jpg,stim_02/c.jpg,stim_02/d.jpg,2,2,j,5,45,345,38,j,1,0.583189831656,02,01,60.0209904009,PLT_learning_02,N,2014_Mrz_12_1657,P29,
stim_fb/ques.jpg,stim_fb/negf.jpg,stim_fb/posf.jpg,stim_02/d.jpg,stim_02/c.jpg,1,2,f,5,46,346,24,j,0,0.533202550358,02,01,60.0209904009,PLT_learning_02,N,2014_Mrz_12_1657,P29,
stim_fb/ques.jpg,stim_fb/negf.jpg,stim_fb/posf.jpg,stim_02/f.jpg,stim_02/e.jpg,1,3,f,5,47,347,42,j,0,1.08302129458,02,01,60.0209904009,PLT_learning_02,N,2014_Mrz_12_1657,P29,
stim_fb/ques.jpg,stim_fb/posf.jpg,stim_fb/negf.jpg,stim_02/e.jpg,stim_02/f.jpg,2,3,j,5,48,348,58,f,0,1.09971260667,02,01,60.0209904009,PLT_learning_02,N,2014_Mrz_12_1657,P29,
stim_fb/ques.jpg,stim_fb/negf.jpg,stim_fb/posf.jpg,stim_02/e.jpg,stim_02/f.jpg,2,3,j,5,49,349,50,f,0,0.683275978376,02,01,60.0209904009,PLT_learning_02,N,2014_Mrz_12_1657,P29,
stim_fb/ques.jpg,stim_fb/negf.jpg,stim_fb/posf.jpg,stim_02/a.jpg,stim_02/b.jpg,2,1,j,5,50,350,17,j,1,0.633170048344,02,01,60.0209904009,PLT_learning_02,N,2014_Mrz_12_1657,P29,
stim_fb/ques.jpg,stim_fb/negf.jpg,stim_fb/posf.jpg,stim_02/b.jpg,stim_02/a.jpg,1,1,f,5,51,351,6,j,0,0.783144953797,02,01,60.0209904009,PLT_learning_02,N,2014_Mrz_12_1657,P29,
stim_fb/ques.jpg,stim_fb/negf.jpg,stim_fb/posf.jpg,stim_02/e.jpg,stim_02/f.jpg,2,3,j,5,52,352,55,j,1,1.0996931602,02,01,60.0209904009,PLT_learning_02,N,2014_Mrz_12_1657,P29,
stim_fb/ques.jpg,stim_fb/posf.jpg,stim_fb/negf.jpg,stim_02/f.jpg,stim_02/e.jpg,1,3,f,5,53,353,48,j,0,0.749798338358,02,01,60.0209904009,PLT_learning_02,N,2014_Mrz_12_1657,P29,
stim_fb/ques.jpg,stim_fb/negf.jpg,stim_fb/posf.jpg,stim_02/a.jpg,stim_02/b.jpg,2,1,j,5,54,354,10,j,1,0.899738068136,02,01,60.0209904009,PLT_learning_02,N,2014_Mrz_12_1657,P29,
stim_fb/ques.jpg,stim_fb/negf.jpg,stim_fb/posf.jpg,stim_02/a.jpg,stim_02/b.jpg,2,1,j,5,55,355,14,f,0,1.2996269622,02,01,60.0209904009,PLT_learning_02,N,2014_Mrz_12_1657,P29,
stim_fb/ques.jpg,stim_fb/posf.jpg,stim_fb/negf.jpg,stim_02/f.jpg,stim_02/e.jpg,1,3,f,5,56,356,49,j,0,0.816439175645,02,01,60.0209904009,PLT_learning_02,N,2014_Mrz_12_1657,P29,
stim_fb/ques.jpg,stim_fb/negf.jpg,stim_fb/posf.jpg,stim_02/c.jpg,stim_02/d.jpg,2,2,j,5,57,357,36,j,1,0.81645183119,02,01,60.0209904009,PLT_learning_02,N,2014_Mrz_12_1657,P29,
stim_fb/ques.jpg,stim_fb/negf.jpg,stim_fb/posf.jpg,stim_02/a.jpg,stim_02/b.jpg,2,1,j,5,58,358,15,f,0,0.783165392742,02,01,60.0209904009,PLT_learning_02,N,2014_Mrz_12_1657,P29,
stim_fb/ques.jpg,stim_fb/negf.jpg,stim_fb/posf.jpg,stim_02/b.jpg,stim_02/a.jpg,1,1,f,5,59,359,3,j,0,0.64979903309,02,01,60.0209904009,PLT_learning_02,N,2014_Mrz_12_1657,P29,
