Fb3,Fb2,Fb1,Symbol2,Symbol1,PosCond,Pair,Correct,trials.thisRepN,trials.thisTrialN,trials.thisN,trials.thisIndex,Response.keys,Response.corr,Response.rt,Version,Session Number,frameRate,expName,StimCondition,date,Participant,
stim_fb/ques.jpg,stim_fb/posf.jpg,stim_fb/negf.jpg,stim_02/e.jpg,stim_02/f.jpg,2,3,j,0,0,0,58,f,0,0.833043684469,02,01,60.0219690565,PLT_learning_02,N,2014_Mrz_25_1444,P30,
stim_fb/ques.jpg,stim_fb/negf.jpg,stim_fb/posf.jpg,stim_02/d.jpg,stim_02/c.jpg,1,2,f,0,1,1,21,j,0,0.716497639501,02,01,60.0219690565,PLT_learning_02,N,2014_Mrz_25_1444,P30,
stim_fb/ques.jpg,stim_fb/negf.jpg,stim_fb/posf.jpg,stim_02/c.jpg,stim_02/d.jpg,2,2,j,0,2,2,34,f,0,1.09968649376,02,01,60.0219690565,PLT_learning_02,N,2014_Mrz_25_1444,P30,
stim_fb/ques.jpg,stim_fb/negf.jpg,stim_fb/posf.jpg,stim_02/c.jpg,stim_02/d.jpg,2,2,j,0,3,3,32,j,1,1.16632753766,02,01,60.0219690565,PLT_learning_02,N,2014_Mrz_25_1444,P30,
stim_fb/ques.jpg,stim_fb/negf.jpg,stim_fb/posf.jpg,stim_02/b.jpg,stim_02/a.jpg,1,1,f,0,4,4,1,f,1,0.949744281079,02,01,60.0219690565,PLT_learning_02,N,2014_Mrz_25_1444,P30,
stim_fb/ques.jpg,stim_fb/negf.jpg,stim_fb/posf.jpg,stim_02/e.jpg,stim_02/f.jpg,2,3,j,0,5,5,50,j,1,0.983054491866,02,01,60.0219690565,PLT_learning_02,N,2014_Mrz_25_1444,P30,
stim_fb/ques.jpg,stim_fb/negf.jpg,stim_fb/posf.jpg,stim_02/b.jpg,stim_02/a.jpg,1,1,f,0,6,6,4,f,1,0.93306056849,02,01,60.0219690565,PLT_learning_02,N,2014_Mrz_25_1444,P30,
stim_fb/ques.jpg,stim_fb/posf.jpg,stim_fb/negf.jpg,stim_02/e.jpg,stim_02/f.jpg,2,3,j,0,7,7,57,j,1,1.14967064281,02,01,60.0219690565,PLT_learning_02,N,2014_Mrz_25_1444,P30,
stim_fb/ques.jpg,stim_fb/posf.jpg,stim_fb/negf.jpg,stim_02/c.jpg,stim_02/d.jpg,2,2,j,0,8,8,37,j,1,0.966353817063,02,01,60.0219690565,PLT_learning_02,N,2014_Mrz_25_1444,P30,
stim_fb/ques.jpg,stim_fb/negf.jpg,stim_fb/posf.jpg,stim_02/d.jpg,stim_02/c.jpg,1,2,f,0,9,9,23,j,0,1.14968013143,02,01,60.0219690565,PLT_learning_02,N,2014_Mrz_25_1444,P30,
stim_fb/ques.jpg,stim_fb/posf.jpg,stim_fb/negf.jpg,stim_02/f.jpg,stim_02/e.jpg,1,3,f,0,10,10,47,f,1,1.03304512205,02,01,60.0219690565,PLT_learning_02,N,2014_Mrz_25_1444,P30,
stim_fb/ques.jpg,stim_fb/negf.jpg,stim_fb/posf.jpg,stim_02/d.jpg,stim_02/c.jpg,1,2,f,0,11,11,26,j,0,1.13296782066,02,01,60.0219690565,PLT_learning_02,N,2014_Mrz_25_1444,P30,
stim_fb/ques.jpg,stim_fb/negf.jpg,stim_fb/posf.jpg,stim_02/e.jpg,stim_02/f.jpg,2,3,j,0,12,12,51,j,1,1.06638551896,02,01,60.0219690565,PLT_learning_02,N,2014_Mrz_25_1444,P30,
stim_fb/ques.jpg,stim_fb/posf.jpg,stim_fb/negf.jpg,stim_02/c.jpg,stim_02/d.jpg,2,2,j,0,13,13,38,j,1,1.04969926805,02,01,60.0219690565,PLT_learning_02,N,2014_Mrz_25_1444,P30,
stim_fb/ques.jpg,stim_fb/negf.jpg,stim_fb/posf.jpg,stim_02/c.jpg,stim_02/d.jpg,2,2,j,0,14,14,31,j,1,1.06637638824,02,01,60.0219690565,PLT_learning_02,N,2014_Mrz_25_1444,P30,
stim_fb/ques.jpg,stim_fb/posf.jpg,stim_fb/negf.jpg,stim_02/c.jpg,stim_02/d.jpg,2,2,j,0,15,15,39,j,1,0.949723788078,02,01,60.0219690565,PLT_learning_02,N,2014_Mrz_25_1444,P30,
stim_fb/ques.jpg,stim_fb/posf.jpg,stim_fb/negf.jpg,stim_02/f.jpg,stim_02/e.jpg,1,3,f,0,16,16,48,f,1,1.08301925918,02,01,60.0219690565,PLT_learning_02,N,2014_Mrz_25_1444,P30,
stim_fb/ques.jpg,stim_fb/negf.jpg,stim_fb/posf.jpg,stim_02/e.jpg,stim_02/f.jpg,2,3,j,0,17,17,55,j,1,0.966403413495,02,01,60.0219690565,PLT_learning_02,N,2014_Mrz_25_1444,P30,
stim_fb/ques.jpg,stim_fb/negf.jpg,stim_fb/posf.jpg,stim_02/d.jpg,stim_02/c.jpg,1,2,f,0,18,18,22,f,1,1.09962646436,02,01,60.0219690565,PLT_learning_02,N,2014_Mrz_25_1444,P30,
stim_fb/ques.jpg,stim_fb/negf.jpg,stim_fb/posf.jpg,stim_02/f.jpg,stim_02/e.jpg,1,3,f,0,19,19,43,f,1,1.14967423676,02,01,60.0219690565,PLT_learning_02,N,2014_Mrz_25_1444,P30,
stim_fb/ques.jpg,stim_fb/negf.jpg,stim_fb/posf.jpg,stim_02/f.jpg,stim_02/e.jpg,1,3,f,0,20,20,42,f,1,0.949723875295,02,01,60.0219690565,PLT_learning_02,N,2014_Mrz_25_1444,P30,
stim_fb/ques.jpg,stim_fb/negf.jpg,stim_fb/posf.jpg,stim_02/e.jpg,stim_02/f.jpg,2,3,j,0,21,21,53,j,1,0.966398261674,02,01,60.0219690565,PLT_learning_02,N,2014_Mrz_25_1444,P30,
stim_fb/ques.jpg,stim_fb/negf.jpg,stim_fb/posf.jpg,stim_02/b.jpg,stim_02/a.jpg,1,1,f,0,22,22,7,f,1,0.933104964982,02,01,60.0219690565,PLT_learning_02,N,2014_Mrz_25_1444,P30,
stim_fb/ques.jpg,stim_fb/negf.jpg,stim_fb/posf.jpg,stim_02/a.jpg,stim_02/b.jpg,2,1,j,0,23,23,12,j,1,0.833098943997,02,01,60.0219690565,PLT_learning_02,N,2014_Mrz_25_1444,P30,
stim_fb/ques.jpg,stim_fb/posf.jpg,stim_fb/negf.jpg,stim_02/e.jpg,stim_02/f.jpg,2,3,j,0,24,24,56,f,0,1.33292953237,02,01,60.0219690565,PLT_learning_02,N,2014_Mrz_25_1444,P30,
stim_fb/ques.jpg,stim_fb/negf.jpg,stim_fb/posf.jpg,stim_02/f.jpg,stim_02/e.jpg,1,3,f,0,25,25,40,j,0,0.882955515539,02,01,60.0219690565,PLT_learning_02,N,2014_Mrz_25_1444,P30,
stim_fb/ques.jpg,stim_fb/negf.jpg,stim_fb/posf.jpg,stim_02/d.jpg,stim_02/c.jpg,1,2,f,0,26,26,20,f,1,1.04958307688,02,01,60.0219690565,PLT_learning_02,N,2014_Mrz_25_1444,P30,
stim_fb/ques.jpg,stim_fb/negf.jpg,stim_fb/posf.jpg,stim_02/b.jpg,stim_02/a.jpg,1,1,f,0,27,27,3,f,1,0.749661085026,02,01,60.0219690565,PLT_learning_02,N,2014_Mrz_25_1444,P30,
stim_fb/ques.jpg,stim_fb/negf.jpg,stim_fb/posf.jpg,stim_02/f.jpg,stim_02/e.jpg,1,3,f,0,28,28,45,j,0,1.01637566794,02,01,60.0219690565,PLT_learning_02,N,2014_Mrz_25_1444,P30,
stim_fb/ques.jpg,stim_fb/negf.jpg,stim_fb/posf.jpg,stim_02/b.jpg,stim_02/a.jpg,1,1,f,0,29,29,0,f,1,0.616494986899,02,01,60.0219690565,PLT_learning_02,N,2014_Mrz_25_1444,P30,
stim_fb/ques.jpg,stim_fb/posf.jpg,stim_fb/negf.jpg,stim_02/d.jpg,stim_02/c.jpg,1,2,f,0,30,30,27,f,1,0.999708048405,02,01,60.0219690565,PLT_learning_02,N,2014_Mrz_25_1444,P30,
stim_fb/ques.jpg,stim_fb/posf.jpg,stim_fb/negf.jpg,stim_02/d.jpg,stim_02/c.jpg,1,2,f,0,31,31,29,j,0,0.716484292283,02,01,60.0219690565,PLT_learning_02,N,2014_Mrz_25_1444,P30,
stim_fb/ques.jpg,stim_fb/posf.jpg,stim_fb/negf.jpg,stim_02/b.jpg,stim_02/a.jpg,1,1,f,0,32,32,8,f,1,0.68317559426,02,01,60.0219690565,PLT_learning_02,N,2014_Mrz_25_1444,P30,
stim_fb/ques.jpg,stim_fb/posf.jpg,stim_fb/negf.jpg,stim_02/b.jpg,stim_02/a.jpg,1,1,f,0,33,33,9,f,1,0.716471122506,02,01,60.0219690565,PLT_learning_02,N,2014_Mrz_25_1444,P30,
stim_fb/ques.jpg,stim_fb/negf.jpg,stim_fb/posf.jpg,stim_02/c.jpg,stim_02/d.jpg,2,2,j,0,34,34,36,f,0,0.849755709522,02,01,60.0219690565,PLT_learning_02,N,2014_Mrz_25_1444,P30,
stim_fb/ques.jpg,stim_fb/posf.jpg,stim_fb/negf.jpg,stim_02/a.jpg,stim_02/b.jpg,2,1,j,0,35,35,19,j,1,0.749801074424,02,01,60.0219690565,PLT_learning_02,N,2014_Mrz_25_1444,P30,
stim_fb/ques.jpg,stim_fb/posf.jpg,stim_fb/negf.jpg,stim_02/a.jpg,stim_02/b.jpg,2,1,j,0,36,36,18,j,1,0.733138468363,02,01,60.0219690565,PLT_learning_02,N,2014_Mrz_25_1444,P30,
stim_fb/ques.jpg,stim_fb/negf.jpg,stim_fb/posf.jpg,stim_02/d.jpg,stim_02/c.jpg,1,2,f,0,37,37,25,f,1,1.0330389958,02,01,60.0219690565,PLT_learning_02,N,2014_Mrz_25_1444,P30,
stim_fb/ques.jpg,stim_fb/negf.jpg,stim_fb/posf.jpg,stim_02/b.jpg,stim_02/a.jpg,1,1,f,0,38,38,6,j,0,0.816456109142,02,01,60.0219690565,PLT_learning_02,N,2014_Mrz_25_1444,P30,
stim_fb/ques.jpg,stim_fb/negf.jpg,stim_fb/posf.jpg,stim_02/a.jpg,stim_02/b.jpg,2,1,j,0,39,39,10,j,1,0.78315026823,02,01,60.0219690565,PLT_learning_02,N,2014_Mrz_25_1444,P30,
stim_fb/ques.jpg,stim_fb/posf.jpg,stim_fb/negf.jpg,stim_02/e.jpg,stim_02/f.jpg,2,3,j,0,40,40,59,f,0,0.833133499998,02,01,60.0219690565,PLT_learning_02,N,2014_Mrz_25_1444,P30,
stim_fb/ques.jpg,stim_fb/negf.jpg,stim_fb/posf.jpg,stim_02/a.jpg,stim_02/b.jpg,2,1,j,0,41,41,16,f,0,0.949703986797,02,01,60.0219690565,PLT_learning_02,N,2014_Mrz_25_1444,P30,
stim_fb/ques.jpg,stim_fb/negf.jpg,stim_fb/posf.jpg,stim_02/c.jpg,stim_02/d.jpg,2,2,j,0,42,42,30,j,1,0.683157386947,02,01,60.0219690565,PLT_learning_02,N,2014_Mrz_25_1444,P30,
stim_fb/ques.jpg,stim_fb/posf.jpg,stim_fb/negf.jpg,stim_02/f.jpg,stim_02/e.jpg,1,3,f,0,43,43,46,f,1,0.866451070101,02,01,60.0219690565,PLT_learning_02,N,2014_Mrz_25_1444,P30,
stim_fb/ques.jpg,stim_fb/negf.jpg,stim_fb/posf.jpg,stim_02/c.jpg,stim_02/d.jpg,2,2,j,0,44,44,35,j,1,0.949738470618,02,01,60.0219690565,PLT_learning_02,N,2014_Mrz_25_1444,P30,
stim_fb/ques.jpg,stim_fb/negf.jpg,stim_fb/posf.jpg,stim_02/f.jpg,stim_02/e.jpg,1,3,f,0,45,45,41,j,0,0.683036471017,02,01,60.0219690565,PLT_learning_02,N,2014_Mrz_25_1444,P30,
stim_fb/ques.jpg,stim_fb/posf.jpg,stim_fb/negf.jpg,stim_02/f.jpg,stim_02/e.jpg,1,3,f,0,46,46,49,j,0,0.583182965605,02,01,60.0219690565,PLT_learning_02,N,2014_Mrz_25_1444,P30,
stim_fb/ques.jpg,stim_fb/posf.jpg,stim_fb/negf.jpg,stim_02/d.jpg,stim_02/c.jpg,1,2,f,0,47,47,28,f,1,0.866429410195,02,01,60.0219690565,PLT_learning_02,N,2014_Mrz_25_1444,P30,
stim_fb/ques.jpg,stim_fb/negf.jpg,stim_fb/posf.jpg,stim_02/a.jpg,stim_02/b.jpg,2,1,j,0,48,48,14,j,1,0.683094719984,02,01,60.0219690565,PLT_learning_02,N,2014_Mrz_25_1444,P30,
stim_fb/ques.jpg,stim_fb/negf.jpg,stim_fb/posf.jpg,stim_02/a.jpg,stim_02/b.jpg,2,1,j,0,49,49,17,j,1,0.783112767901,02,01,60.0219690565,PLT_learning_02,N,2014_Mrz_25_1444,P30,
stim_fb/ques.jpg,stim_fb/negf.jpg,stim_fb/posf.jpg,stim_02/d.jpg,stim_02/c.jpg,1,2,f,0,50,50,24,j,0,0.76645473021,02,01,60.0219690565,PLT_learning_02,N,2014_Mrz_25_1444,P30,
stim_fb/ques.jpg,stim_fb/negf.jpg,stim_fb/posf.jpg,stim_02/a.jpg,stim_02/b.jpg,2,1,j,0,51,51,11,j,1,0.783109913798,02,01,60.0219690565,PLT_learning_02,N,2014_Mrz_25_1444,P30,
stim_fb/ques.jpg,stim_fb/negf.jpg,stim_fb/posf.jpg,stim_02/e.jpg,stim_02/f.jpg,2,3,j,0,52,52,52,f,0,0.783131336113,02,01,60.0219690565,PLT_learning_02,N,2014_Mrz_25_1444,P30,
stim_fb/ques.jpg,stim_fb/negf.jpg,stim_fb/posf.jpg,stim_02/f.jpg,stim_02/e.jpg,1,3,f,0,53,53,44,j,0,0.666488242614,02,01,60.0219690565,PLT_learning_02,N,2014_Mrz_25_1444,P30,
stim_fb/ques.jpg,stim_fb/negf.jpg,stim_fb/posf.jpg,stim_02/a.jpg,stim_02/b.jpg,2,1,j,0,54,54,15,j,1,0.89986174592,02,01,60.0219690565,PLT_learning_02,N,2014_Mrz_25_1444,P30,
stim_fb/ques.jpg,stim_fb/negf.jpg,stim_fb/posf.jpg,stim_02/e.jpg,stim_02/f.jpg,2,3,j,0,55,55,54,f,0,0.666516648308,02,01,60.0219690565,PLT_learning_02,N,2014_Mrz_25_1444,P30,
stim_fb/ques.jpg,stim_fb/negf.jpg,stim_fb/posf.jpg,stim_02/a.jpg,stim_02/b.jpg,2,1,j,0,56,56,13,j,1,0.84977508374,02,01,60.0219690565,PLT_learning_02,N,2014_Mrz_25_1444,P30,
stim_fb/ques.jpg,stim_fb/negf.jpg,stim_fb/posf.jpg,stim_02/c.jpg,stim_02/d.jpg,2,2,j,0,57,57,33,j,1,0.949836863494,02,01,60.0219690565,PLT_learning_02,N,2014_Mrz_25_1444,P30,
stim_fb/ques.jpg,stim_fb/negf.jpg,stim_fb/posf.jpg,stim_02/b.jpg,stim_02/a.jpg,1,1,f,0,58,58,2,f,1,0.766480311876,02,01,60.0219690565,PLT_learning_02,N,2014_Mrz_25_1444,P30,
stim_fb/ques.jpg,stim_fb/negf.jpg,stim_fb/posf.jpg,stim_02/b.jpg,stim_02/a.jpg,1,1,f,0,59,59,5,f,1,0.716493976383,02,01,60.0219690565,PLT_learning_02,N,2014_Mrz_25_1444,P30,
stim_fb/ques.jpg,stim_fb/negf.jpg,stim_fb/posf.jpg,stim_02/a.jpg,stim_02/b.jpg,2,1,j,1,0,60,11,j,1,0.749781649079,02,01,60.0219690565,PLT_learning_02,N,2014_Mrz_25_1444,P30,
stim_fb/ques.jpg,stim_fb/posf.jpg,stim_fb/negf.jpg,stim_02/f.jpg,stim_02/e.jpg,1,3,f,1,1,61,47,f,1,0.666517075371,02,01,60.0219690565,PLT_learning_02,N,2014_Mrz_25_1444,P30,
stim_fb/ques.jpg,stim_fb/posf.jpg,stim_fb/negf.jpg,stim_02/a.jpg,stim_02/b.jpg,2,1,j,1,2,62,19,j,1,0.799777031086,02,01,60.0219690565,PLT_learning_02,N,2014_Mrz_25_1444,P30,
stim_fb/ques.jpg,stim_fb/negf.jpg,stim_fb/posf.jpg,stim_02/e.jpg,stim_02/f.jpg,2,3,j,1,3,63,53,f,0,0.516524219652,02,01,60.0219690565,PLT_learning_02,N,2014_Mrz_25_1444,P30,
stim_fb/ques.jpg,stim_fb/negf.jpg,stim_fb/posf.jpg,stim_02/a.jpg,stim_02/b.jpg,2,1,j,1,4,64,10,j,1,0.53324202509,02,01,60.0219690565,PLT_learning_02,N,2014_Mrz_25_1444,P30,
stim_fb/ques.jpg,stim_fb/posf.jpg,stim_fb/negf.jpg,stim_02/d.jpg,stim_02/c.jpg,1,2,f,1,5,65,27,f,1,0.933084111082,02,01,60.0219690565,PLT_learning_02,N,2014_Mrz_25_1444,P30,
stim_fb/ques.jpg,stim_fb/negf.jpg,stim_fb/posf.jpg,stim_02/b.jpg,stim_02/a.jpg,1,1,f,1,6,66,0,j,0,0.849768954486,02,01,60.0219690565,PLT_learning_02,N,2014_Mrz_25_1444,P30,
stim_fb/ques.jpg,stim_fb/negf.jpg,stim_fb/posf.jpg,stim_02/d.jpg,stim_02/c.jpg,1,2,f,1,7,67,23,j,0,0.783122082082,02,01,60.0219690565,PLT_learning_02,N,2014_Mrz_25_1444,P30,
stim_fb/ques.jpg,stim_fb/negf.jpg,stim_fb/posf.jpg,stim_02/f.jpg,stim_02/e.jpg,1,3,f,1,8,68,45,j,0,0.649833765784,02,01,60.0219690565,PLT_learning_02,N,2014_Mrz_25_1444,P30,
stim_fb/ques.jpg,stim_fb/negf.jpg,stim_fb/posf.jpg,stim_02/f.jpg,stim_02/e.jpg,1,3,f,1,9,69,41,j,0,0.916634257508,02,01,60.0219690565,PLT_learning_02,N,2014_Mrz_25_1444,P30,
stim_fb/ques.jpg,stim_fb/negf.jpg,stim_fb/posf.jpg,stim_02/c.jpg,stim_02/d.jpg,2,2,j,1,10,70,36,j,1,0.916357502735,02,01,60.0219690565,PLT_learning_02,N,2014_Mrz_25_1444,P30,
stim_fb/ques.jpg,stim_fb/negf.jpg,stim_fb/posf.jpg,stim_02/b.jpg,stim_02/a.jpg,1,1,f,1,11,71,2,f,1,0.783131330098,02,01,60.0219690565,PLT_learning_02,N,2014_Mrz_25_1444,P30,
stim_fb/ques.jpg,stim_fb/negf.jpg,stim_fb/posf.jpg,stim_02/d.jpg,stim_02/c.jpg,1,2,f,1,12,72,24,j,0,0.883087580215,02,01,60.0219690565,PLT_learning_02,N,2014_Mrz_25_1444,P30,
stim_fb/ques.jpg,stim_fb/posf.jpg,stim_fb/negf.jpg,stim_02/c.jpg,stim_02/d.jpg,2,2,j,1,13,73,37,j,1,1.31628457423,02,01,60.0219690565,PLT_learning_02,N,2014_Mrz_25_1444,P30,
stim_fb/ques.jpg,stim_fb/negf.jpg,stim_fb/posf.jpg,stim_02/f.jpg,stim_02/e.jpg,1,3,f,1,14,74,40,j,0,0.749821552388,02,01,60.0219690565,PLT_learning_02,N,2014_Mrz_25_1444,P30,
stim_fb/ques.jpg,stim_fb/negf.jpg,stim_fb/posf.jpg,stim_02/d.jpg,stim_02/c.jpg,1,2,f,1,15,75,20,f,1,0.583184324989,02,01,60.0219690565,PLT_learning_02,N,2014_Mrz_25_1444,P30,
stim_fb/ques.jpg,stim_fb/negf.jpg,stim_fb/posf.jpg,stim_02/c.jpg,stim_02/d.jpg,2,2,j,1,16,76,31,f,0,0.91641073221,02,01,60.0219690565,PLT_learning_02,N,2014_Mrz_25_1444,P30,
stim_fb/ques.jpg,stim_fb/negf.jpg,stim_fb/posf.jpg,stim_02/e.jpg,stim_02/f.jpg,2,3,j,1,17,77,52,f,0,0.666476044255,02,01,60.0219690565,PLT_learning_02,N,2014_Mrz_25_1444,P30,
stim_fb/ques.jpg,stim_fb/negf.jpg,stim_fb/posf.jpg,stim_02/a.jpg,stim_02/b.jpg,2,1,j,1,18,78,15,j,1,0.199997461682,02,01,60.0219690565,PLT_learning_02,N,2014_Mrz_25_1444,P30,
stim_fb/ques.jpg,stim_fb/negf.jpg,stim_fb/posf.jpg,stim_02/f.jpg,stim_02/e.jpg,1,3,f,1,19,79,42,j,0,0.5664904471,02,01,60.0219690565,PLT_learning_02,N,2014_Mrz_25_1444,P30,
stim_fb/ques.jpg,stim_fb/posf.jpg,stim_fb/negf.jpg,stim_02/e.jpg,stim_02/f.jpg,2,3,j,1,20,80,56,f,0,0.499869604479,02,01,60.0219690565,PLT_learning_02,N,2014_Mrz_25_1444,P30,
stim_fb/ques.jpg,stim_fb/negf.jpg,stim_fb/posf.jpg,stim_02/c.jpg,stim_02/d.jpg,2,2,j,1,21,81,30,j,1,0.833147358489,02,01,60.0219690565,PLT_learning_02,N,2014_Mrz_25_1444,P30,
stim_fb/ques.jpg,stim_fb/negf.jpg,stim_fb/posf.jpg,stim_02/d.jpg,stim_02/c.jpg,1,2,f,1,22,82,22,f,1,0.899717771605,02,01,60.0219690565,PLT_learning_02,N,2014_Mrz_25_1444,P30,
stim_fb/ques.jpg,stim_fb/negf.jpg,stim_fb/posf.jpg,stim_02/a.jpg,stim_02/b.jpg,2,1,j,1,23,83,12,j,1,0.499898885351,02,01,60.0219690565,PLT_learning_02,N,2014_Mrz_25_1444,P30,
stim_fb/ques.jpg,stim_fb/posf.jpg,stim_fb/negf.jpg,stim_02/b.jpg,stim_02/a.jpg,1,1,f,1,24,84,9,f,1,0.533194576001,02,01,60.0219690565,PLT_learning_02,N,2014_Mrz_25_1444,P30,
stim_fb/ques.jpg,stim_fb/negf.jpg,stim_fb/posf.jpg,stim_02/b.jpg,stim_02/a.jpg,1,1,f,1,25,85,4,f,1,0.616526093315,02,01,60.0219690565,PLT_learning_02,N,2014_Mrz_25_1444,P30,
stim_fb/ques.jpg,stim_fb/negf.jpg,stim_fb/posf.jpg,stim_02/a.jpg,stim_02/b.jpg,2,1,j,1,26,86,13,j,1,0.583169525156,02,01,60.0219690565,PLT_learning_02,N,2014_Mrz_25_1444,P30,
stim_fb/ques.jpg,stim_fb/posf.jpg,stim_fb/negf.jpg,stim_02/d.jpg,stim_02/c.jpg,1,2,f,1,27,87,28,j,0,0.899689645606,02,01,60.0219690565,PLT_learning_02,N,2014_Mrz_25_1444,P30,
stim_fb/ques.jpg,stim_fb/posf.jpg,stim_fb/negf.jpg,stim_02/b.jpg,stim_02/a.jpg,1,1,f,1,28,88,8,f,1,0.566518732496,02,01,60.0219690565,PLT_learning_02,N,2014_Mrz_25_1444,P30,
stim_fb/ques.jpg,stim_fb/negf.jpg,stim_fb/posf.jpg,stim_02/f.jpg,stim_02/e.jpg,1,3,f,1,29,89,43,j,0,0.633171325135,02,01,60.0219690565,PLT_learning_02,N,2014_Mrz_25_1444,P30,
stim_fb/ques.jpg,stim_fb/posf.jpg,stim_fb/negf.jpg,stim_02/f.jpg,stim_02/e.jpg,1,3,f,1,30,90,48,j,0,0.699810988597,02,01,60.0219690565,PLT_learning_02,N,2014_Mrz_25_1444,P30,
stim_fb/ques.jpg,stim_fb/negf.jpg,stim_fb/posf.jpg,stim_02/e.jpg,stim_02/f.jpg,2,3,j,1,31,91,54,f,0,0.533160804953,02,01,60.0219690565,PLT_learning_02,N,2014_Mrz_25_1444,P30,
stim_fb/ques.jpg,stim_fb/posf.jpg,stim_fb/negf.jpg,stim_02/e.jpg,stim_02/f.jpg,2,3,j,1,32,92,58,f,0,0.583200478191,02,01,60.0219690565,PLT_learning_02,N,2014_Mrz_25_1444,P30,
stim_fb/ques.jpg,stim_fb/negf.jpg,stim_fb/posf.jpg,stim_02/c.jpg,stim_02/d.jpg,2,2,j,1,33,93,33,j,1,0.766462089525,02,01,60.0219690565,PLT_learning_02,N,2014_Mrz_25_1444,P30,
stim_fb/ques.jpg,stim_fb/negf.jpg,stim_fb/posf.jpg,stim_02/d.jpg,stim_02/c.jpg,1,2,f,1,34,94,25,f,1,0.699779211513,02,01,60.0219690565,PLT_learning_02,N,2014_Mrz_25_1444,P30,
stim_fb/ques.jpg,stim_fb/posf.jpg,stim_fb/negf.jpg,stim_02/c.jpg,stim_02/d.jpg,2,2,j,1,35,95,39,j,1,0.666531400022,02,01,60.0219690565,PLT_learning_02,N,2014_Mrz_25_1444,P30,
stim_fb/ques.jpg,stim_fb/negf.jpg,stim_fb/posf.jpg,stim_02/b.jpg,stim_02/a.jpg,1,1,f,1,36,96,3,f,1,0.566551029876,02,01,60.0219690565,PLT_learning_02,N,2014_Mrz_25_1444,P30,
stim_fb/ques.jpg,stim_fb/posf.jpg,stim_fb/negf.jpg,stim_02/e.jpg,stim_02/f.jpg,2,3,j,1,37,97,57,f,0,0.749740281125,02,01,60.0219690565,PLT_learning_02,N,2014_Mrz_25_1444,P30,
stim_fb/ques.jpg,stim_fb/posf.jpg,stim_fb/negf.jpg,stim_02/f.jpg,stim_02/e.jpg,1,3,f,1,38,98,49,j,0,0.749751763702,02,01,60.0219690565,PLT_learning_02,N,2014_Mrz_25_1444,P30,
stim_fb/ques.jpg,stim_fb/negf.jpg,stim_fb/posf.jpg,stim_02/e.jpg,stim_02/f.jpg,2,3,j,1,39,99,51,f,0,0.633160335786,02,01,60.0219690565,PLT_learning_02,N,2014_Mrz_25_1444,P30,
stim_fb/ques.jpg,stim_fb/negf.jpg,stim_fb/posf.jpg,stim_02/a.jpg,stim_02/b.jpg,2,1,j,1,40,100,14,j,1,0.516543455525,02,01,60.0219690565,PLT_learning_02,N,2014_Mrz_25_1444,P30,
stim_fb/ques.jpg,stim_fb/negf.jpg,stim_fb/posf.jpg,stim_02/b.jpg,stim_02/a.jpg,1,1,f,1,41,101,1,f,1,0.633146880298,02,01,60.0219690565,PLT_learning_02,N,2014_Mrz_25_1444,P30,
stim_fb/ques.jpg,stim_fb/posf.jpg,stim_fb/negf.jpg,stim_02/e.jpg,stim_02/f.jpg,2,3,j,1,42,102,59,f,0,0.783153919318,02,01,60.0219690565,PLT_learning_02,N,2014_Mrz_25_1444,P30,
stim_fb/ques.jpg,stim_fb/negf.jpg,stim_fb/posf.jpg,stim_02/d.jpg,stim_02/c.jpg,1,2,f,1,43,103,21,j,0,0.799776237111,02,01,60.0219690565,PLT_learning_02,N,2014_Mrz_25_1444,P30,
stim_fb/ques.jpg,stim_fb/negf.jpg,stim_fb/posf.jpg,stim_02/e.jpg,stim_02/f.jpg,2,3,j,1,44,104,55,f,0,0.799776032602,02,01,60.0219690565,PLT_learning_02,N,2014_Mrz_25_1444,P30,
stim_fb/ques.jpg,stim_fb/negf.jpg,stim_fb/posf.jpg,stim_02/a.jpg,stim_02/b.jpg,2,1,j,1,45,105,16,j,1,0.716478487837,02,01,60.0219690565,PLT_learning_02,N,2014_Mrz_25_1444,P30,
stim_fb/ques.jpg,stim_fb/negf.jpg,stim_fb/posf.jpg,stim_02/c.jpg,stim_02/d.jpg,2,2,j,1,46,106,34,j,1,0.816435739446,02,01,60.0219690565,PLT_learning_02,N,2014_Mrz_25_1444,P30,
stim_fb/ques.jpg,stim_fb/posf.jpg,stim_fb/negf.jpg,stim_02/f.jpg,stim_02/e.jpg,1,3,f,1,47,107,46,j,0,0.983079240459,02,01,60.0219690565,PLT_learning_02,N,2014_Mrz_25_1444,P30,
stim_fb/ques.jpg,stim_fb/negf.jpg,stim_fb/posf.jpg,stim_02/b.jpg,stim_02/a.jpg,1,1,f,1,48,108,6,f,1,0.933058451221,02,01,60.0219690565,PLT_learning_02,N,2014_Mrz_25_1444,P30,
stim_fb/ques.jpg,stim_fb/negf.jpg,stim_fb/posf.jpg,stim_02/b.jpg,stim_02/a.jpg,1,1,f,1,49,109,5,f,1,0.699805827754,02,01,60.0219690565,PLT_learning_02,N,2014_Mrz_25_1444,P30,
stim_fb/ques.jpg,stim_fb/posf.jpg,stim_fb/negf.jpg,stim_02/c.jpg,stim_02/d.jpg,2,2,j,1,50,110,38,f,0,0.899743001394,02,01,60.0219690565,PLT_learning_02,N,2014_Mrz_25_1444,P30,
stim_fb/ques.jpg,stim_fb/negf.jpg,stim_fb/posf.jpg,stim_02/a.jpg,stim_02/b.jpg,2,1,j,1,51,111,17,j,1,0.966372400311,02,01,60.0219690565,PLT_learning_02,N,2014_Mrz_25_1444,P30,
stim_fb/ques.jpg,stim_fb/posf.jpg,stim_fb/negf.jpg,stim_02/a.jpg,stim_02/b.jpg,2,1,j,1,52,112,18,j,1,0.716492478657,02,01,60.0219690565,PLT_learning_02,N,2014_Mrz_25_1444,P30,
stim_fb/ques.jpg,stim_fb/negf.jpg,stim_fb/posf.jpg,stim_02/d.jpg,stim_02/c.jpg,1,2,f,1,53,113,26,f,1,1.09968788021,02,01,60.0219690565,PLT_learning_02,N,2014_Mrz_25_1444,P30,
stim_fb/ques.jpg,stim_fb/posf.jpg,stim_fb/negf.jpg,stim_02/d.jpg,stim_02/c.jpg,1,2,f,1,54,114,29,f,1,0.849736401469,02,01,60.0219690565,PLT_learning_02,N,2014_Mrz_25_1444,P30,
stim_fb/ques.jpg,stim_fb/negf.jpg,stim_fb/posf.jpg,stim_02/f.jpg,stim_02/e.jpg,1,3,f,1,55,115,44,j,0,0.566505788281,02,01,60.0219690565,PLT_learning_02,N,2014_Mrz_25_1444,P30,
stim_fb/ques.jpg,stim_fb/negf.jpg,stim_fb/posf.jpg,stim_02/c.jpg,stim_02/d.jpg,2,2,j,1,56,116,35,j,1,0.916426139554,02,01,60.0219690565,PLT_learning_02,N,2014_Mrz_25_1444,P30,
stim_fb/ques.jpg,stim_fb/negf.jpg,stim_fb/posf.jpg,stim_02/b.jpg,stim_02/a.jpg,1,1,f,1,57,117,7,f,1,0.633182007722,02,01,60.0219690565,PLT_learning_02,N,2014_Mrz_25_1444,P30,
stim_fb/ques.jpg,stim_fb/negf.jpg,stim_fb/posf.jpg,stim_02/e.jpg,stim_02/f.jpg,2,3,j,1,58,118,50,f,0,0.766470116503,02,01,60.0219690565,PLT_learning_02,N,2014_Mrz_25_1444,P30,
stim_fb/ques.jpg,stim_fb/negf.jpg,stim_fb/posf.jpg,stim_02/c.jpg,stim_02/d.jpg,2,2,j,1,59,119,32,j,1,1.09969685154,02,01,60.0219690565,PLT_learning_02,N,2014_Mrz_25_1444,P30,
stim_fb/ques.jpg,stim_fb/negf.jpg,stim_fb/posf.jpg,stim_02/a.jpg,stim_02/b.jpg,2,1,j,2,0,120,17,j,1,0.699829457563,02,01,60.0219690565,PLT_learning_02,N,2014_Mrz_25_1444,P30,
stim_fb/ques.jpg,stim_fb/negf.jpg,stim_fb/posf.jpg,stim_02/b.jpg,stim_02/a.jpg,1,1,f,2,1,121,0,f,1,0.732142873577,02,01,60.0219690565,PLT_learning_02,N,2014_Mrz_25_1444,P30,
stim_fb/ques.jpg,stim_fb/negf.jpg,stim_fb/posf.jpg,stim_02/e.jpg,stim_02/f.jpg,2,3,j,2,2,122,53,f,0,0.666495502683,02,01,60.0219690565,PLT_learning_02,N,2014_Mrz_25_1444,P30,
stim_fb/ques.jpg,stim_fb/negf.jpg,stim_fb/posf.jpg,stim_02/b.jpg,stim_02/a.jpg,1,1,f,2,3,123,2,f,1,0.583168033443,02,01,60.0219690565,PLT_learning_02,N,2014_Mrz_25_1444,P30,
stim_fb/ques.jpg,stim_fb/negf.jpg,stim_fb/posf.jpg,stim_02/f.jpg,stim_02/e.jpg,1,3,f,2,4,124,44,j,0,0.53323848528,02,01,60.0219690565,PLT_learning_02,N,2014_Mrz_25_1444,P30,
stim_fb/ques.jpg,stim_fb/negf.jpg,stim_fb/posf.jpg,stim_02/a.jpg,stim_02/b.jpg,2,1,j,2,5,125,10,j,1,0.683161119235,02,01,60.0219690565,PLT_learning_02,N,2014_Mrz_25_1444,P30,
stim_fb/ques.jpg,stim_fb/negf.jpg,stim_fb/posf.jpg,stim_02/a.jpg,stim_02/b.jpg,2,1,j,2,6,126,13,j,1,0.533197345895,02,01,60.0219690565,PLT_learning_02,N,2014_Mrz_25_1444,P30,
stim_fb/ques.jpg,stim_fb/posf.jpg,stim_fb/negf.jpg,stim_02/a.jpg,stim_02/b.jpg,2,1,j,2,7,127,19,j,1,0.666352599031,02,01,60.0219690565,PLT_learning_02,N,2014_Mrz_25_1444,P30,
stim_fb/ques.jpg,stim_fb/negf.jpg,stim_fb/posf.jpg,stim_02/f.jpg,stim_02/e.jpg,1,3,f,2,8,128,43,f,1,0.499880945704,02,01,60.0219690565,PLT_learning_02,N,2014_Mrz_25_1444,P30,
stim_fb/ques.jpg,stim_fb/negf.jpg,stim_fb/posf.jpg,stim_02/d.jpg,stim_02/c.jpg,1,2,f,2,9,129,26,j,0,1.03300561272,02,01,60.0219690565,PLT_learning_02,N,2014_Mrz_25_1444,P30,
stim_fb/ques.jpg,stim_fb/negf.jpg,stim_fb/posf.jpg,stim_02/c.jpg,stim_02/d.jpg,2,2,j,2,10,130,34,j,1,0.616672013473,02,01,60.0219690565,PLT_learning_02,N,2014_Mrz_25_1444,P30,
stim_fb/ques.jpg,stim_fb/negf.jpg,stim_fb/posf.jpg,stim_02/a.jpg,stim_02/b.jpg,2,1,j,2,11,131,16,j,1,0.733138766104,02,01,60.0219690565,PLT_learning_02,N,2014_Mrz_25_1444,P30,
stim_fb/ques.jpg,stim_fb/negf.jpg,stim_fb/posf.jpg,stim_02/c.jpg,stim_02/d.jpg,2,2,j,2,12,132,35,j,1,0.849755634335,02,01,60.0219690565,PLT_learning_02,N,2014_Mrz_25_1444,P30,
stim_fb/ques.jpg,stim_fb/posf.jpg,stim_fb/negf.jpg,stim_02/a.jpg,stim_02/b.jpg,2,1,j,2,13,133,18,j,1,0.649817826115,02,01,60.0219690565,PLT_learning_02,N,2014_Mrz_25_1444,P30,
stim_fb/ques.jpg,stim_fb/negf.jpg,stim_fb/posf.jpg,stim_02/a.jpg,stim_02/b.jpg,2,1,j,2,14,134,14,j,1,0.549856222674,02,01,60.0219690565,PLT_learning_02,N,2014_Mrz_25_1444,P30,
stim_fb/ques.jpg,stim_fb/posf.jpg,stim_fb/negf.jpg,stim_02/c.jpg,stim_02/d.jpg,2,2,j,2,15,135,39,j,1,0.616509567186,02,01,60.0219690565,PLT_learning_02,N,2014_Mrz_25_1444,P30,
stim_fb/ques.jpg,stim_fb/negf.jpg,stim_fb/posf.jpg,stim_02/d.jpg,stim_02/c.jpg,1,2,f,2,16,136,23,f,1,0.816402154863,02,01,60.0219690565,PLT_learning_02,N,2014_Mrz_25_1444,P30,
stim_fb/ques.jpg,stim_fb/negf.jpg,stim_fb/posf.jpg,stim_02/f.jpg,stim_02/e.jpg,1,3,f,2,17,137,41,j,0,0.649810084848,02,01,60.0219690565,PLT_learning_02,N,2014_Mrz_25_1444,P30,
stim_fb/ques.jpg,stim_fb/posf.jpg,stim_fb/negf.jpg,stim_02/d.jpg,stim_02/c.jpg,1,2,f,2,18,138,28,f,1,0.716464614309,02,01,60.0219690565,PLT_learning_02,N,2014_Mrz_25_1444,P30,
stim_fb/ques.jpg,stim_fb/negf.jpg,stim_fb/posf.jpg,stim_02/c.jpg,stim_02/d.jpg,2,2,j,2,19,139,31,j,1,0.71648419905,02,01,60.0219690565,PLT_learning_02,N,2014_Mrz_25_1444,P30,
stim_fb/ques.jpg,stim_fb/negf.jpg,stim_fb/posf.jpg,stim_02/c.jpg,stim_02/d.jpg,2,2,j,2,20,140,30,j,1,0.699815397571,02,01,60.0219690565,PLT_learning_02,N,2014_Mrz_25_1444,P30,
stim_fb/ques.jpg,stim_fb/negf.jpg,stim_fb/posf.jpg,stim_02/b.jpg,stim_02/a.jpg,1,1,f,2,21,141,1,f,1,0.633185779108,02,01,60.0219690565,PLT_learning_02,N,2014_Mrz_25_1444,P30,
stim_fb/ques.jpg,stim_fb/posf.jpg,stim_fb/negf.jpg,stim_02/f.jpg,stim_02/e.jpg,1,3,f,2,22,142,47,j,0,0.699802742074,02,01,60.0219690565,PLT_learning_02,N,2014_Mrz_25_1444,P30,
stim_fb/ques.jpg,stim_fb/negf.jpg,stim_fb/posf.jpg,stim_02/b.jpg,stim_02/a.jpg,1,1,f,2,23,143,6,f,1,0.549882772751,02,01,60.0219690565,PLT_learning_02,N,2014_Mrz_25_1444,P30,
stim_fb/ques.jpg,stim_fb/negf.jpg,stim_fb/posf.jpg,stim_02/e.jpg,stim_02/f.jpg,2,3,j,2,24,144,51,f,0,0.683169116138,02,01,60.0219690565,PLT_learning_02,N,2014_Mrz_25_1444,P30,
stim_fb/ques.jpg,stim_fb/negf.jpg,stim_fb/posf.jpg,stim_02/c.jpg,stim_02/d.jpg,2,2,j,2,25,145,36,j,1,0.899753662929,02,01,60.0219690565,PLT_learning_02,N,2014_Mrz_25_1444,P30,
stim_fb/ques.jpg,stim_fb/posf.jpg,stim_fb/negf.jpg,stim_02/f.jpg,stim_02/e.jpg,1,3,f,2,26,146,49,j,0,0.599858124908,02,01,60.0219690565,PLT_learning_02,N,2014_Mrz_25_1444,P30,
stim_fb/ques.jpg,stim_fb/negf.jpg,stim_fb/posf.jpg,stim_02/d.jpg,stim_02/c.jpg,1,2,f,2,27,147,25,f,1,0.766430414695,02,01,60.0219690565,PLT_learning_02,N,2014_Mrz_25_1444,P30,
stim_fb/ques.jpg,stim_fb/negf.jpg,stim_fb/posf.jpg,stim_02/b.jpg,stim_02/a.jpg,1,1,f,2,28,148,5,f,1,0.449900005639,02,01,60.0219690565,PLT_learning_02,N,2014_Mrz_25_1444,P30,
stim_fb/ques.jpg,stim_fb/posf.jpg,stim_fb/negf.jpg,stim_02/d.jpg,stim_02/c.jpg,1,2,f,2,29,149,29,f,1,0.549844704007,02,01,60.0219690565,PLT_learning_02,N,2014_Mrz_25_1444,P30,
stim_fb/ques.jpg,stim_fb/posf.jpg,stim_fb/negf.jpg,stim_02/e.jpg,stim_02/f.jpg,2,3,j,2,30,150,57,f,0,0.566469277414,02,01,60.0219690565,PLT_learning_02,N,2014_Mrz_25_1444,P30,
stim_fb/ques.jpg,stim_fb/posf.jpg,stim_fb/negf.jpg,stim_02/b.jpg,stim_02/a.jpg,1,1,f,2,31,151,9,f,1,0.516545250994,02,01,60.0219690565,PLT_learning_02,N,2014_Mrz_25_1444,P30,
stim_fb/ques.jpg,stim_fb/negf.jpg,stim_fb/posf.jpg,stim_02/d.jpg,stim_02/c.jpg,1,2,f,2,32,152,20,f,1,0.633188509904,02,01,60.0219690565,PLT_learning_02,N,2014_Mrz_25_1444,P30,
stim_fb/ques.jpg,stim_fb/negf.jpg,stim_fb/posf.jpg,stim_02/c.jpg,stim_02/d.jpg,2,2,j,2,33,153,33,j,1,0.71649021402,02,01,60.0219690565,PLT_learning_02,N,2014_Mrz_25_1444,P30,
stim_fb/ques.jpg,stim_fb/posf.jpg,stim_fb/negf.jpg,stim_02/f.jpg,stim_02/e.jpg,1,3,f,2,34,154,46,j,0,0.766470711985,02,01,60.0219690565,PLT_learning_02,N,2014_Mrz_25_1444,P30,
stim_fb/ques.jpg,stim_fb/posf.jpg,stim_fb/negf.jpg,stim_02/f.jpg,stim_02/e.jpg,1,3,f,2,35,155,48,j,0,0.633161352315,02,01,60.0219690565,PLT_learning_02,N,2014_Mrz_25_1444,P30,
stim_fb/ques.jpg,stim_fb/posf.jpg,stim_fb/negf.jpg,stim_02/b.jpg,stim_02/a.jpg,1,1,f,2,36,156,8,f,1,0.683157044094,02,01,60.0219690565,PLT_learning_02,N,2014_Mrz_25_1444,P30,
stim_fb/ques.jpg,stim_fb/posf.jpg,stim_fb/negf.jpg,stim_02/e.jpg,stim_02/f.jpg,2,3,j,2,37,157,59,f,0,0.683236128915,02,01,60.0219690565,PLT_learning_02,N,2014_Mrz_25_1444,P30,
stim_fb/ques.jpg,stim_fb/posf.jpg,stim_fb/negf.jpg,stim_02/d.jpg,stim_02/c.jpg,1,2,f,2,38,158,27,f,1,0.666469809739,02,01,60.0219690565,PLT_learning_02,N,2014_Mrz_25_1444,P30,
stim_fb/ques.jpg,stim_fb/negf.jpg,stim_fb/posf.jpg,stim_02/d.jpg,stim_02/c.jpg,1,2,f,2,39,159,22,f,1,0.583181224272,02,01,60.0219690565,PLT_learning_02,N,2014_Mrz_25_1444,P30,
stim_fb/ques.jpg,stim_fb/negf.jpg,stim_fb/posf.jpg,stim_02/d.jpg,stim_02/c.jpg,1,2,f,2,40,160,21,f,1,0.64982744706,02,01,60.0219690565,PLT_learning_02,N,2014_Mrz_25_1444,P30,
stim_fb/ques.jpg,stim_fb/negf.jpg,stim_fb/posf.jpg,stim_02/d.jpg,stim_02/c.jpg,1,2,f,2,41,161,24,f,1,0.599847430292,02,01,60.0219690565,PLT_learning_02,N,2014_Mrz_25_1444,P30,
stim_fb/ques.jpg,stim_fb/posf.jpg,stim_fb/negf.jpg,stim_02/e.jpg,stim_02/f.jpg,2,3,j,2,42,162,58,f,0,0.649795420352,02,01,60.0219690565,PLT_learning_02,N,2014_Mrz_25_1444,P30,
stim_fb/ques.jpg,stim_fb/negf.jpg,stim_fb/posf.jpg,stim_02/b.jpg,stim_02/a.jpg,1,1,f,2,43,163,4,f,1,0.749786073089,02,01,60.0219690565,PLT_learning_02,N,2014_Mrz_25_1444,P30,
stim_fb/ques.jpg,stim_fb/negf.jpg,stim_fb/posf.jpg,stim_02/e.jpg,stim_02/f.jpg,2,3,j,2,44,164,54,f,0,0.68313589546,02,01,60.0219690565,PLT_learning_02,N,2014_Mrz_25_1444,P30,
stim_fb/ques.jpg,stim_fb/negf.jpg,stim_fb/posf.jpg,stim_02/a.jpg,stim_02/b.jpg,2,1,j,2,45,165,15,j,1,0.633207998407,02,01,60.0219690565,PLT_learning_02,N,2014_Mrz_25_1444,P30,
stim_fb/ques.jpg,stim_fb/negf.jpg,stim_fb/posf.jpg,stim_02/e.jpg,stim_02/f.jpg,2,3,j,2,46,166,52,f,0,0.633129987256,02,01,60.0219690565,PLT_learning_02,N,2014_Mrz_25_1444,P30,
stim_fb/ques.jpg,stim_fb/negf.jpg,stim_fb/posf.jpg,stim_02/c.jpg,stim_02/d.jpg,2,2,j,2,47,167,32,f,0,0.583178216787,02,01,60.0219690565,PLT_learning_02,N,2014_Mrz_25_1444,P30,
stim_fb/ques.jpg,stim_fb/negf.jpg,stim_fb/posf.jpg,stim_02/e.jpg,stim_02/f.jpg,2,3,j,2,48,168,55,f,0,0.699850729503,02,01,60.0219690565,PLT_learning_02,N,2014_Mrz_25_1444,P30,
stim_fb/ques.jpg,stim_fb/negf.jpg,stim_fb/posf.jpg,stim_02/a.jpg,stim_02/b.jpg,2,1,j,2,49,169,12,j,1,0.64984111307,02,01,60.0219690565,PLT_learning_02,N,2014_Mrz_25_1444,P30,
stim_fb/ques.jpg,stim_fb/negf.jpg,stim_fb/posf.jpg,stim_02/f.jpg,stim_02/e.jpg,1,3,f,2,50,170,45,f,1,0.849742816435,02,01,60.0219690565,PLT_learning_02,N,2014_Mrz_25_1444,P30,
stim_fb/ques.jpg,stim_fb/posf.jpg,stim_fb/negf.jpg,stim_02/e.jpg,stim_02/f.jpg,2,3,j,2,51,171,56,f,0,0.599868398476,02,01,60.0219690565,PLT_learning_02,N,2014_Mrz_25_1444,P30,
stim_fb/ques.jpg,stim_fb/posf.jpg,stim_fb/negf.jpg,stim_02/c.jpg,stim_02/d.jpg,2,2,j,2,52,172,38,j,1,0.883072930756,02,01,60.0219690565,PLT_learning_02,N,2014_Mrz_25_1444,P30,
stim_fb/ques.jpg,stim_fb/negf.jpg,stim_fb/posf.jpg,stim_02/f.jpg,stim_02/e.jpg,1,3,f,2,53,173,42,j,0,1.28293673079,02,01,60.0219690565,PLT_learning_02,N,2014_Mrz_25_1444,P30,
stim_fb/ques.jpg,stim_fb/negf.jpg,stim_fb/posf.jpg,stim_02/b.jpg,stim_02/a.jpg,1,1,f,2,54,174,7,f,1,0.716483375,02,01,60.0219690565,PLT_learning_02,N,2014_Mrz_25_1444,P30,
stim_fb/ques.jpg,stim_fb/posf.jpg,stim_fb/negf.jpg,stim_02/c.jpg,stim_02/d.jpg,2,2,j,2,55,175,37,j,1,0.983061021117,02,01,60.0219690565,PLT_learning_02,N,2014_Mrz_25_1444,P30,
stim_fb/ques.jpg,stim_fb/negf.jpg,stim_fb/posf.jpg,stim_02/f.jpg,stim_02/e.jpg,1,3,f,2,56,176,40,f,1,0.59985283775,02,01,60.0219690565,PLT_learning_02,N,2014_Mrz_25_1444,P30,
stim_fb/ques.jpg,stim_fb/negf.jpg,stim_fb/posf.jpg,stim_02/a.jpg,stim_02/b.jpg,2,1,j,2,57,177,11,j,1,0.599858615128,02,01,60.0219690565,PLT_learning_02,N,2014_Mrz_25_1444,P30,
stim_fb/ques.jpg,stim_fb/negf.jpg,stim_fb/posf.jpg,stim_02/e.jpg,stim_02/f.jpg,2,3,j,2,58,178,50,f,0,0.766457788822,02,01,60.0219690565,PLT_learning_02,N,2014_Mrz_25_1444,P30,
stim_fb/ques.jpg,stim_fb/negf.jpg,stim_fb/posf.jpg,stim_02/b.jpg,stim_02/a.jpg,1,1,f,2,59,179,3,f,1,0.683168493589,02,01,60.0219690565,PLT_learning_02,N,2014_Mrz_25_1444,P30,
stim_fb/ques.jpg,stim_fb/posf.jpg,stim_fb/negf.jpg,stim_02/b.jpg,stim_02/a.jpg,1,1,f,3,0,180,9,f,1,0.616471654831,02,01,60.0219690565,PLT_learning_02,N,2014_Mrz_25_1444,P30,
stim_fb/ques.jpg,stim_fb/negf.jpg,stim_fb/posf.jpg,stim_02/e.jpg,stim_02/f.jpg,2,3,j,3,1,181,51,f,0,0.766476299891,02,01,60.0219690565,PLT_learning_02,N,2014_Mrz_25_1444,P30,
stim_fb/ques.jpg,stim_fb/posf.jpg,stim_fb/negf.jpg,stim_02/d.jpg,stim_02/c.jpg,1,2,f,3,2,182,29,f,1,0.716483687777,02,01,60.0219690565,PLT_learning_02,N,2014_Mrz_25_1444,P30,
stim_fb/ques.jpg,stim_fb/negf.jpg,stim_fb/posf.jpg,stim_02/c.jpg,stim_02/d.jpg,2,2,j,3,3,183,32,f,0,0.966415816363,02,01,60.0219690565,PLT_learning_02,N,2014_Mrz_25_1444,P30,
stim_fb/ques.jpg,stim_fb/posf.jpg,stim_fb/negf.jpg,stim_02/e.jpg,stim_02/f.jpg,2,3,j,3,4,184,58,f,0,0.799805761589,02,01,60.0219690565,PLT_learning_02,N,2014_Mrz_25_1444,P30,
stim_fb/ques.jpg,stim_fb/negf.jpg,stim_fb/posf.jpg,stim_02/b.jpg,stim_02/a.jpg,1,1,f,3,5,185,1,f,1,0.499885059943,02,01,60.0219690565,PLT_learning_02,N,2014_Mrz_25_1444,P30,
stim_fb/ques.jpg,stim_fb/negf.jpg,stim_fb/posf.jpg,stim_02/f.jpg,stim_02/e.jpg,1,3,f,3,6,186,42,j,0,0.799765927452,02,01,60.0219690565,PLT_learning_02,N,2014_Mrz_25_1444,P30,
stim_fb/ques.jpg,stim_fb/negf.jpg,stim_fb/posf.jpg,stim_02/a.jpg,stim_02/b.jpg,2,1,j,3,7,187,12,f,0,0.616481242693,02,01,60.0219690565,PLT_learning_02,N,2014_Mrz_25_1444,P30,
stim_fb/ques.jpg,stim_fb/posf.jpg,stim_fb/negf.jpg,stim_02/e.jpg,stim_02/f.jpg,2,3,j,3,8,188,57,j,1,0.899738258591,02,01,60.0219690565,PLT_learning_02,N,2014_Mrz_25_1444,P30,
stim_fb/ques.jpg,stim_fb/negf.jpg,stim_fb/posf.jpg,stim_02/b.jpg,stim_02/a.jpg,1,1,f,3,9,189,3,j,0,0.683155389976,02,01,60.0219690565,PLT_learning_02,N,2014_Mrz_25_1444,P30,
stim_fb/ques.jpg,stim_fb/posf.jpg,stim_fb/negf.jpg,stim_02/d.jpg,stim_02/c.jpg,1,2,f,3,10,190,27,j,0,0.66647451946,02,01,60.0219690565,PLT_learning_02,N,2014_Mrz_25_1444,P30,
stim_fb/ques.jpg,stim_fb/posf.jpg,stim_fb/negf.jpg,stim_02/a.jpg,stim_02/b.jpg,2,1,j,3,11,191,19,j,1,0.466575438622,02,01,60.0219690565,PLT_learning_02,N,2014_Mrz_25_1444,P30,
stim_fb/ques.jpg,stim_fb/negf.jpg,stim_fb/posf.jpg,stim_02/a.jpg,stim_02/b.jpg,2,1,j,3,12,192,15,j,1,0.433230777096,02,01,60.0219690565,PLT_learning_02,N,2014_Mrz_25_1444,P30,
stim_fb/ques.jpg,stim_fb/posf.jpg,stim_fb/negf.jpg,stim_02/f.jpg,stim_02/e.jpg,1,3,f,3,13,193,48,j,0,0.733174822841,02,01,60.0219690565,PLT_learning_02,N,2014_Mrz_25_1444,P30,
stim_fb/ques.jpg,stim_fb/negf.jpg,stim_fb/posf.jpg,stim_02/a.jpg,stim_02/b.jpg,2,1,j,3,14,194,16,f,0,0.516556634324,02,01,60.0219690565,PLT_learning_02,N,2014_Mrz_25_1444,P30,
stim_fb/ques.jpg,stim_fb/negf.jpg,stim_fb/posf.jpg,stim_02/e.jpg,stim_02/f.jpg,2,3,j,3,15,195,52,f,0,0.533203923264,02,01,60.0219690565,PLT_learning_02,N,2014_Mrz_25_1444,P30,
stim_fb/ques.jpg,stim_fb/negf.jpg,stim_fb/posf.jpg,stim_02/d.jpg,stim_02/c.jpg,1,2,f,3,16,196,24,j,0,0.64983069815,02,01,60.0219690565,PLT_learning_02,N,2014_Mrz_25_1444,P30,
stim_fb/ques.jpg,stim_fb/negf.jpg,stim_fb/posf.jpg,stim_02/b.jpg,stim_02/a.jpg,1,1,f,3,17,197,5,f,1,0.416629069597,02,01,60.0219690565,PLT_learning_02,N,2014_Mrz_25_1444,P30,
stim_fb/ques.jpg,stim_fb/negf.jpg,stim_fb/posf.jpg,stim_02/d.jpg,stim_02/c.jpg,1,2,f,3,18,198,26,f,1,0.666496278614,02,01,60.0219690565,PLT_learning_02,N,2014_Mrz_25_1444,P30,
stim_fb/ques.jpg,stim_fb/negf.jpg,stim_fb/posf.jpg,stim_02/c.jpg,stim_02/d.jpg,2,2,j,3,19,199,31,j,1,0.599832958274,02,01,60.0219690565,PLT_learning_02,N,2014_Mrz_25_1444,P30,
stim_fb/ques.jpg,stim_fb/negf.jpg,stim_fb/posf.jpg,stim_02/b.jpg,stim_02/a.jpg,1,1,f,3,20,200,0,f,1,0.433225965121,02,01,60.0219690565,PLT_learning_02,N,2014_Mrz_25_1444,P30,
stim_fb/ques.jpg,stim_fb/negf.jpg,stim_fb/posf.jpg,stim_02/d.jpg,stim_02/c.jpg,1,2,f,3,21,201,23,f,1,0.666500991342,02,01,60.0219690565,PLT_learning_02,N,2014_Mrz_25_1444,P30,
stim_fb/ques.jpg,stim_fb/negf.jpg,stim_fb/posf.jpg,stim_02/e.jpg,stim_02/f.jpg,2,3,j,3,22,202,55,f,0,0.849796521092,02,01,60.0219690565,PLT_learning_02,N,2014_Mrz_25_1444,P30,
stim_fb/ques.jpg,stim_fb/posf.jpg,stim_fb/negf.jpg,stim_02/c.jpg,stim_02/d.jpg,2,2,j,3,23,203,38,f,0,0.716488896742,02,01,60.0219690565,PLT_learning_02,N,2014_Mrz_25_1444,P30,
stim_fb/ques.jpg,stim_fb/posf.jpg,stim_fb/negf.jpg,stim_02/c.jpg,stim_02/d.jpg,2,2,j,3,24,204,37,j,1,0.683140529994,02,01,60.0219690565,PLT_learning_02,N,2014_Mrz_25_1444,P30,
stim_fb/ques.jpg,stim_fb/posf.jpg,stim_fb/negf.jpg,stim_02/f.jpg,stim_02/e.jpg,1,3,f,3,25,205,46,j,0,0.766462940644,02,01,60.0219690565,PLT_learning_02,N,2014_Mrz_25_1444,P30,
stim_fb/ques.jpg,stim_fb/posf.jpg,stim_fb/negf.jpg,stim_02/f.jpg,stim_02/e.jpg,1,3,f,3,26,206,49,j,0,0.616497095146,02,01,60.0219690565,PLT_learning_02,N,2014_Mrz_25_1444,P30,
stim_fb/ques.jpg,stim_fb/negf.jpg,stim_fb/posf.jpg,stim_02/e.jpg,stim_02/f.jpg,2,3,j,3,27,207,54,f,0,0.566503818378,02,01,60.0219690565,PLT_learning_02,N,2014_Mrz_25_1444,P30,
stim_fb/ques.jpg,stim_fb/negf.jpg,stim_fb/posf.jpg,stim_02/c.jpg,stim_02/d.jpg,2,2,j,3,28,208,35,j,1,0.649887948632,02,01,60.0219690565,PLT_learning_02,N,2014_Mrz_25_1444,P30,
stim_fb/ques.jpg,stim_fb/negf.jpg,stim_fb/posf.jpg,stim_02/c.jpg,stim_02/d.jpg,2,2,j,3,29,209,33,f,0,0.566499388353,02,01,60.0219690565,PLT_learning_02,N,2014_Mrz_25_1444,P30,
stim_fb/ques.jpg,stim_fb/negf.jpg,stim_fb/posf.jpg,stim_02/c.jpg,stim_02/d.jpg,2,2,j,3,30,210,36,j,1,0.599843388232,02,01,60.0219690565,PLT_learning_02,N,2014_Mrz_25_1444,P30,
stim_fb/ques.jpg,stim_fb/negf.jpg,stim_fb/posf.jpg,stim_02/b.jpg,stim_02/a.jpg,1,1,f,3,31,211,7,f,1,0.64982031932,02,01,60.0219690565,PLT_learning_02,N,2014_Mrz_25_1444,P30,
stim_fb/ques.jpg,stim_fb/negf.jpg,stim_fb/posf.jpg,stim_02/a.jpg,stim_02/b.jpg,2,1,j,3,32,212,10,j,1,0.649798767683,02,01,60.0219690565,PLT_learning_02,N,2014_Mrz_25_1444,P30,
stim_fb/ques.jpg,stim_fb/negf.jpg,stim_fb/posf.jpg,stim_02/d.jpg,stim_02/c.jpg,1,2,f,3,33,213,20,f,1,0.849812993087,02,01,60.0219690565,PLT_learning_02,N,2014_Mrz_25_1444,P30,
stim_fb/ques.jpg,stim_fb/negf.jpg,stim_fb/posf.jpg,stim_02/d.jpg,stim_02/c.jpg,1,2,f,3,34,214,21,f,1,0.699821968925,02,01,60.0219690565,PLT_learning_02,N,2014_Mrz_25_1444,P30,
stim_fb/ques.jpg,stim_fb/posf.jpg,stim_fb/negf.jpg,stim_02/c.jpg,stim_02/d.jpg,2,2,j,3,35,215,39,j,1,0.633176197261,02,01,60.0219690565,PLT_learning_02,N,2014_Mrz_25_1444,P30,
stim_fb/ques.jpg,stim_fb/posf.jpg,stim_fb/negf.jpg,stim_02/b.jpg,stim_02/a.jpg,1,1,f,3,36,216,8,f,1,0.533202230051,02,01,60.0219690565,PLT_learning_02,N,2014_Mrz_25_1444,P30,
stim_fb/ques.jpg,stim_fb/negf.jpg,stim_fb/posf.jpg,stim_02/c.jpg,stim_02/d.jpg,2,2,j,3,37,217,34,f,0,0.999729636132,02,01,60.0219690565,PLT_learning_02,N,2014_Mrz_25_1444,P30,
stim_fb/ques.jpg,stim_fb/negf.jpg,stim_fb/posf.jpg,stim_02/a.jpg,stim_02/b.jpg,2,1,j,3,38,218,11,f,0,0.549873133761,02,01,60.0219690565,PLT_learning_02,N,2014_Mrz_25_1444,P30,
stim_fb/ques.jpg,stim_fb/negf.jpg,stim_fb/posf.jpg,stim_02/f.jpg,stim_02/e.jpg,1,3,f,3,39,219,43,j,0,0.86641786446,02,01,60.0219690565,PLT_learning_02,N,2014_Mrz_25_1444,P30,
stim_fb/ques.jpg,stim_fb/negf.jpg,stim_fb/posf.jpg,stim_02/f.jpg,stim_02/e.jpg,1,3,f,3,40,220,44,f,1,0.84975669297,02,01,60.0219690565,PLT_learning_02,N,2014_Mrz_25_1444,P30,
stim_fb/ques.jpg,stim_fb/negf.jpg,stim_fb/posf.jpg,stim_02/f.jpg,stim_02/e.jpg,1,3,f,3,41,221,40,j,0,0.93307054131,02,01,60.0219690565,PLT_learning_02,N,2014_Mrz_25_1444,P30,
stim_fb/ques.jpg,stim_fb/negf.jpg,stim_fb/posf.jpg,stim_02/e.jpg,stim_02/f.jpg,2,3,j,3,42,222,53,f,0,0.849781483668,02,01,60.0219690565,PLT_learning_02,N,2014_Mrz_25_1444,P30,
stim_fb/ques.jpg,stim_fb/negf.jpg,stim_fb/posf.jpg,stim_02/b.jpg,stim_02/a.jpg,1,1,f,3,43,223,6,f,1,0.733163373345,02,01,60.0219690565,PLT_learning_02,N,2014_Mrz_25_1444,P30,
stim_fb/ques.jpg,stim_fb/negf.jpg,stim_fb/posf.jpg,stim_02/f.jpg,stim_02/e.jpg,1,3,f,3,44,224,45,j,0,0.849748665993,02,01,60.0219690565,PLT_learning_02,N,2014_Mrz_25_1444,P30,
stim_fb/ques.jpg,stim_fb/negf.jpg,stim_fb/posf.jpg,stim_02/d.jpg,stim_02/c.jpg,1,2,f,3,45,225,22,f,1,1.14968022466,02,01,60.0219690565,PLT_learning_02,N,2014_Mrz_25_1444,P30,
stim_fb/ques.jpg,stim_fb/negf.jpg,stim_fb/posf.jpg,stim_02/b.jpg,stim_02/a.jpg,1,1,f,3,46,226,4,j,0,0.583187371572,02,01,60.0219690565,PLT_learning_02,N,2014_Mrz_25_1444,P30,
stim_fb/ques.jpg,stim_fb/negf.jpg,stim_fb/posf.jpg,stim_02/b.jpg,stim_02/a.jpg,1,1,f,3,47,227,2,f,1,0.499868386446,02,01,60.0219690565,PLT_learning_02,N,2014_Mrz_25_1444,P30,
stim_fb/ques.jpg,stim_fb/posf.jpg,stim_fb/negf.jpg,stim_02/a.jpg,stim_02/b.jpg,2,1,j,3,48,228,18,f,0,0.633136928532,02,01,60.0219690565,PLT_learning_02,N,2014_Mrz_25_1444,P30,
stim_fb/ques.jpg,stim_fb/posf.jpg,stim_fb/negf.jpg,stim_02/e.jpg,stim_02/f.jpg,2,3,j,3,49,229,59,j,1,0.333274508935,02,01,60.0219690565,PLT_learning_02,N,2014_Mrz_25_1444,P30,
stim_fb/ques.jpg,stim_fb/posf.jpg,stim_fb/negf.jpg,stim_02/d.jpg,stim_02/c.jpg,1,2,f,3,50,230,28,f,1,0.649897509426,02,01,60.0219690565,PLT_learning_02,N,2014_Mrz_25_1444,P30,
stim_fb/ques.jpg,stim_fb/negf.jpg,stim_fb/posf.jpg,stim_02/c.jpg,stim_02/d.jpg,2,2,j,3,51,231,30,j,1,0.916413826912,02,01,60.0219690565,PLT_learning_02,N,2014_Mrz_25_1444,P30,
stim_fb/ques.jpg,stim_fb/posf.jpg,stim_fb/negf.jpg,stim_02/f.jpg,stim_02/e.jpg,1,3,f,3,52,232,47,f,1,0.58315983504,02,01,60.0219690565,PLT_learning_02,N,2014_Mrz_25_1444,P30,
stim_fb/ques.jpg,stim_fb/negf.jpg,stim_fb/posf.jpg,stim_02/d.jpg,stim_02/c.jpg,1,2,f,3,53,233,25,f,1,0.516528267726,02,01,60.0219690565,PLT_learning_02,N,2014_Mrz_25_1444,P30,
stim_fb/ques.jpg,stim_fb/negf.jpg,stim_fb/posf.jpg,stim_02/e.jpg,stim_02/f.jpg,2,3,j,3,54,234,50,f,0,0.583188785089,02,01,60.0219690565,PLT_learning_02,N,2014_Mrz_25_1444,P30,
stim_fb/ques.jpg,stim_fb/posf.jpg,stim_fb/negf.jpg,stim_02/e.jpg,stim_02/f.jpg,2,3,j,3,55,235,56,f,0,0.499893727515,02,01,60.0219690565,PLT_learning_02,N,2014_Mrz_25_1444,P30,
stim_fb/ques.jpg,stim_fb/negf.jpg,stim_fb/posf.jpg,stim_02/f.jpg,stim_02/e.jpg,1,3,f,3,56,236,41,f,1,0.633157755364,02,01,60.0219690565,PLT_learning_02,N,2014_Mrz_25_1444,P30,
stim_fb/ques.jpg,stim_fb/negf.jpg,stim_fb/posf.jpg,stim_02/a.jpg,stim_02/b.jpg,2,1,j,3,57,237,13,j,1,0.4499200806,02,01,60.0219690565,PLT_learning_02,N,2014_Mrz_25_1444,P30,
stim_fb/ques.jpg,stim_fb/negf.jpg,stim_fb/posf.jpg,stim_02/a.jpg,stim_02/b.jpg,2,1,j,3,58,238,14,j,1,0.86641487502,02,01,60.0219690565,PLT_learning_02,N,2014_Mrz_25_1444,P30,
stim_fb/ques.jpg,stim_fb/negf.jpg,stim_fb/posf.jpg,stim_02/a.jpg,stim_02/b.jpg,2,1,j,3,59,239,17,j,1,0.483225431292,02,01,60.0219690565,PLT_learning_02,N,2014_Mrz_25_1444,P30,
stim_fb/ques.jpg,stim_fb/posf.jpg,stim_fb/negf.jpg,stim_02/f.jpg,stim_02/e.jpg,1,3,f,4,0,240,46,j,0,0.816453366316,02,01,60.0219690565,PLT_learning_02,N,2014_Mrz_25_1444,P30,
stim_fb/ques.jpg,stim_fb/negf.jpg,stim_fb/posf.jpg,stim_02/d.jpg,stim_02/c.jpg,1,2,f,4,1,241,26,f,1,0.449911154386,02,01,60.0219690565,PLT_learning_02,N,2014_Mrz_25_1444,P30,
stim_fb/ques.jpg,stim_fb/posf.jpg,stim_fb/negf.jpg,stim_02/a.jpg,stim_02/b.jpg,2,1,j,4,2,242,18,j,1,0.499885835874,02,01,60.0219690565,PLT_learning_02,N,2014_Mrz_25_1444,P30,
stim_fb/ques.jpg,stim_fb/negf.jpg,stim_fb/posf.jpg,stim_02/a.jpg,stim_02/b.jpg,2,1,j,4,3,243,15,j,1,0.399915366368,02,01,60.0219690565,PLT_learning_02,N,2014_Mrz_25_1444,P30,
stim_fb/ques.jpg,stim_fb/negf.jpg,stim_fb/posf.jpg,stim_02/c.jpg,stim_02/d.jpg,2,2,j,4,4,244,35,f,0,0.549888041865,02,01,60.0219690565,PLT_learning_02,N,2014_Mrz_25_1444,P30,
stim_fb/ques.jpg,stim_fb/negf.jpg,stim_fb/posf.jpg,stim_02/c.jpg,stim_02/d.jpg,2,2,j,4,5,245,36,j,1,0.64981778401,02,01,60.0219690565,PLT_learning_02,N,2014_Mrz_25_1444,P30,
stim_fb/ques.jpg,stim_fb/negf.jpg,stim_fb/posf.jpg,stim_02/d.jpg,stim_02/c.jpg,1,2,f,4,6,246,24,f,1,0.633163265076,02,01,60.0219690565,PLT_learning_02,N,2014_Mrz_25_1444,P30,
stim_fb/ques.jpg,stim_fb/posf.jpg,stim_fb/negf.jpg,stim_02/e.jpg,stim_02/f.jpg,2,3,j,4,7,247,59,f,0,0.866384003188,02,01,60.0219690565,PLT_learning_02,N,2014_Mrz_25_1444,P30,
stim_fb/ques.jpg,stim_fb/negf.jpg,stim_fb/posf.jpg,stim_02/f.jpg,stim_02/e.jpg,1,3,f,4,8,248,40,j,0,0.883105832641,02,01,60.0219690565,PLT_learning_02,N,2014_Mrz_25_1444,P30,
stim_fb/ques.jpg,stim_fb/negf.jpg,stim_fb/posf.jpg,stim_02/e.jpg,stim_02/f.jpg,2,3,j,4,9,249,52,f,0,0.633202254109,02,01,60.0219690565,PLT_learning_02,N,2014_Mrz_25_1444,P30,
stim_fb/ques.jpg,stim_fb/negf.jpg,stim_fb/posf.jpg,stim_02/a.jpg,stim_02/b.jpg,2,1,j,4,10,250,10,j,1,0.599808011188,02,01,60.0219690565,PLT_learning_02,N,2014_Mrz_25_1444,P30,
stim_fb/ques.jpg,stim_fb/posf.jpg,stim_fb/negf.jpg,stim_02/e.jpg,stim_02/f.jpg,2,3,j,4,11,251,56,j,1,0.966377768672,02,01,60.0219690565,PLT_learning_02,N,2014_Mrz_25_1444,P30,
stim_fb/ques.jpg,stim_fb/negf.jpg,stim_fb/posf.jpg,stim_02/a.jpg,stim_02/b.jpg,2,1,j,4,12,252,13,j,1,0.633172251441,02,01,60.0219690565,PLT_learning_02,N,2014_Mrz_25_1444,P30,
stim_fb/ques.jpg,stim_fb/negf.jpg,stim_fb/posf.jpg,stim_02/b.jpg,stim_02/a.jpg,1,1,f,4,13,253,1,f,1,0.683181519005,02,01,60.0219690565,PLT_learning_02,N,2014_Mrz_25_1444,P30,
stim_fb/ques.jpg,stim_fb/negf.jpg,stim_fb/posf.jpg,stim_02/f.jpg,stim_02/e.jpg,1,3,f,4,14,254,44,j,0,0.666511364157,02,01,60.0219690565,PLT_learning_02,N,2014_Mrz_25_1444,P30,
stim_fb/ques.jpg,stim_fb/negf.jpg,stim_fb/posf.jpg,stim_02/a.jpg,stim_02/b.jpg,2,1,j,4,15,255,16,j,1,0.683165428962,02,01,60.0219690565,PLT_learning_02,N,2014_Mrz_25_1444,P30,
stim_fb/ques.jpg,stim_fb/posf.jpg,stim_fb/negf.jpg,stim_02/b.jpg,stim_02/a.jpg,1,1,f,4,16,256,9,f,1,1.18299594516,02,01,60.0219690565,PLT_learning_02,N,2014_Mrz_25_1444,P30,
stim_fb/ques.jpg,stim_fb/negf.jpg,stim_fb/posf.jpg,stim_02/d.jpg,stim_02/c.jpg,1,2,f,4,17,257,20,f,1,0.699795897039,02,01,60.0219690565,PLT_learning_02,N,2014_Mrz_25_1444,P30,
stim_fb/ques.jpg,stim_fb/negf.jpg,stim_fb/posf.jpg,stim_02/b.jpg,stim_02/a.jpg,1,1,f,4,18,258,2,f,1,0.666504308599,02,01,60.0219690565,PLT_learning_02,N,2014_Mrz_25_1444,P30,
stim_fb/ques.jpg,stim_fb/posf.jpg,stim_fb/negf.jpg,stim_02/e.jpg,stim_02/f.jpg,2,3,j,4,19,259,58,f,0,0.733107367962,02,01,60.0219690565,PLT_learning_02,N,2014_Mrz_25_1444,P30,
stim_fb/ques.jpg,stim_fb/posf.jpg,stim_fb/negf.jpg,stim_02/f.jpg,stim_02/e.jpg,1,3,f,4,20,260,49,f,1,0.783096834246,02,01,60.0219690565,PLT_learning_02,N,2014_Mrz_25_1444,P30,
stim_fb/ques.jpg,stim_fb/negf.jpg,stim_fb/posf.jpg,stim_02/b.jpg,stim_02/a.jpg,1,1,f,4,21,261,7,f,1,0.666467611268,02,01,60.0219690565,PLT_learning_02,N,2014_Mrz_25_1444,P30,
stim_fb/ques.jpg,stim_fb/negf.jpg,stim_fb/posf.jpg,stim_02/e.jpg,stim_02/f.jpg,2,3,j,4,22,262,53,f,0,0.666478588587,02,01,60.0219690565,PLT_learning_02,N,2014_Mrz_25_1444,P30,
stim_fb/ques.jpg,stim_fb/negf.jpg,stim_fb/posf.jpg,stim_02/c.jpg,stim_02/d.jpg,2,2,j,4,23,263,30,f,0,0.49988163141,02,01,60.0219690565,PLT_learning_02,N,2014_Mrz_25_1444,P30,
stim_fb/ques.jpg,stim_fb/negf.jpg,stim_fb/posf.jpg,stim_02/e.jpg,stim_02/f.jpg,2,3,j,4,24,264,54,f,0,0.599880488566,02,01,60.0219690565,PLT_learning_02,N,2014_Mrz_25_1444,P30,
stim_fb/ques.jpg,stim_fb/negf.jpg,stim_fb/posf.jpg,stim_02/c.jpg,stim_02/d.jpg,2,2,j,4,25,265,34,j,1,0.833087993745,02,01,60.0219690565,PLT_learning_02,N,2014_Mrz_25_1444,P30,
stim_fb/ques.jpg,stim_fb/negf.jpg,stim_fb/posf.jpg,stim_02/f.jpg,stim_02/e.jpg,1,3,f,4,26,266,45,f,1,0.799771822122,02,01,60.0219690565,PLT_learning_02,N,2014_Mrz_25_1444,P30,
stim_fb/ques.jpg,stim_fb/negf.jpg,stim_fb/posf.jpg,stim_02/b.jpg,stim_02/a.jpg,1,1,f,4,27,267,6,f,1,0.483238339417,02,01,60.0219690565,PLT_learning_02,N,2014_Mrz_25_1444,P30,
stim_fb/ques.jpg,stim_fb/posf.jpg,stim_fb/negf.jpg,stim_02/c.jpg,stim_02/d.jpg,2,2,j,4,28,268,37,j,1,0.583177762656,02,01,60.0219690565,PLT_learning_02,N,2014_Mrz_25_1444,P30,
stim_fb/ques.jpg,stim_fb/posf.jpg,stim_fb/negf.jpg,stim_02/f.jpg,stim_02/e.jpg,1,3,f,4,29,269,47,f,1,0.59985477457,02,01,60.0219690565,PLT_learning_02,N,2014_Mrz_25_1444,P30,
stim_fb/ques.jpg,stim_fb/negf.jpg,stim_fb/posf.jpg,stim_02/e.jpg,stim_02/f.jpg,2,3,j,4,30,270,50,f,0,0.516585644523,02,01,60.0219690565,PLT_learning_02,N,2014_Mrz_25_1444,P30,
stim_fb/ques.jpg,stim_fb/negf.jpg,stim_fb/posf.jpg,stim_02/c.jpg,stim_02/d.jpg,2,2,j,4,31,271,32,f,0,0.516556390718,02,01,60.0219690565,PLT_learning_02,N,2014_Mrz_25_1444,P30,
stim_fb/ques.jpg,stim_fb/negf.jpg,stim_fb/posf.jpg,stim_02/f.jpg,stim_02/e.jpg,1,3,f,4,32,272,42,j,0,0.666488191487,02,01,60.0219690565,PLT_learning_02,N,2014_Mrz_25_1444,P30,
stim_fb/ques.jpg,stim_fb/posf.jpg,stim_fb/negf.jpg,stim_02/f.jpg,stim_02/e.jpg,1,3,f,4,33,273,48,j,0,0.666496874095,02,01,60.0219690565,PLT_learning_02,N,2014_Mrz_25_1444,P30,
stim_fb/ques.jpg,stim_fb/negf.jpg,stim_fb/posf.jpg,stim_02/b.jpg,stim_02/a.jpg,1,1,f,4,34,274,4,f,1,0.566475190129,02,01,60.0219690565,PLT_learning_02,N,2014_Mrz_25_1444,P30,
stim_fb/ques.jpg,stim_fb/negf.jpg,stim_fb/posf.jpg,stim_02/b.jpg,stim_02/a.jpg,1,1,f,4,35,275,3,f,1,0.549876694624,02,01,60.0219690565,PLT_learning_02,N,2014_Mrz_25_1444,P30,
stim_fb/ques.jpg,stim_fb/posf.jpg,stim_fb/negf.jpg,stim_02/d.jpg,stim_02/c.jpg,1,2,f,4,36,276,27,f,1,0.849765959031,02,01,60.0219690565,PLT_learning_02,N,2014_Mrz_25_1444,P30,
stim_fb/ques.jpg,stim_fb/negf.jpg,stim_fb/posf.jpg,stim_02/c.jpg,stim_02/d.jpg,2,2,j,4,37,277,31,j,1,0.666486483236,02,01,60.0219690565,PLT_learning_02,N,2014_Mrz_25_1444,P30,
stim_fb/ques.jpg,stim_fb/negf.jpg,stim_fb/posf.jpg,stim_02/d.jpg,stim_02/c.jpg,1,2,f,4,38,278,22,f,1,0.566532248133,02,01,60.0219690565,PLT_learning_02,N,2014_Mrz_25_1444,P30,
stim_fb/ques.jpg,stim_fb/posf.jpg,stim_fb/negf.jpg,stim_02/c.jpg,stim_02/d.jpg,2,2,j,4,39,279,38,f,0,0.616509440872,02,01,60.0219690565,PLT_learning_02,N,2014_Mrz_25_1444,P30,
stim_fb/ques.jpg,stim_fb/negf.jpg,stim_fb/posf.jpg,stim_02/a.jpg,stim_02/b.jpg,2,1,j,4,40,280,17,j,1,0.533207129243,02,01,60.0219690565,PLT_learning_02,N,2014_Mrz_25_1444,P30,
stim_fb/ques.jpg,stim_fb/posf.jpg,stim_fb/negf.jpg,stim_02/a.jpg,stim_02/b.jpg,2,1,j,4,41,281,19,f,0,0.699832477077,02,01,60.0219690565,PLT_learning_02,N,2014_Mrz_25_1444,P30,
stim_fb/ques.jpg,stim_fb/posf.jpg,stim_fb/negf.jpg,stim_02/d.jpg,stim_02/c.jpg,1,2,f,4,42,282,29,f,1,0.733110176952,02,01,60.0219690565,PLT_learning_02,N,2014_Mrz_25_1444,P30,
stim_fb/ques.jpg,stim_fb/negf.jpg,stim_fb/posf.jpg,stim_02/d.jpg,stim_02/c.jpg,1,2,f,4,43,283,23,f,1,0.666486480228,02,01,60.0219690565,PLT_learning_02,N,2014_Mrz_25_1444,P30,
stim_fb/ques.jpg,stim_fb/posf.jpg,stim_fb/negf.jpg,stim_02/c.jpg,stim_02/d.jpg,2,2,j,4,44,284,39,f,0,0.816424647843,02,01,60.0219690565,PLT_learning_02,N,2014_Mrz_25_1444,P30,
stim_fb/ques.jpg,stim_fb/negf.jpg,stim_fb/posf.jpg,stim_02/c.jpg,stim_02/d.jpg,2,2,j,4,45,285,33,j,1,1.08306644361,02,01,60.0219690565,PLT_learning_02,N,2014_Mrz_25_1444,P30,
stim_fb/ques.jpg,stim_fb/posf.jpg,stim_fb/negf.jpg,stim_02/d.jpg,stim_02/c.jpg,1,2,f,4,46,286,28,j,0,0.899769783048,02,01,60.0219690565,PLT_learning_02,N,2014_Mrz_25_1444,P30,
stim_fb/ques.jpg,stim_fb/negf.jpg,stim_fb/posf.jpg,stim_02/b.jpg,stim_02/a.jpg,1,1,f,4,47,287,0,f,1,0.583178649865,02,01,60.0219690565,PLT_learning_02,N,2014_Mrz_25_1444,P30,
stim_fb/ques.jpg,stim_fb/negf.jpg,stim_fb/posf.jpg,stim_02/d.jpg,stim_02/c.jpg,1,2,f,4,48,288,21,f,1,0.716467540592,02,01,60.0219690565,PLT_learning_02,N,2014_Mrz_25_1444,P30,
stim_fb/ques.jpg,stim_fb/negf.jpg,stim_fb/posf.jpg,stim_02/a.jpg,stim_02/b.jpg,2,1,j,4,49,289,11,j,1,0.767465061672,02,01,60.0219690565,PLT_learning_02,N,2014_Mrz_25_1444,P30,
stim_fb/ques.jpg,stim_fb/posf.jpg,stim_fb/negf.jpg,stim_02/e.jpg,stim_02/f.jpg,2,3,j,4,50,290,57,f,0,0.849778190472,02,01,60.0219690565,PLT_learning_02,N,2014_Mrz_25_1444,P30,
stim_fb/ques.jpg,stim_fb/negf.jpg,stim_fb/posf.jpg,stim_02/a.jpg,stim_02/b.jpg,2,1,j,4,51,291,12,j,1,1.01625643019,02,01,60.0219690565,PLT_learning_02,N,2014_Mrz_25_1444,P30,
stim_fb/ques.jpg,stim_fb/negf.jpg,stim_fb/posf.jpg,stim_02/f.jpg,stim_02/e.jpg,1,3,f,4,52,292,43,f,1,0.93306537445,02,01,60.0219690565,PLT_learning_02,N,2014_Mrz_25_1444,P30,
stim_fb/ques.jpg,stim_fb/negf.jpg,stim_fb/posf.jpg,stim_02/d.jpg,stim_02/c.jpg,1,2,f,4,53,293,25,f,1,0.766470140562,02,01,60.0219690565,PLT_learning_02,N,2014_Mrz_25_1444,P30,
stim_fb/ques.jpg,stim_fb/negf.jpg,stim_fb/posf.jpg,stim_02/b.jpg,stim_02/a.jpg,1,1,f,4,54,294,5,f,1,0.733150531385,02,01,60.0219690565,PLT_learning_02,N,2014_Mrz_25_1444,P30,
stim_fb/ques.jpg,stim_fb/posf.jpg,stim_fb/negf.jpg,stim_02/b.jpg,stim_02/a.jpg,1,1,f,4,55,295,8,f,1,0.833082041931,02,01,60.0219690565,PLT_learning_02,N,2014_Mrz_25_1444,P30,
stim_fb/ques.jpg,stim_fb/negf.jpg,stim_fb/posf.jpg,stim_02/e.jpg,stim_02/f.jpg,2,3,j,4,56,296,55,f,0,0.68315877039,02,01,60.0219690565,PLT_learning_02,N,2014_Mrz_25_1444,P30,
stim_fb/ques.jpg,stim_fb/negf.jpg,stim_fb/posf.jpg,stim_02/a.jpg,stim_02/b.jpg,2,1,j,4,57,297,14,j,1,0.683164926711,02,01,60.0219690565,PLT_learning_02,N,2014_Mrz_25_1444,P30,
stim_fb/ques.jpg,stim_fb/negf.jpg,stim_fb/posf.jpg,stim_02/f.jpg,stim_02/e.jpg,1,3,f,4,58,298,41,j,0,0.833109524328,02,01,60.0219690565,PLT_learning_02,N,2014_Mrz_25_1444,P30,
stim_fb/ques.jpg,stim_fb/negf.jpg,stim_fb/posf.jpg,stim_02/e.jpg,stim_02/f.jpg,2,3,j,4,59,299,51,f,0,0.699824254613,02,01,60.0219690565,PLT_learning_02,N,2014_Mrz_25_1444,P30,
stim_fb/ques.jpg,stim_fb/negf.jpg,stim_fb/posf.jpg,stim_02/f.jpg,stim_02/e.jpg,1,3,f,5,0,300,43,f,1,0.683158463627,02,01,60.0219690565,PLT_learning_02,N,2014_Mrz_25_1444,P30,
stim_fb/ques.jpg,stim_fb/negf.jpg,stim_fb/posf.jpg,stim_02/e.jpg,stim_02/f.jpg,2,3,j,5,1,301,51,f,0,0.683160262102,02,01,60.0219690565,PLT_learning_02,N,2014_Mrz_25_1444,P30,
stim_fb/ques.jpg,stim_fb/negf.jpg,stim_fb/posf.jpg,stim_02/f.jpg,stim_02/e.jpg,1,3,f,5,2,302,40,None,0,,02,01,60.0219690565,PLT_learning_02,N,2014_Mrz_25_1444,P30,
stim_fb/ques.jpg,stim_fb/posf.jpg,stim_fb/negf.jpg,stim_02/f.jpg,stim_02/e.jpg,1,3,f,5,3,303,48,j,0,0.533192230162,02,01,60.0219690565,PLT_learning_02,N,2014_Mrz_25_1444,P30,
stim_fb/ques.jpg,stim_fb/posf.jpg,stim_fb/negf.jpg,stim_02/e.jpg,stim_02/f.jpg,2,3,j,5,4,304,57,f,0,0.766745791589,02,01,60.0219690565,PLT_learning_02,N,2014_Mrz_25_1444,P30,
stim_fb/ques.jpg,stim_fb/posf.jpg,stim_fb/negf.jpg,stim_02/c.jpg,stim_02/d.jpg,2,2,j,5,5,305,38,j,1,0.683199551885,02,01,60.0219690565,PLT_learning_02,N,2014_Mrz_25_1444,P30,
stim_fb/ques.jpg,stim_fb/negf.jpg,stim_fb/posf.jpg,stim_02/a.jpg,stim_02/b.jpg,2,1,j,5,6,306,13,j,1,0.549902357492,02,01,60.0219690565,PLT_learning_02,N,2014_Mrz_25_1444,P30,
stim_fb/ques.jpg,stim_fb/negf.jpg,stim_fb/posf.jpg,stim_02/d.jpg,stim_02/c.jpg,1,2,f,5,7,307,22,f,1,0.633198476709,02,01,60.0219690565,PLT_learning_02,N,2014_Mrz_25_1444,P30,
stim_fb/ques.jpg,stim_fb/negf.jpg,stim_fb/posf.jpg,stim_02/f.jpg,stim_02/e.jpg,1,3,f,5,8,308,45,j,0,0.799830362816,02,01,60.0219690565,PLT_learning_02,N,2014_Mrz_25_1444,P30,
stim_fb/ques.jpg,stim_fb/negf.jpg,stim_fb/posf.jpg,stim_02/b.jpg,stim_02/a.jpg,1,1,f,5,9,309,3,j,0,0.483267346609,02,01,60.0219690565,PLT_learning_02,N,2014_Mrz_25_1444,P30,
stim_fb/ques.jpg,stim_fb/negf.jpg,stim_fb/posf.jpg,stim_02/d.jpg,stim_02/c.jpg,1,2,f,5,10,310,26,f,1,0.833094529009,02,01,60.0219690565,PLT_learning_02,N,2014_Mrz_25_1444,P30,
stim_fb/ques.jpg,stim_fb/negf.jpg,stim_fb/posf.jpg,stim_02/d.jpg,stim_02/c.jpg,1,2,f,5,11,311,23,f,1,0.716443207031,02,01,60.0219690565,PLT_learning_02,N,2014_Mrz_25_1444,P30,
stim_fb/ques.jpg,stim_fb/negf.jpg,stim_fb/posf.jpg,stim_02/b.jpg,stim_02/a.jpg,1,1,f,5,12,312,6,f,1,0.649790409882,02,01,60.0219690565,PLT_learning_02,N,2014_Mrz_25_1444,P30,
stim_fb/ques.jpg,stim_fb/negf.jpg,stim_fb/posf.jpg,stim_02/c.jpg,stim_02/d.jpg,2,2,j,5,13,313,32,j,1,0.599838101074,02,01,60.0219690565,PLT_learning_02,N,2014_Mrz_25_1444,P30,
stim_fb/ques.jpg,stim_fb/posf.jpg,stim_fb/negf.jpg,stim_02/e.jpg,stim_02/f.jpg,2,3,j,5,14,314,56,f,0,0.76644309425,02,01,60.0219690565,PLT_learning_02,N,2014_Mrz_25_1444,P30,
stim_fb/ques.jpg,stim_fb/negf.jpg,stim_fb/posf.jpg,stim_02/e.jpg,stim_02/f.jpg,2,3,j,5,15,315,55,f,0,0.949749372751,02,01,60.0219690565,PLT_learning_02,N,2014_Mrz_25_1444,P30,
stim_fb/ques.jpg,stim_fb/negf.jpg,stim_fb/posf.jpg,stim_02/c.jpg,stim_02/d.jpg,2,2,j,5,16,316,34,j,1,0.683174373222,02,01,60.0219690565,PLT_learning_02,N,2014_Mrz_25_1444,P30,
stim_fb/ques.jpg,stim_fb/posf.jpg,stim_fb/negf.jpg,stim_02/b.jpg,stim_02/a.jpg,1,1,f,5,17,317,9,f,1,0.64982626211,02,01,60.0219690565,PLT_learning_02,N,2014_Mrz_25_1444,P30,
stim_fb/ques.jpg,stim_fb/negf.jpg,stim_fb/posf.jpg,stim_02/b.jpg,stim_02/a.jpg,1,1,f,5,18,318,1,f,1,0.516553551652,02,01,60.0219690565,PLT_learning_02,N,2014_Mrz_25_1444,P30,
stim_fb/ques.jpg,stim_fb/negf.jpg,stim_fb/posf.jpg,stim_02/a.jpg,stim_02/b.jpg,2,1,j,5,19,319,11,j,1,0.549857702357,02,01,60.0219690565,PLT_learning_02,N,2014_Mrz_25_1444,P30,
stim_fb/ques.jpg,stim_fb/negf.jpg,stim_fb/posf.jpg,stim_02/d.jpg,stim_02/c.jpg,1,2,f,5,20,320,20,f,1,0.699818817081,02,01,60.0219690565,PLT_learning_02,N,2014_Mrz_25_1444,P30,
stim_fb/ques.jpg,stim_fb/negf.jpg,stim_fb/posf.jpg,stim_02/a.jpg,stim_02/b.jpg,2,1,j,5,21,321,15,j,1,0.516529807558,02,01,60.0219690565,PLT_learning_02,N,2014_Mrz_25_1444,P30,
stim_fb/ques.jpg,stim_fb/negf.jpg,stim_fb/posf.jpg,stim_02/d.jpg,stim_02/c.jpg,1,2,f,5,22,322,21,f,1,0.71647279166,02,01,60.0219690565,PLT_learning_02,N,2014_Mrz_25_1444,P30,
stim_fb/ques.jpg,stim_fb/negf.jpg,stim_fb/posf.jpg,stim_02/c.jpg,stim_02/d.jpg,2,2,j,5,23,323,33,j,1,0.599837869498,02,01,60.0219690565,PLT_learning_02,N,2014_Mrz_25_1444,P30,
stim_fb/ques.jpg,stim_fb/posf.jpg,stim_fb/negf.jpg,stim_02/d.jpg,stim_02/c.jpg,1,2,f,5,24,324,27,f,1,0.566533300753,02,01,60.0219690565,PLT_learning_02,N,2014_Mrz_25_1444,P30,
stim_fb/ques.jpg,stim_fb/posf.jpg,stim_fb/negf.jpg,stim_02/e.jpg,stim_02/f.jpg,2,3,j,5,25,325,58,f,0,0.599865069191,02,01,60.0219690565,PLT_learning_02,N,2014_Mrz_25_1444,P30,
stim_fb/ques.jpg,stim_fb/negf.jpg,stim_fb/posf.jpg,stim_02/a.jpg,stim_02/b.jpg,2,1,j,5,26,326,17,j,1,0.649845013778,02,01,60.0219690565,PLT_learning_02,N,2014_Mrz_25_1444,P30,
stim_fb/ques.jpg,stim_fb/negf.jpg,stim_fb/posf.jpg,stim_02/a.jpg,stim_02/b.jpg,2,1,j,5,27,327,10,j,1,0.74986663158,02,01,60.0219690565,PLT_learning_02,N,2014_Mrz_25_1444,P30,
stim_fb/ques.jpg,stim_fb/negf.jpg,stim_fb/posf.jpg,stim_02/c.jpg,stim_02/d.jpg,2,2,j,5,28,328,30,j,1,0.833113202482,02,01,60.0219690565,PLT_learning_02,N,2014_Mrz_25_1444,P30,
stim_fb/ques.jpg,stim_fb/negf.jpg,stim_fb/posf.jpg,stim_02/d.jpg,stim_02/c.jpg,1,2,f,5,29,329,24,f,1,0.583184920471,02,01,60.0219690565,PLT_learning_02,N,2014_Mrz_25_1444,P30,
stim_fb/ques.jpg,stim_fb/posf.jpg,stim_fb/negf.jpg,stim_02/f.jpg,stim_02/e.jpg,1,3,f,5,30,330,46,j,0,0.76647330143,02,01,60.0219690565,PLT_learning_02,N,2014_Mrz_25_1444,P30,
stim_fb/ques.jpg,stim_fb/posf.jpg,stim_fb/negf.jpg,stim_02/e.jpg,stim_02/f.jpg,2,3,j,5,31,331,59,f,0,0.649826415492,02,01,60.0219690565,PLT_learning_02,N,2014_Mrz_25_1444,P30,
stim_fb/ques.jpg,stim_fb/negf.jpg,stim_fb/posf.jpg,stim_02/a.jpg,stim_02/b.jpg,2,1,j,5,32,332,12,j,1,0.499883859957,02,01,60.0219690565,PLT_learning_02,N,2014_Mrz_25_1444,P30,
stim_fb/ques.jpg,stim_fb/posf.jpg,stim_fb/negf.jpg,stim_02/f.jpg,stim_02/e.jpg,1,3,f,5,33,333,49,f,1,0.766454035482,02,01,60.0219690565,PLT_learning_02,N,2014_Mrz_25_1444,P30,
stim_fb/ques.jpg,stim_fb/posf.jpg,stim_fb/negf.jpg,stim_02/a.jpg,stim_02/b.jpg,2,1,j,5,34,334,18,j,1,0.649837717619,02,01,60.0219690565,PLT_learning_02,N,2014_Mrz_25_1444,P30,
stim_fb/ques.jpg,stim_fb/negf.jpg,stim_fb/posf.jpg,stim_02/e.jpg,stim_02/f.jpg,2,3,j,5,35,335,53,f,0,0.699768519904,02,01,60.0219690565,PLT_learning_02,N,2014_Mrz_25_1444,P30,
stim_fb/ques.jpg,stim_fb/posf.jpg,stim_fb/negf.jpg,stim_02/c.jpg,stim_02/d.jpg,2,2,j,5,36,336,37,j,1,0.699802660873,02,01,60.0219690565,PLT_learning_02,N,2014_Mrz_25_1444,P30,
stim_fb/ques.jpg,stim_fb/negf.jpg,stim_fb/posf.jpg,stim_02/d.jpg,stim_02/c.jpg,1,2,f,5,37,337,25,f,1,1.0163664079,02,01,60.0219690565,PLT_learning_02,N,2014_Mrz_25_1444,P30,
stim_fb/ques.jpg,stim_fb/negf.jpg,stim_fb/posf.jpg,stim_02/c.jpg,stim_02/d.jpg,2,2,j,5,38,338,31,j,1,0.633183709959,02,01,60.0219690565,PLT_learning_02,N,2014_Mrz_25_1444,P30,
stim_fb/ques.jpg,stim_fb/negf.jpg,stim_fb/posf.jpg,stim_02/b.jpg,stim_02/a.jpg,1,1,f,5,39,339,5,f,1,0.849777613033,02,01,60.0219690565,PLT_learning_02,N,2014_Mrz_25_1444,P30,
stim_fb/ques.jpg,stim_fb/negf.jpg,stim_fb/posf.jpg,stim_02/c.jpg,stim_02/d.jpg,2,2,j,5,40,340,35,j,1,0.716473546538,02,01,60.0219690565,PLT_learning_02,N,2014_Mrz_25_1444,P30,
stim_fb/ques.jpg,stim_fb/negf.jpg,stim_fb/posf.jpg,stim_02/e.jpg,stim_02/f.jpg,2,3,j,5,41,341,52,f,0,0.666508302538,02,01,60.0219690565,PLT_learning_02,N,2014_Mrz_25_1444,P30,
stim_fb/ques.jpg,stim_fb/negf.jpg,stim_fb/posf.jpg,stim_02/b.jpg,stim_02/a.jpg,1,1,f,5,42,342,0,f,1,0.616493856085,02,01,60.0219690565,PLT_learning_02,N,2014_Mrz_25_1444,P30,
stim_fb/ques.jpg,stim_fb/negf.jpg,stim_fb/posf.jpg,stim_02/e.jpg,stim_02/f.jpg,2,3,j,5,43,343,54,f,0,0.666490239582,02,01,60.0219690565,PLT_learning_02,N,2014_Mrz_25_1444,P30,
stim_fb/ques.jpg,stim_fb/posf.jpg,stim_fb/negf.jpg,stim_02/d.jpg,stim_02/c.jpg,1,2,f,5,44,344,29,f,1,0.516511879941,02,01,60.0219690565,PLT_learning_02,N,2014_Mrz_25_1444,P30,
stim_fb/ques.jpg,stim_fb/negf.jpg,stim_fb/posf.jpg,stim_02/f.jpg,stim_02/e.jpg,1,3,f,5,45,345,42,f,1,0.583192415123,02,01,60.0219690565,PLT_learning_02,N,2014_Mrz_25_1444,P30,
stim_fb/ques.jpg,stim_fb/negf.jpg,stim_fb/posf.jpg,stim_02/b.jpg,stim_02/a.jpg,1,1,f,5,46,346,7,f,1,0.616471281903,02,01,60.0219690565,PLT_learning_02,N,2014_Mrz_25_1444,P30,
stim_fb/ques.jpg,stim_fb/posf.jpg,stim_fb/negf.jpg,stim_02/f.jpg,stim_02/e.jpg,1,3,f,5,47,347,47,j,0,0.749801997721,02,01,60.0219690565,PLT_learning_02,N,2014_Mrz_25_1444,P30,
stim_fb/ques.jpg,stim_fb/negf.jpg,stim_fb/posf.jpg,stim_02/a.jpg,stim_02/b.jpg,2,1,j,5,48,348,14,j,1,0.699781166379,02,01,60.0219690565,PLT_learning_02,N,2014_Mrz_25_1444,P30,
stim_fb/ques.jpg,stim_fb/negf.jpg,stim_fb/posf.jpg,stim_02/e.jpg,stim_02/f.jpg,2,3,j,5,49,349,50,f,0,0.666505622868,02,01,60.0219690565,PLT_learning_02,N,2014_Mrz_25_1444,P30,
stim_fb/ques.jpg,stim_fb/posf.jpg,stim_fb/negf.jpg,stim_02/d.jpg,stim_02/c.jpg,1,2,f,5,50,350,28,f,1,0.64982933576,02,01,60.0219690565,PLT_learning_02,N,2014_Mrz_25_1444,P30,
stim_fb/ques.jpg,stim_fb/negf.jpg,stim_fb/posf.jpg,stim_02/b.jpg,stim_02/a.jpg,1,1,f,5,51,351,4,f,1,0.616322841472,02,01,60.0219690565,PLT_learning_02,N,2014_Mrz_25_1444,P30,
stim_fb/ques.jpg,stim_fb/negf.jpg,stim_fb/posf.jpg,stim_02/f.jpg,stim_02/e.jpg,1,3,f,5,52,352,44,j,0,0.683165486103,02,01,60.0219690565,PLT_learning_02,N,2014_Mrz_25_1444,P30,
stim_fb/ques.jpg,stim_fb/negf.jpg,stim_fb/posf.jpg,stim_02/b.jpg,stim_02/a.jpg,1,1,f,5,53,353,2,f,1,0.849761619231,02,01,60.0219690565,PLT_learning_02,N,2014_Mrz_25_1444,P30,
stim_fb/ques.jpg,stim_fb/negf.jpg,stim_fb/posf.jpg,stim_02/c.jpg,stim_02/d.jpg,2,2,j,5,54,354,36,j,1,0.699805069868,02,01,60.0219690565,PLT_learning_02,N,2014_Mrz_25_1444,P30,
stim_fb/ques.jpg,stim_fb/posf.jpg,stim_fb/negf.jpg,stim_02/b.jpg,stim_02/a.jpg,1,1,f,5,55,355,8,f,1,0.533212148735,02,01,60.0219690565,PLT_learning_02,N,2014_Mrz_25_1444,P30,
stim_fb/ques.jpg,stim_fb/posf.jpg,stim_fb/negf.jpg,stim_02/c.jpg,stim_02/d.jpg,2,2,j,5,56,356,39,j,1,0.599851132507,02,01,60.0219690565,PLT_learning_02,N,2014_Mrz_25_1444,P30,
stim_fb/ques.jpg,stim_fb/negf.jpg,stim_fb/posf.jpg,stim_02/a.jpg,stim_02/b.jpg,2,1,j,5,57,357,16,j,1,0.499877971302,02,01,60.0219690565,PLT_learning_02,N,2014_Mrz_25_1444,P30,
stim_fb/ques.jpg,stim_fb/posf.jpg,stim_fb/negf.jpg,stim_02/a.jpg,stim_02/b.jpg,2,1,j,5,58,358,19,j,1,0.583240234133,02,01,60.0219690565,PLT_learning_02,N,2014_Mrz_25_1444,P30,
stim_fb/ques.jpg,stim_fb/negf.jpg,stim_fb/posf.jpg,stim_02/f.jpg,stim_02/e.jpg,1,3,f,5,59,359,41,f,1,0.566520792623,02,01,60.0219690565,PLT_learning_02,N,2014_Mrz_25_1444,P30,
