Fb3,Symbol2,Symbol1,PosCond,tID,Correct,trials.thisRepN,trials.thisTrialN,trials.thisN,trials.thisIndex,Response.keys,Response.corr,Response.rt,session,participant,version,frameRate,stimulation,expName,date,
ques.jpg,stim_02/e.jpg,stim_02/b.jpg,1,12,j,0,0,0,11,j,1,0.983042055917,02,P02,02,60.0247439965,B,PLT_transfer_02,2014_Jan_30_1242,
ques.jpg,stim_02/b.jpg,stim_02/c.jpg,2,10,f,0,1,1,24,f,1,0.866429067341,02,P02,02,60.0247439965,B,PLT_transfer_02,2014_Jan_30_1242,
ques.jpg,stim_02/e.jpg,stim_02/d.jpg,1,14,j,0,2,2,13,j,1,1.16634260215,02,P02,02,60.0247439965,B,PLT_transfer_02,2014_Jan_30_1242,
ques.jpg,stim_02/f.jpg,stim_02/b.jpg,1,13,j,0,3,3,12,f,0,1.28286011812,02,P02,02,60.0247439965,B,PLT_transfer_02,2014_Jan_30_1242,
ques.jpg,stim_02/b.jpg,stim_02/f.jpg,2,13,f,0,4,4,27,j,0,1.23297628673,02,P02,02,60.0247439965,B,PLT_transfer_02,2014_Jan_30_1242,
ques.jpg,stim_02/e.jpg,stim_02/c.jpg,1,7,f,0,5,5,6,f,1,0.816442653654,02,P02,02,60.0247439965,B,PLT_transfer_02,2014_Jan_30_1242,
ques.jpg,stim_02/d.jpg,stim_02/e.jpg,2,14,f,0,6,6,28,f,1,1.24962947034,02,P02,02,60.0247439965,B,PLT_transfer_02,2014_Jan_30_1242,
ques.jpg,stim_02/f.jpg,stim_02/c.jpg,1,8,f,0,7,7,7,f,1,0.599847989684,02,P02,02,60.0247439965,B,PLT_transfer_02,2014_Jan_30_1242,
ques.jpg,stim_02/d.jpg,stim_02/c.jpg,1,6,f,0,8,8,5,f,1,1.06636112826,02,P02,02,60.0247439965,B,PLT_transfer_02,2014_Jan_30_1242,
ques.jpg,stim_02/c.jpg,stim_02/d.jpg,2,6,j,0,9,9,20,j,1,1.03305453848,02,P02,02,60.0247439965,B,PLT_transfer_02,2014_Jan_30_1242,
ques.jpg,stim_02/c.jpg,stim_02/b.jpg,1,10,j,0,10,10,9,j,1,0.899738430018,02,P02,02,60.0247439965,B,PLT_transfer_02,2014_Jan_30_1242,
ques.jpg,stim_02/a.jpg,stim_02/b.jpg,2,1,j,0,11,11,15,j,1,0.966353098273,02,P02,02,60.0247439965,B,PLT_transfer_02,2014_Jan_30_1242,
ques.jpg,stim_02/f.jpg,stim_02/d.jpg,1,15,j,0,12,12,14,f,0,1.0829444089,02,P02,02,60.0247439965,B,PLT_transfer_02,2014_Jan_30_1242,
ques.jpg,stim_02/d.jpg,stim_02/f.jpg,2,15,f,0,13,13,29,j,0,0.816407700665,02,P02,02,60.0247439965,B,PLT_transfer_02,2014_Jan_30_1242,
ques.jpg,stim_02/c.jpg,stim_02/a.jpg,1,2,f,0,14,14,1,f,1,0.933059963985,02,P02,02,60.0247439965,B,PLT_transfer_02,2014_Jan_30_1242,
ques.jpg,stim_02/e.jpg,stim_02/f.jpg,2,9,j,0,15,15,23,j,1,1.53286831201,02,P02,02,60.0247439965,B,PLT_transfer_02,2014_Jan_30_1242,
ques.jpg,stim_02/a.jpg,stim_02/d.jpg,2,3,j,0,16,16,17,j,1,1.06636705,02,P02,02,60.0247439965,B,PLT_transfer_02,2014_Jan_30_1242,
ques.jpg,stim_02/d.jpg,stim_02/b.jpg,1,11,j,0,17,17,10,f,0,1.31629078168,02,P02,02,60.0247439965,B,PLT_transfer_02,2014_Jan_30_1242,
ques.jpg,stim_02/b.jpg,stim_02/a.jpg,1,1,f,0,18,18,0,f,1,0.933070436048,02,P02,02,60.0247439965,B,PLT_transfer_02,2014_Jan_30_1242,
ques.jpg,stim_02/a.jpg,stim_02/e.jpg,2,4,j,0,19,19,18,j,1,0.88311048522,02,P02,02,60.0247439965,B,PLT_transfer_02,2014_Jan_30_1242,
ques.jpg,stim_02/f.jpg,stim_02/a.jpg,1,5,f,0,20,20,4,f,1,0.766445184453,02,P02,02,60.0247439965,B,PLT_transfer_02,2014_Jan_30_1242,
ques.jpg,stim_02/b.jpg,stim_02/d.jpg,2,11,f,0,21,21,25,f,1,1.066362229,02,P02,02,60.0247439965,B,PLT_transfer_02,2014_Jan_30_1242,
ques.jpg,stim_02/c.jpg,stim_02/e.jpg,2,7,j,0,22,22,21,j,1,0.749778082202,02,P02,02,60.0247439965,B,PLT_transfer_02,2014_Jan_30_1242,
ques.jpg,stim_02/d.jpg,stim_02/a.jpg,1,3,f,0,23,23,2,f,1,1.09969198844,02,P02,02,60.0247439965,B,PLT_transfer_02,2014_Jan_30_1242,
ques.jpg,stim_02/a.jpg,stim_02/c.jpg,2,2,j,0,24,24,16,f,0,0.649855245242,02,P02,02,60.0247439965,B,PLT_transfer_02,2014_Jan_30_1242,
ques.jpg,stim_02/f.jpg,stim_02/e.jpg,1,9,f,0,25,25,8,f,1,1.1329811739,02,P02,02,60.0247439965,B,PLT_transfer_02,2014_Jan_30_1242,
ques.jpg,stim_02/b.jpg,stim_02/e.jpg,2,12,f,0,26,26,26,f,1,1.04968879599,02,P02,02,60.0247439965,B,PLT_transfer_02,2014_Jan_30_1242,
ques.jpg,stim_02/a.jpg,stim_02/f.jpg,2,5,j,0,27,27,19,j,1,0.73313072409,02,P02,02,60.0247439965,B,PLT_transfer_02,2014_Jan_30_1242,
ques.jpg,stim_02/c.jpg,stim_02/f.jpg,2,8,j,0,28,28,22,j,1,0.833133060905,02,P02,02,60.0247439965,B,PLT_transfer_02,2014_Jan_30_1242,
ques.jpg,stim_02/e.jpg,stim_02/a.jpg,1,4,f,0,29,29,3,f,1,0.649839609328,02,P02,02,60.0247439965,B,PLT_transfer_02,2014_Jan_30_1242,
ques.jpg,stim_02/f.jpg,stim_02/e.jpg,1,9,f,1,0,30,8,f,1,1.19964376642,02,P02,02,60.0247439965,B,PLT_transfer_02,2014_Jan_30_1242,
ques.jpg,stim_02/f.jpg,stim_02/d.jpg,1,15,j,1,1,31,14,f,0,0.733123082071,02,P02,02,60.0247439965,B,PLT_transfer_02,2014_Jan_30_1242,
ques.jpg,stim_02/f.jpg,stim_02/c.jpg,1,8,f,1,2,32,7,f,1,0.633150290786,02,P02,02,60.0247439965,B,PLT_transfer_02,2014_Jan_30_1242,
ques.jpg,stim_02/e.jpg,stim_02/b.jpg,1,12,j,1,3,33,11,j,1,1.09966047601,02,P02,02,60.0247439965,B,PLT_transfer_02,2014_Jan_30_1242,
ques.jpg,stim_02/b.jpg,stim_02/e.jpg,2,12,f,1,4,34,26,j,0,0.966406237524,02,P02,02,60.0247439965,B,PLT_transfer_02,2014_Jan_30_1242,
ques.jpg,stim_02/d.jpg,stim_02/c.jpg,1,6,f,1,5,35,5,f,1,0.549871302203,02,P02,02,60.0247439965,B,PLT_transfer_02,2014_Jan_30_1242,
ques.jpg,stim_02/c.jpg,stim_02/d.jpg,2,6,j,1,6,36,20,j,1,0.616559148581,02,P02,02,60.0247439965,B,PLT_transfer_02,2014_Jan_30_1242,
ques.jpg,stim_02/d.jpg,stim_02/f.jpg,2,15,f,1,7,37,29,j,0,0.783130930102,02,P02,02,60.0247439965,B,PLT_transfer_02,2014_Jan_30_1242,
ques.jpg,stim_02/b.jpg,stim_02/f.jpg,2,13,f,1,8,38,27,j,0,0.56650594467,02,P02,02,60.0247439965,B,PLT_transfer_02,2014_Jan_30_1242,
ques.jpg,stim_02/e.jpg,stim_02/c.jpg,1,7,f,1,9,39,6,f,1,0.533187219693,02,P02,02,60.0247439965,B,PLT_transfer_02,2014_Jan_30_1242,
ques.jpg,stim_02/f.jpg,stim_02/a.jpg,1,5,f,1,10,40,4,f,1,0.533221763664,02,P02,02,60.0247439965,B,PLT_transfer_02,2014_Jan_30_1242,
ques.jpg,stim_02/a.jpg,stim_02/b.jpg,2,1,j,1,11,41,15,j,1,0.849734861637,02,P02,02,60.0247439965,B,PLT_transfer_02,2014_Jan_30_1242,
ques.jpg,stim_02/c.jpg,stim_02/b.jpg,1,10,j,1,12,42,9,j,1,0.666521658778,02,P02,02,60.0247439965,B,PLT_transfer_02,2014_Jan_30_1242,
ques.jpg,stim_02/d.jpg,stim_02/b.jpg,1,11,j,1,13,43,10,j,1,0.766487060672,02,P02,02,60.0247439965,B,PLT_transfer_02,2014_Jan_30_1242,
ques.jpg,stim_02/b.jpg,stim_02/a.jpg,1,1,f,1,14,44,0,f,1,0.499932746623,02,P02,02,60.0247439965,B,PLT_transfer_02,2014_Jan_30_1242,
ques.jpg,stim_02/e.jpg,stim_02/a.jpg,1,4,f,1,15,45,3,f,1,0.566512885945,02,P02,02,60.0247439965,B,PLT_transfer_02,2014_Jan_30_1242,
ques.jpg,stim_02/a.jpg,stim_02/d.jpg,2,3,j,1,16,46,17,j,1,0.63315853731,02,P02,02,60.0247439965,B,PLT_transfer_02,2014_Jan_30_1242,
ques.jpg,stim_02/a.jpg,stim_02/c.jpg,2,2,j,1,17,47,16,f,0,0.599829111702,02,P02,02,60.0247439965,B,PLT_transfer_02,2014_Jan_30_1242,
ques.jpg,stim_02/e.jpg,stim_02/d.jpg,1,14,j,1,18,48,13,j,1,0.59984736112,02,P02,02,60.0247439965,B,PLT_transfer_02,2014_Jan_30_1242,
ques.jpg,stim_02/d.jpg,stim_02/e.jpg,2,14,f,1,19,49,28,j,0,0.699815090808,02,P02,02,60.0247439965,B,PLT_transfer_02,2014_Jan_30_1242,
ques.jpg,stim_02/a.jpg,stim_02/f.jpg,2,5,j,1,20,50,19,j,1,0.649816069743,02,P02,02,60.0247439965,B,PLT_transfer_02,2014_Jan_30_1242,
ques.jpg,stim_02/b.jpg,stim_02/d.jpg,2,11,f,1,21,51,25,j,0,0.716482746435,02,P02,02,60.0247439965,B,PLT_transfer_02,2014_Jan_30_1242,
ques.jpg,stim_02/e.jpg,stim_02/f.jpg,2,9,j,1,22,52,23,j,1,0.649773607065,02,P02,02,60.0247439965,B,PLT_transfer_02,2014_Jan_30_1242,
ques.jpg,stim_02/f.jpg,stim_02/b.jpg,1,13,j,1,23,53,12,f,0,1.01637198979,02,P02,02,60.0247439965,B,PLT_transfer_02,2014_Jan_30_1242,
ques.jpg,stim_02/c.jpg,stim_02/f.jpg,2,8,j,1,24,54,22,j,1,0.716517308451,02,P02,02,60.0247439965,B,PLT_transfer_02,2014_Jan_30_1242,
ques.jpg,stim_02/c.jpg,stim_02/e.jpg,2,7,j,1,25,55,21,j,1,0.766459103093,02,P02,02,60.0247439965,B,PLT_transfer_02,2014_Jan_30_1242,
ques.jpg,stim_02/c.jpg,stim_02/a.jpg,1,2,f,1,26,56,1,f,1,0.583196225606,02,P02,02,60.0247439965,B,PLT_transfer_02,2014_Jan_30_1242,
ques.jpg,stim_02/d.jpg,stim_02/a.jpg,1,3,f,1,27,57,2,f,1,0.616625923768,02,P02,02,60.0247439965,B,PLT_transfer_02,2014_Jan_30_1242,
ques.jpg,stim_02/a.jpg,stim_02/e.jpg,2,4,j,1,28,58,18,j,1,0.58305428435,02,P02,02,60.0247439965,B,PLT_transfer_02,2014_Jan_30_1242,
ques.jpg,stim_02/b.jpg,stim_02/c.jpg,2,10,f,1,29,59,24,f,1,0.583200258644,02,P02,02,60.0247439965,B,PLT_transfer_02,2014_Jan_30_1242,
ques.jpg,stim_02/c.jpg,stim_02/f.jpg,2,8,j,2,0,60,22,j,1,0.533211685583,02,P02,02,60.0247439965,B,PLT_transfer_02,2014_Jan_30_1242,
ques.jpg,stim_02/c.jpg,stim_02/d.jpg,2,6,j,2,1,61,20,j,1,0.549869157867,02,P02,02,60.0247439965,B,PLT_transfer_02,2014_Jan_30_1242,
ques.jpg,stim_02/d.jpg,stim_02/b.jpg,1,11,j,2,2,62,10,j,1,0.983032813916,02,P02,02,60.0247439965,B,PLT_transfer_02,2014_Jan_30_1242,
ques.jpg,stim_02/f.jpg,stim_02/d.jpg,1,15,j,2,3,63,14,f,0,0.833082736661,02,P02,02,60.0247439965,B,PLT_transfer_02,2014_Jan_30_1242,
ques.jpg,stim_02/c.jpg,stim_02/b.jpg,1,10,j,2,4,64,9,j,1,0.63317929497,02,P02,02,60.0247439965,B,PLT_transfer_02,2014_Jan_30_1242,
ques.jpg,stim_02/f.jpg,stim_02/a.jpg,1,5,f,2,5,65,4,j,0,0.616520315936,02,P02,02,60.0247439965,B,PLT_transfer_02,2014_Jan_30_1242,
ques.jpg,stim_02/c.jpg,stim_02/e.jpg,2,7,j,2,6,66,21,j,1,0.999712397228,02,P02,02,60.0247439965,B,PLT_transfer_02,2014_Jan_30_1242,
ques.jpg,stim_02/b.jpg,stim_02/c.jpg,2,10,f,2,7,67,24,f,1,0.783117155821,02,P02,02,60.0247439965,B,PLT_transfer_02,2014_Jan_30_1242,
ques.jpg,stim_02/f.jpg,stim_02/e.jpg,1,9,f,2,8,68,8,j,0,0.683162108698,02,P02,02,60.0247439965,B,PLT_transfer_02,2014_Jan_30_1242,
ques.jpg,stim_02/e.jpg,stim_02/c.jpg,1,7,f,2,9,69,6,f,1,0.533191818137,02,P02,02,60.0247439965,B,PLT_transfer_02,2014_Jan_30_1242,
ques.jpg,stim_02/d.jpg,stim_02/e.jpg,2,14,f,2,10,70,28,f,1,1.08301370436,02,P02,02,60.0247439965,B,PLT_transfer_02,2014_Jan_30_1242,
ques.jpg,stim_02/f.jpg,stim_02/b.jpg,1,13,j,2,11,71,12,j,1,0.683159946316,02,P02,02,60.0247439965,B,PLT_transfer_02,2014_Jan_30_1242,
ques.jpg,stim_02/d.jpg,stim_02/a.jpg,1,3,f,2,12,72,2,f,1,0.982873543532,02,P02,02,60.0247439965,B,PLT_transfer_02,2014_Jan_30_1242,
ques.jpg,stim_02/b.jpg,stim_02/e.jpg,2,12,f,2,13,73,26,j,0,1.08301269986,02,P02,02,60.0247439965,B,PLT_transfer_02,2014_Jan_30_1242,
ques.jpg,stim_02/c.jpg,stim_02/a.jpg,1,2,f,2,14,74,1,f,1,0.616571154461,02,P02,02,60.0247439965,B,PLT_transfer_02,2014_Jan_30_1242,
ques.jpg,stim_02/d.jpg,stim_02/f.jpg,2,15,f,2,15,75,29,f,1,0.999708881479,02,P02,02,60.0247439965,B,PLT_transfer_02,2014_Jan_30_1242,
ques.jpg,stim_02/a.jpg,stim_02/d.jpg,2,3,j,2,16,76,17,j,1,0.933051386638,02,P02,02,60.0247439965,B,PLT_transfer_02,2014_Jan_30_1242,
ques.jpg,stim_02/b.jpg,stim_02/f.jpg,2,13,f,2,17,77,27,f,1,1.16635342007,02,P02,02,60.0247439965,B,PLT_transfer_02,2014_Jan_30_1242,
ques.jpg,stim_02/e.jpg,stim_02/a.jpg,1,4,f,2,18,78,3,f,1,0.849720603151,02,P02,02,60.0247439965,B,PLT_transfer_02,2014_Jan_30_1242,
ques.jpg,stim_02/a.jpg,stim_02/e.jpg,2,4,j,2,19,79,18,j,1,0.933079169784,02,P02,02,60.0247439965,B,PLT_transfer_02,2014_Jan_30_1242,
ques.jpg,stim_02/a.jpg,stim_02/c.jpg,2,2,j,2,20,80,16,j,1,1.24966429401,02,P02,02,60.0247439965,B,PLT_transfer_02,2014_Jan_30_1242,
ques.jpg,stim_02/e.jpg,stim_02/f.jpg,2,9,j,2,21,81,23,f,0,0.683177528073,02,P02,02,60.0247439965,B,PLT_transfer_02,2014_Jan_30_1242,
ques.jpg,stim_02/f.jpg,stim_02/c.jpg,1,8,f,2,22,82,7,f,1,0.56653121055,02,P02,02,60.0247439965,B,PLT_transfer_02,2014_Jan_30_1242,
ques.jpg,stim_02/e.jpg,stim_02/b.jpg,1,12,j,2,23,83,11,f,0,1.19958981816,02,P02,02,60.0247439965,B,PLT_transfer_02,2014_Jan_30_1242,
ques.jpg,stim_02/d.jpg,stim_02/c.jpg,1,6,f,2,24,84,5,f,1,0.733130973711,02,P02,02,60.0247439965,B,PLT_transfer_02,2014_Jan_30_1242,
ques.jpg,stim_02/b.jpg,stim_02/a.jpg,1,1,f,2,25,85,0,f,1,0.883058287312,02,P02,02,60.0247439965,B,PLT_transfer_02,2014_Jan_30_1242,
ques.jpg,stim_02/a.jpg,stim_02/f.jpg,2,5,j,2,26,86,19,f,0,0.749809071327,02,P02,02,60.0247439965,B,PLT_transfer_02,2014_Jan_30_1242,
ques.jpg,stim_02/e.jpg,stim_02/d.jpg,1,14,j,2,27,87,13,j,1,1.41625682718,02,P02,02,60.0247439965,B,PLT_transfer_02,2014_Jan_30_1242,
ques.jpg,stim_02/b.jpg,stim_02/d.jpg,2,11,f,2,28,88,25,f,1,0.983052994139,02,P02,02,60.0247439965,B,PLT_transfer_02,2014_Jan_30_1242,
ques.jpg,stim_02/a.jpg,stim_02/b.jpg,2,1,j,2,29,89,15,j,1,0.616508520581,02,P02,02,60.0247439965,B,PLT_transfer_02,2014_Jan_30_1242,
ques.jpg,stim_02/e.jpg,stim_02/d.jpg,1,14,j,3,0,90,13,f,0,1.18298770465,02,P02,02,60.0247439965,B,PLT_transfer_02,2014_Jan_30_1242,
ques.jpg,stim_02/b.jpg,stim_02/d.jpg,2,11,f,3,1,91,25,j,0,0.733120985853,02,P02,02,60.0247439965,B,PLT_transfer_02,2014_Jan_30_1242,
ques.jpg,stim_02/d.jpg,stim_02/e.jpg,2,14,f,3,2,92,28,f,1,1.03311711522,02,P02,02,60.0247439965,B,PLT_transfer_02,2014_Jan_30_1242,
ques.jpg,stim_02/b.jpg,stim_02/c.jpg,2,10,f,3,3,93,24,f,1,0.633033116168,02,P02,02,60.0247439965,B,PLT_transfer_02,2014_Jan_30_1242,
ques.jpg,stim_02/e.jpg,stim_02/a.jpg,1,4,f,3,4,94,3,f,1,0.649813606613,02,P02,02,60.0247439965,B,PLT_transfer_02,2014_Jan_30_1242,
ques.jpg,stim_02/a.jpg,stim_02/b.jpg,2,1,j,3,5,95,15,j,1,0.633196398537,02,P02,02,60.0247439965,B,PLT_transfer_02,2014_Jan_30_1242,
ques.jpg,stim_02/a.jpg,stim_02/c.jpg,2,2,j,3,6,96,16,f,0,0.666486029105,02,P02,02,60.0247439965,B,PLT_transfer_02,2014_Jan_30_1242,
ques.jpg,stim_02/d.jpg,stim_02/c.jpg,1,6,f,3,7,97,5,f,1,0.616487209543,02,P02,02,60.0247439965,B,PLT_transfer_02,2014_Jan_30_1242,
ques.jpg,stim_02/e.jpg,stim_02/f.jpg,2,9,j,3,8,98,23,f,0,0.866429121476,02,P02,02,60.0247439965,B,PLT_transfer_02,2014_Jan_30_1242,
ques.jpg,stim_02/f.jpg,stim_02/e.jpg,1,9,f,3,9,99,8,j,0,0.783117829498,02,P02,02,60.0247439965,B,PLT_transfer_02,2014_Jan_30_1242,
ques.jpg,stim_02/e.jpg,stim_02/b.jpg,1,12,j,3,10,100,11,j,1,0.833089930565,02,P02,02,60.0247439965,B,PLT_transfer_02,2014_Jan_30_1242,
ques.jpg,stim_02/f.jpg,stim_02/b.jpg,1,13,j,3,11,101,12,j,1,0.733146086322,02,P02,02,60.0247439965,B,PLT_transfer_02,2014_Jan_30_1242,
ques.jpg,stim_02/f.jpg,stim_02/c.jpg,1,8,f,3,12,102,7,f,1,0.533199845115,02,P02,02,60.0247439965,B,PLT_transfer_02,2014_Jan_30_1242,
ques.jpg,stim_02/c.jpg,stim_02/d.jpg,2,6,j,3,13,103,20,j,1,1.08303198987,02,P02,02,60.0247439965,B,PLT_transfer_02,2014_Jan_30_1242,
ques.jpg,stim_02/c.jpg,stim_02/b.jpg,1,10,j,3,14,104,9,j,1,0.616419959173,02,P02,02,60.0247439965,B,PLT_transfer_02,2014_Jan_30_1242,
ques.jpg,stim_02/f.jpg,stim_02/d.jpg,1,15,j,3,15,105,14,j,1,0.69980711195,02,P02,02,60.0247439965,B,PLT_transfer_02,2014_Jan_30_1242,
ques.jpg,stim_02/a.jpg,stim_02/d.jpg,2,3,j,3,16,106,17,j,1,0.549908567948,02,P02,02,60.0247439965,B,PLT_transfer_02,2014_Jan_30_1242,
ques.jpg,stim_02/d.jpg,stim_02/a.jpg,1,3,f,3,17,107,2,f,1,0.483211386338,02,P02,02,60.0247439965,B,PLT_transfer_02,2014_Jan_30_1242,
ques.jpg,stim_02/d.jpg,stim_02/f.jpg,2,15,f,3,18,108,29,f,1,0.683160571873,02,P02,02,60.0247439965,B,PLT_transfer_02,2014_Jan_30_1242,
ques.jpg,stim_02/a.jpg,stim_02/e.jpg,2,4,j,3,19,109,18,j,1,0.599863006056,02,P02,02,60.0247439965,B,PLT_transfer_02,2014_Jan_30_1242,
ques.jpg,stim_02/f.jpg,stim_02/a.jpg,1,5,f,3,20,110,4,f,1,1.29959083469,02,P02,02,60.0247439965,B,PLT_transfer_02,2014_Jan_30_1242,
ques.jpg,stim_02/c.jpg,stim_02/e.jpg,2,7,j,3,21,111,21,j,1,0.566530172968,02,P02,02,60.0247439965,B,PLT_transfer_02,2014_Jan_30_1242,
ques.jpg,stim_02/b.jpg,stim_02/e.jpg,2,12,f,3,22,112,26,f,1,0.699784907689,02,P02,02,60.0247439965,B,PLT_transfer_02,2014_Jan_30_1242,
ques.jpg,stim_02/b.jpg,stim_02/f.jpg,2,13,f,3,23,113,27,f,1,0.749845479938,02,P02,02,60.0247439965,B,PLT_transfer_02,2014_Jan_30_1242,
ques.jpg,stim_02/e.jpg,stim_02/c.jpg,1,7,f,3,24,114,6,f,1,0.599834675549,02,P02,02,60.0247439965,B,PLT_transfer_02,2014_Jan_30_1242,
ques.jpg,stim_02/c.jpg,stim_02/f.jpg,2,8,j,3,25,115,22,f,0,0.699744303636,02,P02,02,60.0247439965,B,PLT_transfer_02,2014_Jan_30_1242,
ques.jpg,stim_02/c.jpg,stim_02/a.jpg,1,2,f,3,26,116,1,f,1,0.833118516709,02,P02,02,60.0247439965,B,PLT_transfer_02,2014_Jan_30_1242,
ques.jpg,stim_02/a.jpg,stim_02/f.jpg,2,5,j,3,27,117,19,j,1,0.833094904945,02,P02,02,60.0247439965,B,PLT_transfer_02,2014_Jan_30_1242,
ques.jpg,stim_02/d.jpg,stim_02/b.jpg,1,11,j,3,28,118,10,j,1,0.683172854442,02,P02,02,60.0247439965,B,PLT_transfer_02,2014_Jan_30_1242,
ques.jpg,stim_02/b.jpg,stim_02/a.jpg,1,1,f,3,29,119,0,f,1,0.666475274339,02,P02,02,60.0247439965,B,PLT_transfer_02,2014_Jan_30_1242,
ques.jpg,stim_02/d.jpg,stim_02/c.jpg,1,6,f,4,0,120,5,f,1,0.666506904057,02,P02,02,60.0247439965,B,PLT_transfer_02,2014_Jan_30_1242,
ques.jpg,stim_02/b.jpg,stim_02/e.jpg,2,12,f,4,1,121,26,f,1,0.916414494573,02,P02,02,60.0247439965,B,PLT_transfer_02,2014_Jan_30_1242,
ques.jpg,stim_02/b.jpg,stim_02/c.jpg,2,10,f,4,2,122,24,f,1,0.583193058725,02,P02,02,60.0247439965,B,PLT_transfer_02,2014_Jan_30_1242,
ques.jpg,stim_02/c.jpg,stim_02/a.jpg,1,2,f,4,3,123,1,f,1,1.31628987342,02,P02,02,60.0247439965,B,PLT_transfer_02,2014_Jan_30_1242,
ques.jpg,stim_02/c.jpg,stim_02/b.jpg,1,10,j,4,4,124,9,j,1,0.666461915091,02,P02,02,60.0247439965,B,PLT_transfer_02,2014_Jan_30_1242,
ques.jpg,stim_02/c.jpg,stim_02/f.jpg,2,8,j,4,5,125,22,j,1,0.932985757303,02,P02,02,60.0247439965,B,PLT_transfer_02,2014_Jan_30_1242,
ques.jpg,stim_02/d.jpg,stim_02/e.jpg,2,14,f,4,6,126,28,f,1,0.89971213257,02,P02,02,60.0247439965,B,PLT_transfer_02,2014_Jan_30_1242,
ques.jpg,stim_02/b.jpg,stim_02/f.jpg,2,13,f,4,7,127,27,f,1,0.71649170874,02,P02,02,60.0247439965,B,PLT_transfer_02,2014_Jan_30_1242,
ques.jpg,stim_02/e.jpg,stim_02/b.jpg,1,12,j,4,8,128,11,f,0,1.0330283884,02,P02,02,60.0247439965,B,PLT_transfer_02,2014_Jan_30_1242,
ques.jpg,stim_02/d.jpg,stim_02/b.jpg,1,11,j,4,9,129,10,f,0,0.849794208336,02,P02,02,60.0247439965,B,PLT_transfer_02,2014_Jan_30_1242,
ques.jpg,stim_02/a.jpg,stim_02/e.jpg,2,4,j,4,10,130,18,j,1,0.650836313876,02,P02,02,60.0247439965,B,PLT_transfer_02,2014_Jan_30_1242,
ques.jpg,stim_02/d.jpg,stim_02/a.jpg,1,3,f,4,11,131,2,f,1,0.749800358642,02,P02,02,60.0247439965,B,PLT_transfer_02,2014_Jan_30_1242,
ques.jpg,stim_02/e.jpg,stim_02/d.jpg,1,14,j,4,12,132,13,j,1,0.699814976523,02,P02,02,60.0247439965,B,PLT_transfer_02,2014_Jan_30_1242,
ques.jpg,stim_02/c.jpg,stim_02/e.jpg,2,7,j,4,13,133,21,j,1,0.616454217433,02,P02,02,60.0247439965,B,PLT_transfer_02,2014_Jan_30_1242,
ques.jpg,stim_02/d.jpg,stim_02/f.jpg,2,15,f,4,14,134,29,f,1,0.76623789055,02,P02,02,60.0247439965,B,PLT_transfer_02,2014_Jan_30_1242,
ques.jpg,stim_02/a.jpg,stim_02/c.jpg,2,2,j,4,15,135,16,j,1,0.899774688255,02,P02,02,60.0247439965,B,PLT_transfer_02,2014_Jan_30_1242,
ques.jpg,stim_02/e.jpg,stim_02/f.jpg,2,9,j,4,16,136,23,f,0,0.649876835975,02,P02,02,60.0247439965,B,PLT_transfer_02,2014_Jan_30_1242,
ques.jpg,stim_02/a.jpg,stim_02/f.jpg,2,5,j,4,17,137,19,j,1,0.799779852107,02,P02,02,60.0247439965,B,PLT_transfer_02,2014_Jan_30_1242,
ques.jpg,stim_02/f.jpg,stim_02/e.jpg,1,9,f,4,18,138,8,j,0,0.833092050842,02,P02,02,60.0247439965,B,PLT_transfer_02,2014_Jan_30_1242,
ques.jpg,stim_02/f.jpg,stim_02/c.jpg,1,8,f,4,19,139,7,f,1,0.666454739232,02,P02,02,60.0247439965,B,PLT_transfer_02,2014_Jan_30_1242,
ques.jpg,stim_02/a.jpg,stim_02/d.jpg,2,3,j,4,20,140,17,j,1,0.666502546212,02,P02,02,60.0247439965,B,PLT_transfer_02,2014_Jan_30_1242,
ques.jpg,stim_02/e.jpg,stim_02/a.jpg,1,4,f,4,21,141,3,f,1,0.766457467021,02,P02,02,60.0247439965,B,PLT_transfer_02,2014_Jan_30_1242,
ques.jpg,stim_02/b.jpg,stim_02/d.jpg,2,11,f,4,22,142,25,f,1,1.09966856614,02,P02,02,60.0247439965,B,PLT_transfer_02,2014_Jan_30_1242,
ques.jpg,stim_02/a.jpg,stim_02/b.jpg,2,1,j,4,23,143,15,j,1,0.599898647759,02,P02,02,60.0247439965,B,PLT_transfer_02,2014_Jan_30_1242,
ques.jpg,stim_02/f.jpg,stim_02/d.jpg,1,15,j,4,24,144,14,j,1,0.699871036041,02,P02,02,60.0247439965,B,PLT_transfer_02,2014_Jan_30_1242,
ques.jpg,stim_02/c.jpg,stim_02/d.jpg,2,6,j,4,25,145,20,j,1,0.633156374928,02,P02,02,60.0247439965,B,PLT_transfer_02,2014_Jan_30_1242,
ques.jpg,stim_02/f.jpg,stim_02/a.jpg,1,5,f,4,26,146,4,f,1,0.799767912392,02,P02,02,60.0247439965,B,PLT_transfer_02,2014_Jan_30_1242,
ques.jpg,stim_02/e.jpg,stim_02/c.jpg,1,7,f,4,27,147,6,f,1,0.916388458777,02,P02,02,60.0247439965,B,PLT_transfer_02,2014_Jan_30_1242,
ques.jpg,stim_02/b.jpg,stim_02/a.jpg,1,1,f,4,28,148,0,f,1,0.649828926741,02,P02,02,60.0247439965,B,PLT_transfer_02,2014_Jan_30_1242,
ques.jpg,stim_02/f.jpg,stim_02/b.jpg,1,13,j,4,29,149,12,j,1,0.599855496366,02,P02,02,60.0247439965,B,PLT_transfer_02,2014_Jan_30_1242,
ques.jpg,stim_02/f.jpg,stim_02/a.jpg,1,5,f,5,0,150,4,f,1,0.749811967534,02,P02,02,60.0247439965,B,PLT_transfer_02,2014_Jan_30_1242,
ques.jpg,stim_02/c.jpg,stim_02/a.jpg,1,2,f,5,1,151,1,j,0,1.21633190904,02,P02,02,60.0247439965,B,PLT_transfer_02,2014_Jan_30_1242,
ques.jpg,stim_02/e.jpg,stim_02/c.jpg,1,7,f,5,2,152,6,f,1,0.866410183344,02,P02,02,60.0247439965,B,PLT_transfer_02,2014_Jan_30_1242,
ques.jpg,stim_02/d.jpg,stim_02/b.jpg,1,11,j,5,3,153,10,f,0,1.09967988632,02,P02,02,60.0247439965,B,PLT_transfer_02,2014_Jan_30_1242,
ques.jpg,stim_02/e.jpg,stim_02/f.jpg,2,9,j,5,4,154,23,f,0,0.899731097769,02,P02,02,60.0247439965,B,PLT_transfer_02,2014_Jan_30_1242,
ques.jpg,stim_02/b.jpg,stim_02/d.jpg,2,11,f,5,5,155,25,j,0,1.01638786029,02,P02,02,60.0247439965,B,PLT_transfer_02,2014_Jan_30_1242,
ques.jpg,stim_02/d.jpg,stim_02/f.jpg,2,15,f,5,6,156,29,f,1,0.933063705297,02,P02,02,60.0247439965,B,PLT_transfer_02,2014_Jan_30_1242,
ques.jpg,stim_02/f.jpg,stim_02/d.jpg,1,15,j,5,7,157,14,j,1,1.39954530438,02,P02,02,60.0247439965,B,PLT_transfer_02,2014_Jan_30_1242,
ques.jpg,stim_02/d.jpg,stim_02/e.jpg,2,14,f,5,8,158,28,j,0,0.899702072533,02,P02,02,60.0247439965,B,PLT_transfer_02,2014_Jan_30_1242,
ques.jpg,stim_02/a.jpg,stim_02/f.jpg,2,5,j,5,9,159,19,j,1,0.949752969703,02,P02,02,60.0247439965,B,PLT_transfer_02,2014_Jan_30_1242,
ques.jpg,stim_02/e.jpg,stim_02/d.jpg,1,14,j,5,10,160,13,f,0,1.03304671301,02,P02,02,60.0247439965,B,PLT_transfer_02,2014_Jan_30_1242,
ques.jpg,stim_02/d.jpg,stim_02/c.jpg,1,6,f,5,11,161,5,f,1,1.01637798671,02,P02,02,60.0247439965,B,PLT_transfer_02,2014_Jan_30_1242,
ques.jpg,stim_02/d.jpg,stim_02/a.jpg,1,3,f,5,12,162,2,f,1,0.966392766999,02,P02,02,60.0247439965,B,PLT_transfer_02,2014_Jan_30_1242,
ques.jpg,stim_02/c.jpg,stim_02/e.jpg,2,7,j,5,13,163,21,j,1,0.733124050481,02,P02,02,60.0247439965,B,PLT_transfer_02,2014_Jan_30_1242,
ques.jpg,stim_02/b.jpg,stim_02/e.jpg,2,12,f,5,14,164,26,f,1,0.933081088559,02,P02,02,60.0247439965,B,PLT_transfer_02,2014_Jan_30_1242,
ques.jpg,stim_02/e.jpg,stim_02/b.jpg,1,12,j,5,15,165,11,f,0,0.79976237862,02,P02,02,60.0247439965,B,PLT_transfer_02,2014_Jan_30_1242,
ques.jpg,stim_02/e.jpg,stim_02/a.jpg,1,4,f,5,16,166,3,f,1,0.799790709127,02,P02,02,60.0247439965,B,PLT_transfer_02,2014_Jan_30_1242,
ques.jpg,stim_02/b.jpg,stim_02/a.jpg,1,1,f,5,17,167,0,f,1,0.816486262185,02,P02,02,60.0247439965,B,PLT_transfer_02,2014_Jan_30_1242,
ques.jpg,stim_02/c.jpg,stim_02/d.jpg,2,6,j,5,18,168,20,j,1,0.633207014958,02,P02,02,60.0247439965,B,PLT_transfer_02,2014_Jan_30_1242,
ques.jpg,stim_02/b.jpg,stim_02/f.jpg,2,13,f,5,19,169,27,f,1,0.916400010526,02,P02,02,60.0247439965,B,PLT_transfer_02,2014_Jan_30_1242,
ques.jpg,stim_02/f.jpg,stim_02/c.jpg,1,8,f,5,20,170,7,j,0,0.716485555426,02,P02,02,60.0247439965,B,PLT_transfer_02,2014_Jan_30_1242,
ques.jpg,stim_02/a.jpg,stim_02/d.jpg,2,3,j,5,21,171,17,j,1,0.833100210148,02,P02,02,60.0247439965,B,PLT_transfer_02,2014_Jan_30_1242,
ques.jpg,stim_02/f.jpg,stim_02/b.jpg,1,13,j,5,22,172,12,j,1,0.799765620689,02,P02,02,60.0247439965,B,PLT_transfer_02,2014_Jan_30_1242,
ques.jpg,stim_02/c.jpg,stim_02/b.jpg,1,10,j,5,23,173,9,j,1,0.599858900839,02,P02,02,60.0247439965,B,PLT_transfer_02,2014_Jan_30_1242,
ques.jpg,stim_02/a.jpg,stim_02/e.jpg,2,4,j,5,24,174,18,j,1,0.716476313425,02,P02,02,60.0247439965,B,PLT_transfer_02,2014_Jan_30_1242,
ques.jpg,stim_02/b.jpg,stim_02/c.jpg,2,10,f,5,25,175,24,f,1,0.54985413548,02,P02,02,60.0247439965,B,PLT_transfer_02,2014_Jan_30_1242,
ques.jpg,stim_02/a.jpg,stim_02/b.jpg,2,1,j,5,26,176,15,j,1,0.633166188351,02,P02,02,60.0247439965,B,PLT_transfer_02,2014_Jan_30_1242,
ques.jpg,stim_02/f.jpg,stim_02/e.jpg,1,9,f,5,27,177,8,j,0,0.949735514261,02,P02,02,60.0247439965,B,PLT_transfer_02,2014_Jan_30_1242,
ques.jpg,stim_02/c.jpg,stim_02/f.jpg,2,8,j,5,28,178,22,j,1,1.08301953587,02,P02,02,60.0247439965,B,PLT_transfer_02,2014_Jan_30_1242,
ques.jpg,stim_02/a.jpg,stim_02/c.jpg,2,2,j,5,29,179,16,j,1,0.999735392458,02,P02,02,60.0247439965,B,PLT_transfer_02,2014_Jan_30_1242,
