Fb3,Symbol2,Symbol1,PosCond,tID,Correct,trials.thisRepN,trials.thisTrialN,trials.thisN,trials.thisIndex,Response.keys,Response.corr,Response.rt,session,participant,version,frameRate,stimulation,expName,date,
ques.jpg,stim_03/b.jpg,stim_03/c.jpg,2,10,f,0,0,0,24,f,1,1.33295174566,03,P05,03,60.019821661,B,PLT_transfer_03,2014_Feb_19_1706,
ques.jpg,stim_03/f.jpg,stim_03/e.jpg,1,9,f,0,1,1,8,f,1,1.21632685947,03,P05,03,60.019821661,B,PLT_transfer_03,2014_Feb_19_1706,
ques.jpg,stim_03/f.jpg,stim_03/a.jpg,1,5,f,0,2,2,4,f,1,1.29958456709,03,P05,03,60.019821661,B,PLT_transfer_03,2014_Feb_19_1706,
ques.jpg,stim_03/b.jpg,stim_03/d.jpg,2,11,f,0,3,3,25,f,1,1.51620063232,03,P05,03,60.019821661,B,PLT_transfer_03,2014_Feb_19_1706,
ques.jpg,stim_03/e.jpg,stim_03/f.jpg,2,9,j,0,4,4,23,j,1,1.41625941362,03,P05,03,60.019821661,B,PLT_transfer_03,2014_Feb_19_1706,
ques.jpg,stim_03/d.jpg,stim_03/c.jpg,1,6,f,0,5,5,5,f,1,1.149692817,03,P05,03,60.019821661,B,PLT_transfer_03,2014_Feb_19_1706,
ques.jpg,stim_03/d.jpg,stim_03/b.jpg,1,11,j,0,6,6,10,j,1,1.58285174528,03,P05,03,60.019821661,B,PLT_transfer_03,2014_Feb_19_1706,
ques.jpg,stim_03/c.jpg,stim_03/d.jpg,2,6,j,0,7,7,20,f,0,1.58288729074,03,P05,03,60.019821661,B,PLT_transfer_03,2014_Feb_19_1706,
ques.jpg,stim_03/e.jpg,stim_03/d.jpg,1,14,j,0,8,8,13,j,1,1.2829653861,03,P05,03,60.019821661,B,PLT_transfer_03,2014_Feb_19_1706,
ques.jpg,stim_03/c.jpg,stim_03/b.jpg,1,10,j,0,9,9,9,j,1,1.14965979481,03,P05,03,60.019821661,B,PLT_transfer_03,2014_Feb_19_1706,
ques.jpg,stim_03/a.jpg,stim_03/f.jpg,2,5,j,0,10,10,19,j,1,0.933218154682,03,P05,03,60.019821661,B,PLT_transfer_03,2014_Feb_19_1706,
ques.jpg,stim_03/c.jpg,stim_03/f.jpg,2,8,j,0,11,11,22,j,1,0.866402643579,03,P05,03,60.019821661,B,PLT_transfer_03,2014_Feb_19_1706,
ques.jpg,stim_03/a.jpg,stim_03/d.jpg,2,3,j,0,12,12,17,j,1,0.966395055695,03,P05,03,60.019821661,B,PLT_transfer_03,2014_Feb_19_1706,
ques.jpg,stim_03/f.jpg,stim_03/b.jpg,1,13,j,0,13,13,12,j,1,1.44955519449,03,P05,03,60.019821661,B,PLT_transfer_03,2014_Feb_19_1706,
ques.jpg,stim_03/a.jpg,stim_03/c.jpg,2,2,j,0,14,14,16,f,0,0.799774910809,03,P05,03,60.019821661,B,PLT_transfer_03,2014_Feb_19_1706,
ques.jpg,stim_03/f.jpg,stim_03/d.jpg,1,15,j,0,15,15,14,f,0,1.41626096548,03,P05,03,60.019821661,B,PLT_transfer_03,2014_Feb_19_1706,
ques.jpg,stim_03/e.jpg,stim_03/a.jpg,1,4,f,0,16,16,3,f,1,1.43289178242,03,P05,03,60.019821661,B,PLT_transfer_03,2014_Feb_19_1706,
ques.jpg,stim_03/d.jpg,stim_03/f.jpg,2,15,f,0,17,17,29,None,0,,03,P05,03,60.019821661,B,PLT_transfer_03,2014_Feb_19_1706,
ques.jpg,stim_03/b.jpg,stim_03/f.jpg,2,13,f,0,18,18,27,j,0,1.1330018263,03,P05,03,60.019821661,B,PLT_transfer_03,2014_Feb_19_1706,
ques.jpg,stim_03/a.jpg,stim_03/e.jpg,2,4,j,0,19,19,18,j,1,1.49947930813,03,P05,03,60.019821661,B,PLT_transfer_03,2014_Feb_19_1706,
ques.jpg,stim_03/f.jpg,stim_03/c.jpg,1,8,f,0,20,20,7,f,1,0.949722846735,03,P05,03,60.019821661,B,PLT_transfer_03,2014_Feb_19_1706,
ques.jpg,stim_03/e.jpg,stim_03/b.jpg,1,12,j,0,21,21,11,j,1,0.933062421101,03,P05,03,60.019821661,B,PLT_transfer_03,2014_Feb_19_1706,
ques.jpg,stim_03/c.jpg,stim_03/a.jpg,1,2,f,0,22,22,1,f,1,1.44952684895,03,P05,03,60.019821661,B,PLT_transfer_03,2014_Feb_19_1706,
ques.jpg,stim_03/e.jpg,stim_03/c.jpg,1,7,f,0,23,23,6,f,1,1.03307127814,03,P05,03,60.019821661,B,PLT_transfer_03,2014_Feb_19_1706,
ques.jpg,stim_03/b.jpg,stim_03/e.jpg,2,12,f,0,24,24,26,f,1,1.14966883531,03,P05,03,60.019821661,B,PLT_transfer_03,2014_Feb_19_1706,
ques.jpg,stim_03/d.jpg,stim_03/e.jpg,2,14,f,0,25,25,28,f,1,1.21632078736,03,P05,03,60.019821661,B,PLT_transfer_03,2014_Feb_19_1706,
ques.jpg,stim_03/c.jpg,stim_03/e.jpg,2,7,j,0,26,26,21,f,0,0.749769255234,03,P05,03,60.019821661,B,PLT_transfer_03,2014_Feb_19_1706,
ques.jpg,stim_03/a.jpg,stim_03/b.jpg,2,1,j,0,27,27,15,j,1,1.01639122266,03,P05,03,60.019821661,B,PLT_transfer_03,2014_Feb_19_1706,
ques.jpg,stim_03/b.jpg,stim_03/a.jpg,1,1,f,0,28,28,0,f,1,1.14966722631,03,P05,03,60.019821661,B,PLT_transfer_03,2014_Feb_19_1706,
ques.jpg,stim_03/d.jpg,stim_03/a.jpg,1,3,f,0,29,29,2,f,1,1.19968177201,03,P05,03,60.019821661,B,PLT_transfer_03,2014_Feb_19_1706,
ques.jpg,stim_03/d.jpg,stim_03/b.jpg,1,11,j,1,0,30,10,None,0,,03,P05,03,60.019821661,B,PLT_transfer_03,2014_Feb_19_1706,
ques.jpg,stim_03/b.jpg,stim_03/e.jpg,2,12,f,1,1,31,26,f,1,1.11635996587,03,P05,03,60.019821661,B,PLT_transfer_03,2014_Feb_19_1706,
ques.jpg,stim_03/f.jpg,stim_03/d.jpg,1,15,j,1,2,32,14,f,0,0.966403864618,03,P05,03,60.019821661,B,PLT_transfer_03,2014_Feb_19_1706,
ques.jpg,stim_03/b.jpg,stim_03/c.jpg,2,10,f,1,3,33,24,f,1,1.14970747247,03,P05,03,60.019821661,B,PLT_transfer_03,2014_Feb_19_1706,
ques.jpg,stim_03/d.jpg,stim_03/f.jpg,2,15,f,1,4,34,29,j,0,1.08304568896,03,P05,03,60.019821661,B,PLT_transfer_03,2014_Feb_19_1706,
ques.jpg,stim_03/a.jpg,stim_03/e.jpg,2,4,j,1,5,35,18,j,1,1.08301728026,03,P05,03,60.019821661,B,PLT_transfer_03,2014_Feb_19_1706,
ques.jpg,stim_03/d.jpg,stim_03/c.jpg,1,6,f,1,6,36,5,f,1,0.733139758574,03,P05,03,60.019821661,B,PLT_transfer_03,2014_Feb_19_1706,
ques.jpg,stim_03/e.jpg,stim_03/f.jpg,2,9,j,1,7,37,23,j,1,1.11633989993,03,P05,03,60.019821661,B,PLT_transfer_03,2014_Feb_19_1706,
ques.jpg,stim_03/c.jpg,stim_03/f.jpg,2,8,j,1,8,38,22,j,1,0.933071193934,03,P05,03,60.019821661,B,PLT_transfer_03,2014_Feb_19_1706,
ques.jpg,stim_03/b.jpg,stim_03/a.jpg,1,1,f,1,9,39,0,f,1,0.733139295422,03,P05,03,60.019821661,B,PLT_transfer_03,2014_Feb_19_1706,
ques.jpg,stim_03/c.jpg,stim_03/d.jpg,2,6,j,1,10,40,20,j,1,0.866444234087,03,P05,03,60.019821661,B,PLT_transfer_03,2014_Feb_19_1706,
ques.jpg,stim_03/a.jpg,stim_03/f.jpg,2,5,j,1,11,41,19,j,1,0.849776449138,03,P05,03,60.019821661,B,PLT_transfer_03,2014_Feb_19_1706,
ques.jpg,stim_03/e.jpg,stim_03/c.jpg,1,7,f,1,12,42,6,f,1,0.883099790604,03,P05,03,60.019821661,B,PLT_transfer_03,2014_Feb_19_1706,
ques.jpg,stim_03/f.jpg,stim_03/e.jpg,1,9,f,1,13,43,8,f,1,0.833102901847,03,P05,03,60.019821661,B,PLT_transfer_03,2014_Feb_19_1706,
ques.jpg,stim_03/a.jpg,stim_03/c.jpg,2,2,j,1,14,44,16,j,1,1.26629238016,03,P05,03,60.019821661,B,PLT_transfer_03,2014_Feb_19_1706,
ques.jpg,stim_03/f.jpg,stim_03/a.jpg,1,5,f,1,15,45,4,f,1,0.883058491822,03,P05,03,60.019821661,B,PLT_transfer_03,2014_Feb_19_1706,
ques.jpg,stim_03/a.jpg,stim_03/b.jpg,2,1,j,1,16,46,15,j,1,0.899738315733,03,P05,03,60.019821661,B,PLT_transfer_03,2014_Feb_19_1706,
ques.jpg,stim_03/e.jpg,stim_03/a.jpg,1,4,f,1,17,47,3,f,1,0.783103871761,03,P05,03,60.019821661,B,PLT_transfer_03,2014_Feb_19_1706,
ques.jpg,stim_03/d.jpg,stim_03/a.jpg,1,3,f,1,18,48,2,f,1,0.899739329256,03,P05,03,60.019821661,B,PLT_transfer_03,2014_Feb_19_1706,
ques.jpg,stim_03/c.jpg,stim_03/e.jpg,2,7,j,1,19,49,21,j,1,0.916398566933,03,P05,03,60.019821661,B,PLT_transfer_03,2014_Feb_19_1706,
ques.jpg,stim_03/b.jpg,stim_03/d.jpg,2,11,f,1,20,50,25,f,1,1.13298226261,03,P05,03,60.019821661,B,PLT_transfer_03,2014_Feb_19_1706,
ques.jpg,stim_03/f.jpg,stim_03/b.jpg,1,13,j,1,21,51,12,j,1,1.14966759322,03,P05,03,60.019821661,B,PLT_transfer_03,2014_Feb_19_1706,
ques.jpg,stim_03/b.jpg,stim_03/f.jpg,2,13,f,1,22,52,27,f,1,1.51619910452,03,P05,03,60.019821661,B,PLT_transfer_03,2014_Feb_19_1706,
ques.jpg,stim_03/e.jpg,stim_03/b.jpg,1,12,j,1,23,53,11,j,1,1.16633706838,03,P05,03,60.019821661,B,PLT_transfer_03,2014_Feb_19_1706,
ques.jpg,stim_03/d.jpg,stim_03/e.jpg,2,14,f,1,24,54,28,f,1,1.04971451901,03,P05,03,60.019821661,B,PLT_transfer_03,2014_Feb_19_1706,
ques.jpg,stim_03/a.jpg,stim_03/d.jpg,2,3,j,1,25,55,17,j,1,0.833111776935,03,P05,03,60.019821661,B,PLT_transfer_03,2014_Feb_19_1706,
ques.jpg,stim_03/e.jpg,stim_03/d.jpg,1,14,j,1,26,56,13,j,1,0.932919998647,03,P05,03,60.019821661,B,PLT_transfer_03,2014_Feb_19_1706,
ques.jpg,stim_03/f.jpg,stim_03/c.jpg,1,8,f,1,27,57,7,f,1,0.883087480968,03,P05,03,60.019821661,B,PLT_transfer_03,2014_Feb_19_1706,
ques.jpg,stim_03/c.jpg,stim_03/a.jpg,1,2,f,1,28,58,1,f,1,1.06632737225,03,P05,03,60.019821661,B,PLT_transfer_03,2014_Feb_19_1706,
ques.jpg,stim_03/c.jpg,stim_03/b.jpg,1,10,j,1,29,59,9,j,1,0.866440943899,03,P05,03,60.019821661,B,PLT_transfer_03,2014_Feb_19_1706,
ques.jpg,stim_03/c.jpg,stim_03/b.jpg,1,10,j,2,0,60,9,j,1,0.816416993794,03,P05,03,60.019821661,B,PLT_transfer_03,2014_Feb_19_1706,
ques.jpg,stim_03/d.jpg,stim_03/e.jpg,2,14,f,2,1,61,28,f,1,0.8331127273,03,P05,03,60.019821661,B,PLT_transfer_03,2014_Feb_19_1706,
ques.jpg,stim_03/a.jpg,stim_03/c.jpg,2,2,j,2,2,62,16,j,1,0.966441602538,03,P05,03,60.019821661,B,PLT_transfer_03,2014_Feb_19_1706,
ques.jpg,stim_03/b.jpg,stim_03/c.jpg,2,10,f,2,3,63,24,f,1,1.01640730668,03,P05,03,60.019821661,B,PLT_transfer_03,2014_Feb_19_1706,
ques.jpg,stim_03/b.jpg,stim_03/a.jpg,1,1,f,2,4,64,0,f,1,1.01637561381,03,P05,03,60.019821661,B,PLT_transfer_03,2014_Feb_19_1706,
ques.jpg,stim_03/f.jpg,stim_03/a.jpg,1,5,f,2,5,65,4,f,1,0.716492881659,03,P05,03,60.019821661,B,PLT_transfer_03,2014_Feb_19_1706,
ques.jpg,stim_03/a.jpg,stim_03/f.jpg,2,5,j,2,6,66,19,j,1,0.766499914663,03,P05,03,60.019821661,B,PLT_transfer_03,2014_Feb_19_1706,
ques.jpg,stim_03/c.jpg,stim_03/f.jpg,2,8,j,2,7,67,22,j,1,0.766442949891,03,P05,03,60.019821661,B,PLT_transfer_03,2014_Feb_19_1706,
ques.jpg,stim_03/f.jpg,stim_03/e.jpg,1,9,f,2,8,68,8,f,1,1.04969635982,03,P05,03,60.019821661,B,PLT_transfer_03,2014_Feb_19_1706,
ques.jpg,stim_03/e.jpg,stim_03/c.jpg,1,7,f,2,9,69,6,f,1,1.11634826976,03,P05,03,60.019821661,B,PLT_transfer_03,2014_Feb_19_1706,
ques.jpg,stim_03/b.jpg,stim_03/e.jpg,2,12,f,2,10,70,26,f,1,1.09970879125,03,P05,03,60.019821661,B,PLT_transfer_03,2014_Feb_19_1706,
ques.jpg,stim_03/b.jpg,stim_03/f.jpg,2,13,f,2,11,71,27,f,1,1.11635991775,03,P05,03,60.019821661,B,PLT_transfer_03,2014_Feb_19_1706,
ques.jpg,stim_03/f.jpg,stim_03/b.jpg,1,13,j,2,12,72,12,j,1,0.833169809363,03,P05,03,60.019821661,B,PLT_transfer_03,2014_Feb_19_1706,
ques.jpg,stim_03/a.jpg,stim_03/e.jpg,2,4,j,2,13,73,18,j,1,1.11634673594,03,P05,03,60.019821661,B,PLT_transfer_03,2014_Feb_19_1706,
ques.jpg,stim_03/f.jpg,stim_03/c.jpg,1,8,f,2,14,74,7,f,1,0.766471388668,03,P05,03,60.019821661,B,PLT_transfer_03,2014_Feb_19_1706,
ques.jpg,stim_03/e.jpg,stim_03/d.jpg,1,14,j,2,15,75,13,j,1,0.833137776642,03,P05,03,60.019821661,B,PLT_transfer_03,2014_Feb_19_1706,
ques.jpg,stim_03/d.jpg,stim_03/f.jpg,2,15,f,2,16,76,29,f,1,1.03301293594,03,P05,03,60.019821661,B,PLT_transfer_03,2014_Feb_19_1706,
ques.jpg,stim_03/c.jpg,stim_03/a.jpg,1,2,f,2,17,77,1,f,1,0.916420590745,03,P05,03,60.019821661,B,PLT_transfer_03,2014_Feb_19_1706,
ques.jpg,stim_03/c.jpg,stim_03/d.jpg,2,6,j,2,18,78,20,j,1,0.799773349925,03,P05,03,60.019821661,B,PLT_transfer_03,2014_Feb_19_1706,
ques.jpg,stim_03/e.jpg,stim_03/f.jpg,2,9,j,2,19,79,23,j,1,0.883106410078,03,P05,03,60.019821661,B,PLT_transfer_03,2014_Feb_19_1706,
ques.jpg,stim_03/d.jpg,stim_03/a.jpg,1,3,f,2,20,80,2,f,1,0.899773151431,03,P05,03,60.019821661,B,PLT_transfer_03,2014_Feb_19_1706,
ques.jpg,stim_03/a.jpg,stim_03/d.jpg,2,3,j,2,21,81,17,j,1,0.999724306869,03,P05,03,60.019821661,B,PLT_transfer_03,2014_Feb_19_1706,
ques.jpg,stim_03/d.jpg,stim_03/c.jpg,1,6,f,2,22,82,5,f,1,0.866455641478,03,P05,03,60.019821661,B,PLT_transfer_03,2014_Feb_19_1706,
ques.jpg,stim_03/c.jpg,stim_03/e.jpg,2,7,j,2,23,83,21,j,1,0.983026305718,03,P05,03,60.019821661,B,PLT_transfer_03,2014_Feb_19_1706,
ques.jpg,stim_03/f.jpg,stim_03/d.jpg,1,15,j,2,24,84,14,j,1,1.08303464848,03,P05,03,60.019821661,B,PLT_transfer_03,2014_Feb_19_1706,
ques.jpg,stim_03/a.jpg,stim_03/b.jpg,2,1,j,2,25,85,15,j,1,0.883103733417,03,P05,03,60.019821661,B,PLT_transfer_03,2014_Feb_19_1706,
ques.jpg,stim_03/e.jpg,stim_03/a.jpg,1,4,f,2,26,86,3,f,1,1.34958962418,03,P05,03,60.019821661,B,PLT_transfer_03,2014_Feb_19_1706,
ques.jpg,stim_03/d.jpg,stim_03/b.jpg,1,11,j,2,27,87,10,j,1,1.51621379909,03,P05,03,60.019821661,B,PLT_transfer_03,2014_Feb_19_1706,
ques.jpg,stim_03/b.jpg,stim_03/d.jpg,2,11,f,2,28,88,25,f,1,1.21626753082,03,P05,03,60.019821661,B,PLT_transfer_03,2014_Feb_19_1706,
ques.jpg,stim_03/e.jpg,stim_03/b.jpg,1,12,j,2,29,89,11,j,1,0.949770307854,03,P05,03,60.019821661,B,PLT_transfer_03,2014_Feb_19_1706,
ques.jpg,stim_03/a.jpg,stim_03/e.jpg,2,4,j,3,0,90,18,j,1,0.983036967252,03,P05,03,60.019821661,B,PLT_transfer_03,2014_Feb_19_1706,
ques.jpg,stim_03/b.jpg,stim_03/a.jpg,1,1,f,3,1,91,0,f,1,0.999724760999,03,P05,03,60.019821661,B,PLT_transfer_03,2014_Feb_19_1706,
ques.jpg,stim_03/d.jpg,stim_03/a.jpg,1,3,f,3,2,92,2,f,1,0.883072416477,03,P05,03,60.019821661,B,PLT_transfer_03,2014_Feb_19_1706,
ques.jpg,stim_03/c.jpg,stim_03/e.jpg,2,7,j,3,3,93,21,j,1,0.816401270662,03,P05,03,60.019821661,B,PLT_transfer_03,2014_Feb_19_1706,
ques.jpg,stim_03/f.jpg,stim_03/e.jpg,1,9,f,3,4,94,8,f,1,0.816482391552,03,P05,03,60.019821661,B,PLT_transfer_03,2014_Feb_19_1706,
ques.jpg,stim_03/d.jpg,stim_03/c.jpg,1,6,f,3,5,95,5,f,1,0.916414548708,03,P05,03,60.019821661,B,PLT_transfer_03,2014_Feb_19_1706,
ques.jpg,stim_03/c.jpg,stim_03/d.jpg,2,6,j,3,6,96,20,j,1,0.849755204265,03,P05,03,60.019821661,B,PLT_transfer_03,2014_Feb_19_1706,
ques.jpg,stim_03/b.jpg,stim_03/f.jpg,2,13,f,3,7,97,27,f,1,0.966413184814,03,P05,03,60.019821661,B,PLT_transfer_03,2014_Feb_19_1706,
ques.jpg,stim_03/d.jpg,stim_03/e.jpg,2,14,f,3,8,98,28,f,1,1.2496299335,03,P05,03,60.019821661,B,PLT_transfer_03,2014_Feb_19_1706,
ques.jpg,stim_03/b.jpg,stim_03/c.jpg,2,10,f,3,9,99,24,f,1,0.883003223272,03,P05,03,60.019821661,B,PLT_transfer_03,2014_Feb_19_1706,
ques.jpg,stim_03/e.jpg,stim_03/b.jpg,1,12,j,3,10,100,11,j,1,0.983037373263,03,P05,03,60.019821661,B,PLT_transfer_03,2014_Feb_19_1706,
ques.jpg,stim_03/c.jpg,stim_03/a.jpg,1,2,f,3,11,101,1,f,1,1.53288005925,03,P05,03,60.019821661,B,PLT_transfer_03,2014_Feb_19_1706,
ques.jpg,stim_03/f.jpg,stim_03/a.jpg,1,5,f,3,12,102,4,f,1,0.749805339038,03,P05,03,60.019821661,B,PLT_transfer_03,2014_Feb_19_1706,
ques.jpg,stim_03/a.jpg,stim_03/f.jpg,2,5,j,3,13,103,19,j,1,0.949818550918,03,P05,03,60.019821661,B,PLT_transfer_03,2014_Feb_19_1706,
ques.jpg,stim_03/f.jpg,stim_03/d.jpg,1,15,j,3,14,104,14,j,1,1.1330179404,03,P05,03,60.019821661,B,PLT_transfer_03,2014_Feb_19_1706,
ques.jpg,stim_03/c.jpg,stim_03/b.jpg,1,10,j,3,15,105,9,j,1,0.833094126006,03,P05,03,60.019821661,B,PLT_transfer_03,2014_Feb_19_1706,
ques.jpg,stim_03/e.jpg,stim_03/a.jpg,1,4,f,3,16,106,3,f,1,0.966398908283,03,P05,03,60.019821661,B,PLT_transfer_03,2014_Feb_19_1706,
ques.jpg,stim_03/f.jpg,stim_03/c.jpg,1,8,f,3,17,107,7,f,1,0.849762016218,03,P05,03,60.019821661,B,PLT_transfer_03,2014_Feb_19_1706,
ques.jpg,stim_03/e.jpg,stim_03/d.jpg,1,14,j,3,18,108,13,j,1,0.94971735206,03,P05,03,60.019821661,B,PLT_transfer_03,2014_Feb_19_1706,
ques.jpg,stim_03/f.jpg,stim_03/b.jpg,1,13,j,3,19,109,12,j,1,0.916399842107,03,P05,03,60.019821661,B,PLT_transfer_03,2014_Feb_19_1706,
ques.jpg,stim_03/a.jpg,stim_03/b.jpg,2,1,j,3,20,110,15,j,1,0.849743625448,03,P05,03,60.019821661,B,PLT_transfer_03,2014_Feb_19_1706,
ques.jpg,stim_03/e.jpg,stim_03/c.jpg,1,7,f,3,21,111,6,f,1,0.96641295023,03,P05,03,60.019821661,B,PLT_transfer_03,2014_Feb_19_1706,
ques.jpg,stim_03/a.jpg,stim_03/c.jpg,2,2,j,3,22,112,16,j,1,0.849772840156,03,P05,03,60.019821661,B,PLT_transfer_03,2014_Feb_19_1706,
ques.jpg,stim_03/e.jpg,stim_03/f.jpg,2,9,j,3,23,113,23,j,1,1.43287579764,03,P05,03,60.019821661,B,PLT_transfer_03,2014_Feb_19_1706,
ques.jpg,stim_03/b.jpg,stim_03/d.jpg,2,11,f,3,24,114,25,f,1,1.09969425909,03,P05,03,60.019821661,B,PLT_transfer_03,2014_Feb_19_1706,
ques.jpg,stim_03/a.jpg,stim_03/d.jpg,2,3,j,3,25,115,17,j,1,1.13303459585,03,P05,03,60.019821661,B,PLT_transfer_03,2014_Feb_19_1706,
ques.jpg,stim_03/c.jpg,stim_03/f.jpg,2,8,j,3,26,116,22,j,1,0.783103038688,03,P05,03,60.019821661,B,PLT_transfer_03,2014_Feb_19_1706,
ques.jpg,stim_03/d.jpg,stim_03/b.jpg,1,11,j,3,27,117,10,f,0,1.19964751074,03,P05,03,60.019821661,B,PLT_transfer_03,2014_Feb_19_1706,
ques.jpg,stim_03/d.jpg,stim_03/f.jpg,2,15,f,3,28,118,29,f,1,1.09968682458,03,P05,03,60.019821661,B,PLT_transfer_03,2014_Feb_19_1706,
ques.jpg,stim_03/b.jpg,stim_03/e.jpg,2,12,f,3,29,119,26,f,1,1.01637128905,03,P05,03,60.019821661,B,PLT_transfer_03,2014_Feb_19_1706,
ques.jpg,stim_03/a.jpg,stim_03/b.jpg,2,1,j,4,0,120,15,j,1,0.866408099157,03,P05,03,60.019821661,B,PLT_transfer_03,2014_Feb_19_1706,
ques.jpg,stim_03/e.jpg,stim_03/c.jpg,1,7,f,4,1,121,6,f,1,0.683167528186,03,P05,03,60.019821661,B,PLT_transfer_03,2014_Feb_19_1706,
ques.jpg,stim_03/f.jpg,stim_03/a.jpg,1,5,f,4,2,122,4,f,1,0.716504009353,03,P05,03,60.019821661,B,PLT_transfer_03,2014_Feb_19_1706,
ques.jpg,stim_03/e.jpg,stim_03/f.jpg,2,9,j,4,3,123,23,j,1,0.983043661914,03,P05,03,60.019821661,B,PLT_transfer_03,2014_Feb_19_1706,
ques.jpg,stim_03/c.jpg,stim_03/b.jpg,1,10,j,4,4,124,9,j,1,0.883079475043,03,P05,03,60.019821661,B,PLT_transfer_03,2014_Feb_19_1706,
ques.jpg,stim_03/c.jpg,stim_03/d.jpg,2,6,j,4,5,125,20,j,1,0.783123492592,03,P05,03,60.019821661,B,PLT_transfer_03,2014_Feb_19_1706,
ques.jpg,stim_03/d.jpg,stim_03/f.jpg,2,15,f,4,6,126,29,f,1,1.00068343891,03,P05,03,60.019821661,B,PLT_transfer_03,2014_Feb_19_1706,
ques.jpg,stim_03/f.jpg,stim_03/e.jpg,1,9,f,4,7,127,8,f,1,1.24961601786,03,P05,03,60.019821661,B,PLT_transfer_03,2014_Feb_19_1706,
ques.jpg,stim_03/a.jpg,stim_03/d.jpg,2,3,j,4,8,128,17,j,1,0.899771295813,03,P05,03,60.019821661,B,PLT_transfer_03,2014_Feb_19_1706,
ques.jpg,stim_03/c.jpg,stim_03/e.jpg,2,7,j,4,9,129,21,j,1,0.916394145931,03,P05,03,60.019821661,B,PLT_transfer_03,2014_Feb_19_1706,
ques.jpg,stim_03/d.jpg,stim_03/b.jpg,1,11,j,4,10,130,10,j,1,1.24968160509,03,P05,03,60.019821661,B,PLT_transfer_03,2014_Feb_19_1706,
ques.jpg,stim_03/f.jpg,stim_03/d.jpg,1,15,j,4,11,131,14,j,1,0.983052185126,03,P05,03,60.019821661,B,PLT_transfer_03,2014_Feb_19_1706,
ques.jpg,stim_03/e.jpg,stim_03/b.jpg,1,12,j,4,12,132,11,j,1,0.883058010624,03,P05,03,60.019821661,B,PLT_transfer_03,2014_Feb_19_1706,
ques.jpg,stim_03/f.jpg,stim_03/b.jpg,1,13,j,4,13,133,12,j,1,0.699779319782,03,P05,03,60.019821661,B,PLT_transfer_03,2014_Feb_19_1706,
ques.jpg,stim_03/a.jpg,stim_03/e.jpg,2,4,j,4,14,134,18,j,1,0.899798687985,03,P05,03,60.019821661,B,PLT_transfer_03,2014_Feb_19_1706,
ques.jpg,stim_03/a.jpg,stim_03/f.jpg,2,5,j,4,15,135,19,j,1,0.749806247298,03,P05,03,60.019821661,B,PLT_transfer_03,2014_Feb_19_1706,
ques.jpg,stim_03/d.jpg,stim_03/a.jpg,1,3,f,4,16,136,2,f,1,1.1329772762,03,P05,03,60.019821661,B,PLT_transfer_03,2014_Feb_19_1706,
ques.jpg,stim_03/b.jpg,stim_03/e.jpg,2,12,f,4,17,137,26,f,1,0.98304981222,03,P05,03,60.019821661,B,PLT_transfer_03,2014_Feb_19_1706,
ques.jpg,stim_03/b.jpg,stim_03/a.jpg,1,1,f,4,18,138,0,f,1,0.983070503716,03,P05,03,60.019821661,B,PLT_transfer_03,2014_Feb_19_1706,
ques.jpg,stim_03/c.jpg,stim_03/a.jpg,1,2,f,4,19,139,1,f,1,1.06640019849,03,P05,03,60.019821661,B,PLT_transfer_03,2014_Feb_19_1706,
ques.jpg,stim_03/e.jpg,stim_03/d.jpg,1,14,j,4,20,140,13,j,1,0.816431883851,03,P05,03,60.019821661,B,PLT_transfer_03,2014_Feb_19_1706,
ques.jpg,stim_03/d.jpg,stim_03/c.jpg,1,6,f,4,21,141,5,f,1,0.899730908298,03,P05,03,60.019821661,B,PLT_transfer_03,2014_Feb_19_1706,
ques.jpg,stim_03/b.jpg,stim_03/c.jpg,2,10,f,4,22,142,24,f,1,0.799812429183,03,P05,03,60.019821661,B,PLT_transfer_03,2014_Feb_19_1706,
ques.jpg,stim_03/d.jpg,stim_03/e.jpg,2,14,f,4,23,143,28,f,1,0.999711293482,03,P05,03,60.019821661,B,PLT_transfer_03,2014_Feb_19_1706,
ques.jpg,stim_03/a.jpg,stim_03/c.jpg,2,2,j,4,24,144,16,j,1,1.04970377627,03,P05,03,60.019821661,B,PLT_transfer_03,2014_Feb_19_1706,
ques.jpg,stim_03/f.jpg,stim_03/c.jpg,1,8,f,4,25,145,7,f,1,0.783112879178,03,P05,03,60.019821661,B,PLT_transfer_03,2014_Feb_19_1706,
ques.jpg,stim_03/b.jpg,stim_03/f.jpg,2,13,f,4,26,146,27,f,1,0.916407036011,03,P05,03,60.019821661,B,PLT_transfer_03,2014_Feb_19_1706,
ques.jpg,stim_03/c.jpg,stim_03/f.jpg,2,8,j,4,27,147,22,j,1,0.933079085574,03,P05,03,60.019821661,B,PLT_transfer_03,2014_Feb_19_1706,
ques.jpg,stim_03/b.jpg,stim_03/d.jpg,2,11,f,4,28,148,25,f,1,1.31628865238,03,P05,03,60.019821661,B,PLT_transfer_03,2014_Feb_19_1706,
ques.jpg,stim_03/e.jpg,stim_03/a.jpg,1,4,f,4,29,149,3,f,1,0.949748136675,03,P05,03,60.019821661,B,PLT_transfer_03,2014_Feb_19_1706,
ques.jpg,stim_03/d.jpg,stim_03/e.jpg,2,14,f,5,0,150,28,f,1,0.883089901994,03,P05,03,60.019821661,B,PLT_transfer_03,2014_Feb_19_1706,
ques.jpg,stim_03/c.jpg,stim_03/d.jpg,2,6,j,5,1,151,20,j,1,0.949735294715,03,P05,03,60.019821661,B,PLT_transfer_03,2014_Feb_19_1706,
ques.jpg,stim_03/e.jpg,stim_03/b.jpg,1,12,j,5,2,152,11,j,1,0.799821614042,03,P05,03,60.019821661,B,PLT_transfer_03,2014_Feb_19_1706,
ques.jpg,stim_03/f.jpg,stim_03/c.jpg,1,8,f,5,3,153,7,f,1,0.616499931204,03,P05,03,60.019821661,B,PLT_transfer_03,2014_Feb_19_1706,
ques.jpg,stim_03/c.jpg,stim_03/f.jpg,2,8,j,5,4,154,22,j,1,0.733153394511,03,P05,03,60.019821661,B,PLT_transfer_03,2014_Feb_19_1706,
ques.jpg,stim_03/c.jpg,stim_03/e.jpg,2,7,j,5,5,155,21,j,1,1.083029635,03,P05,03,60.019821661,B,PLT_transfer_03,2014_Feb_19_1706,
ques.jpg,stim_03/c.jpg,stim_03/a.jpg,1,2,f,5,6,156,1,f,1,0.666511126566,03,P05,03,60.019821661,B,PLT_transfer_03,2014_Feb_19_1706,
ques.jpg,stim_03/b.jpg,stim_03/c.jpg,2,10,f,5,7,157,24,f,1,0.76646512107,03,P05,03,60.019821661,B,PLT_transfer_03,2014_Feb_19_1706,
ques.jpg,stim_03/e.jpg,stim_03/c.jpg,1,7,f,5,8,158,6,f,1,0.883104455213,03,P05,03,60.019821661,B,PLT_transfer_03,2014_Feb_19_1706,
ques.jpg,stim_03/a.jpg,stim_03/d.jpg,2,3,j,5,9,159,17,j,1,0.883090813261,03,P05,03,60.019821661,B,PLT_transfer_03,2014_Feb_19_1706,
ques.jpg,stim_03/e.jpg,stim_03/a.jpg,1,4,f,5,10,160,3,f,1,1.2329726958,03,P05,03,60.019821661,B,PLT_transfer_03,2014_Feb_19_1706,
ques.jpg,stim_03/f.jpg,stim_03/e.jpg,1,9,f,5,11,161,8,f,1,1.06637689349,03,P05,03,60.019821661,B,PLT_transfer_03,2014_Feb_19_1706,
ques.jpg,stim_03/b.jpg,stim_03/e.jpg,2,12,f,5,12,162,26,f,1,1.03307839385,03,P05,03,60.019821661,B,PLT_transfer_03,2014_Feb_19_1706,
ques.jpg,stim_03/d.jpg,stim_03/c.jpg,1,6,f,5,13,163,5,f,1,0.966410267553,03,P05,03,60.019821661,B,PLT_transfer_03,2014_Feb_19_1706,
ques.jpg,stim_03/d.jpg,stim_03/f.jpg,2,15,f,5,14,164,29,f,1,1.03305565426,03,P05,03,60.019821661,B,PLT_transfer_03,2014_Feb_19_1706,
ques.jpg,stim_03/a.jpg,stim_03/c.jpg,2,2,j,5,15,165,16,j,1,1.21637395668,03,P05,03,60.019821661,B,PLT_transfer_03,2014_Feb_19_1706,
ques.jpg,stim_03/b.jpg,stim_03/a.jpg,1,1,f,5,16,166,0,f,1,0.816424127547,03,P05,03,60.019821661,B,PLT_transfer_03,2014_Feb_19_1706,
ques.jpg,stim_03/c.jpg,stim_03/b.jpg,1,10,j,5,17,167,9,j,1,0.899758438815,03,P05,03,60.019821661,B,PLT_transfer_03,2014_Feb_19_1706,
ques.jpg,stim_03/f.jpg,stim_03/d.jpg,1,15,j,5,18,168,14,j,1,1.56618705203,03,P05,03,60.019821661,B,PLT_transfer_03,2014_Feb_19_1706,
ques.jpg,stim_03/b.jpg,stim_03/d.jpg,2,11,f,5,19,169,25,f,1,1.24960195487,03,P05,03,60.019821661,B,PLT_transfer_03,2014_Feb_19_1706,
ques.jpg,stim_03/a.jpg,stim_03/f.jpg,2,5,j,5,20,170,19,j,1,1.26631175137,03,P05,03,60.019821661,B,PLT_transfer_03,2014_Feb_19_1706,
ques.jpg,stim_03/d.jpg,stim_03/b.jpg,1,11,j,5,21,171,10,f,0,1.21632656474,03,P05,03,60.019821661,B,PLT_transfer_03,2014_Feb_19_1706,
ques.jpg,stim_03/f.jpg,stim_03/a.jpg,1,5,f,5,22,172,4,j,0,1.2162991846,03,P05,03,60.019821661,B,PLT_transfer_03,2014_Feb_19_1706,
ques.jpg,stim_03/a.jpg,stim_03/b.jpg,2,1,j,5,23,173,15,j,1,0.966340250298,03,P05,03,60.019821661,B,PLT_transfer_03,2014_Feb_19_1706,
ques.jpg,stim_03/e.jpg,stim_03/d.jpg,1,14,j,5,24,174,13,j,1,0.933071876633,03,P05,03,60.019821661,B,PLT_transfer_03,2014_Feb_19_1706,
ques.jpg,stim_03/e.jpg,stim_03/f.jpg,2,9,j,5,25,175,23,j,1,1.43292755345,03,P05,03,60.019821661,B,PLT_transfer_03,2014_Feb_19_1706,
ques.jpg,stim_03/b.jpg,stim_03/f.jpg,2,13,f,5,26,176,27,f,1,1.1496695541,03,P05,03,60.019821661,B,PLT_transfer_03,2014_Feb_19_1706,
ques.jpg,stim_03/f.jpg,stim_03/b.jpg,1,13,j,5,27,177,12,j,1,1.34962856509,03,P05,03,60.019821661,B,PLT_transfer_03,2014_Feb_19_1706,
ques.jpg,stim_03/a.jpg,stim_03/e.jpg,2,4,j,5,28,178,18,j,1,0.999743545749,03,P05,03,60.019821661,B,PLT_transfer_03,2014_Feb_19_1706,
ques.jpg,stim_03/d.jpg,stim_03/a.jpg,1,3,f,5,29,179,2,f,1,0.649820006541,03,P05,03,60.019821661,B,PLT_transfer_03,2014_Feb_19_1706,
