Fb3,Symbol2,Symbol1,PosCond,tID,Correct,trials.thisRepN,trials.thisTrialN,trials.thisN,trials.thisIndex,Response.keys,Response.corr,Response.rt,session,participant,version,frameRate,stimulation,expName,date,
ques.jpg,stim_02/d.jpg,stim_02/a.jpg,1,3,f,0,0,0,2,f,1,1.3829052725,03,P09,02,60.0237135222,B,PLT_transfer_02,2014_Apr_02_1426,
ques.jpg,stim_02/c.jpg,stim_02/f.jpg,2,8,j,0,1,1,22,f,0,0.933084859945,03,P09,02,60.0237135222,B,PLT_transfer_02,2014_Apr_02_1426,
ques.jpg,stim_02/b.jpg,stim_02/f.jpg,2,13,f,0,2,2,27,j,0,1.08302164111,03,P09,02,60.0237135222,B,PLT_transfer_02,2014_Apr_02_1426,
ques.jpg,stim_02/e.jpg,stim_02/c.jpg,1,7,f,0,3,3,6,j,0,0.799783412968,03,P09,02,60.0237135222,B,PLT_transfer_02,2014_Apr_02_1426,
ques.jpg,stim_02/b.jpg,stim_02/e.jpg,2,12,f,0,4,4,26,f,1,0.449911888212,03,P09,02,60.0237135222,B,PLT_transfer_02,2014_Apr_02_1426,
ques.jpg,stim_02/e.jpg,stim_02/b.jpg,1,12,j,0,5,5,11,f,0,0.216629728237,03,P09,02,60.0237135222,B,PLT_transfer_02,2014_Apr_02_1426,
ques.jpg,stim_02/c.jpg,stim_02/e.jpg,2,7,j,0,6,6,21,f,0,0.949737105221,03,P09,02,60.0237135222,B,PLT_transfer_02,2014_Apr_02_1426,
ques.jpg,stim_02/d.jpg,stim_02/f.jpg,2,15,f,0,7,7,29,f,1,1.26625684372,03,P09,02,60.0237135222,B,PLT_transfer_02,2014_Apr_02_1426,
ques.jpg,stim_02/e.jpg,stim_02/a.jpg,1,4,f,0,8,8,3,j,0,1.0996843404,03,P09,02,60.0237135222,B,PLT_transfer_02,2014_Apr_02_1426,
ques.jpg,stim_02/a.jpg,stim_02/b.jpg,2,1,j,0,9,9,15,f,0,1.19961214272,03,P09,02,60.0237135222,B,PLT_transfer_02,2014_Apr_02_1426,
ques.jpg,stim_02/a.jpg,stim_02/d.jpg,2,3,j,0,10,10,17,f,0,1.16634597354,03,P09,02,60.0237135222,B,PLT_transfer_02,2014_Apr_02_1426,
ques.jpg,stim_02/b.jpg,stim_02/c.jpg,2,10,f,0,11,11,24,f,1,1.2173227911,03,P09,02,60.0237135222,B,PLT_transfer_02,2014_Apr_02_1426,
ques.jpg,stim_02/c.jpg,stim_02/a.jpg,1,2,f,0,12,12,1,j,0,1.11633414661,03,P09,02,60.0237135222,B,PLT_transfer_02,2014_Apr_02_1426,
ques.jpg,stim_02/f.jpg,stim_02/d.jpg,1,15,j,0,13,13,14,f,0,1.19966211208,03,P09,02,60.0237135222,B,PLT_transfer_02,2014_Apr_02_1426,
ques.jpg,stim_02/d.jpg,stim_02/b.jpg,1,11,j,0,14,14,10,f,0,1.03305598207,03,P09,02,60.0237135222,B,PLT_transfer_02,2014_Apr_02_1426,
ques.jpg,stim_02/c.jpg,stim_02/d.jpg,2,6,j,0,15,15,20,j,1,1.16634099615,03,P09,02,60.0237135222,B,PLT_transfer_02,2014_Apr_02_1426,
ques.jpg,stim_02/d.jpg,stim_02/e.jpg,2,14,f,0,16,16,28,f,1,0.866472585648,03,P09,02,60.0237135222,B,PLT_transfer_02,2014_Apr_02_1426,
ques.jpg,stim_02/a.jpg,stim_02/f.jpg,2,5,j,0,17,17,19,j,1,0.899756538084,03,P09,02,60.0237135222,B,PLT_transfer_02,2014_Apr_02_1426,
ques.jpg,stim_02/a.jpg,stim_02/e.jpg,2,4,j,0,18,18,18,f,0,0.833135081935,03,P09,02,60.0237135222,B,PLT_transfer_02,2014_Apr_02_1426,
ques.jpg,stim_02/b.jpg,stim_02/a.jpg,1,1,f,0,19,19,0,f,1,1.08302445912,03,P09,02,60.0237135222,B,PLT_transfer_02,2014_Apr_02_1426,
ques.jpg,stim_02/a.jpg,stim_02/c.jpg,2,2,j,0,20,20,16,f,0,0.799783208459,03,P09,02,60.0237135222,B,PLT_transfer_02,2014_Apr_02_1426,
ques.jpg,stim_02/f.jpg,stim_02/c.jpg,1,8,f,0,21,21,7,f,1,0.399900446236,03,P09,02,60.0237135222,B,PLT_transfer_02,2014_Apr_02_1426,
ques.jpg,stim_02/c.jpg,stim_02/b.jpg,1,10,j,0,22,22,9,j,1,0.849784779871,03,P09,02,60.0237135222,B,PLT_transfer_02,2014_Apr_02_1426,
ques.jpg,stim_02/e.jpg,stim_02/f.jpg,2,9,j,0,23,23,23,j,1,0.783070491686,03,P09,02,60.0237135222,B,PLT_transfer_02,2014_Apr_02_1426,
ques.jpg,stim_02/d.jpg,stim_02/c.jpg,1,6,f,0,24,24,5,f,1,0.949702970268,03,P09,02,60.0237135222,B,PLT_transfer_02,2014_Apr_02_1426,
ques.jpg,stim_02/e.jpg,stim_02/d.jpg,1,14,j,0,25,25,13,j,1,0.933092447829,03,P09,02,60.0237135222,B,PLT_transfer_02,2014_Apr_02_1426,
ques.jpg,stim_02/f.jpg,stim_02/b.jpg,1,13,j,0,26,26,12,f,0,0.433255242986,03,P09,02,60.0237135222,B,PLT_transfer_02,2014_Apr_02_1426,
ques.jpg,stim_02/f.jpg,stim_02/e.jpg,1,9,f,0,27,27,8,f,1,0.633187448262,03,P09,02,60.0237135222,B,PLT_transfer_02,2014_Apr_02_1426,
ques.jpg,stim_02/f.jpg,stim_02/a.jpg,1,5,f,0,28,28,4,f,1,1.08289208768,03,P09,02,60.0237135222,B,PLT_transfer_02,2014_Apr_02_1426,
ques.jpg,stim_02/b.jpg,stim_02/d.jpg,2,11,f,0,29,29,25,j,0,0.816437793559,03,P09,02,60.0237135222,B,PLT_transfer_02,2014_Apr_02_1426,
ques.jpg,stim_02/b.jpg,stim_02/c.jpg,2,10,f,1,0,30,24,f,1,0.799795912076,03,P09,02,60.0237135222,B,PLT_transfer_02,2014_Apr_02_1426,
ques.jpg,stim_02/f.jpg,stim_02/c.jpg,1,8,f,1,1,31,7,j,0,1.01640912621,03,P09,02,60.0237135222,B,PLT_transfer_02,2014_Apr_02_1426,
ques.jpg,stim_02/d.jpg,stim_02/b.jpg,1,11,j,1,2,32,10,j,1,1.18300953298,03,P09,02,60.0237135222,B,PLT_transfer_02,2014_Apr_02_1426,
ques.jpg,stim_02/b.jpg,stim_02/a.jpg,1,1,f,1,3,33,0,f,1,0.749807236761,03,P09,02,60.0237135222,B,PLT_transfer_02,2014_Apr_02_1426,
ques.jpg,stim_02/d.jpg,stim_02/c.jpg,1,6,f,1,4,34,5,f,1,0.732974888254,03,P09,02,60.0237135222,B,PLT_transfer_02,2014_Apr_02_1426,
ques.jpg,stim_02/c.jpg,stim_02/b.jpg,1,10,j,1,5,35,9,j,1,0.633133800747,03,P09,02,60.0237135222,B,PLT_transfer_02,2014_Apr_02_1426,
ques.jpg,stim_02/a.jpg,stim_02/c.jpg,2,2,j,1,6,36,16,f,0,0.766470916494,03,P09,02,60.0237135222,B,PLT_transfer_02,2014_Apr_02_1426,
ques.jpg,stim_02/f.jpg,stim_02/a.jpg,1,5,f,1,7,37,4,j,0,0.883103480787,03,P09,02,60.0237135222,B,PLT_transfer_02,2014_Apr_02_1426,
ques.jpg,stim_02/f.jpg,stim_02/e.jpg,1,9,f,1,8,38,8,j,0,0.699777590478,03,P09,02,60.0237135222,B,PLT_transfer_02,2014_Apr_02_1426,
ques.jpg,stim_02/d.jpg,stim_02/e.jpg,2,14,f,1,9,39,28,f,1,0.782054439987,03,P09,02,60.0237135222,B,PLT_transfer_02,2014_Apr_02_1426,
ques.jpg,stim_02/b.jpg,stim_02/e.jpg,2,12,f,1,10,40,26,f,1,0.749804478897,03,P09,02,60.0237135222,B,PLT_transfer_02,2014_Apr_02_1426,
ques.jpg,stim_02/b.jpg,stim_02/d.jpg,2,11,f,1,11,41,25,f,1,1.34972637752,03,P09,02,60.0237135222,B,PLT_transfer_02,2014_Apr_02_1426,
ques.jpg,stim_02/f.jpg,stim_02/d.jpg,1,15,j,1,12,42,14,f,0,0.966398120322,03,P09,02,60.0237135222,B,PLT_transfer_02,2014_Apr_02_1426,
ques.jpg,stim_02/e.jpg,stim_02/d.jpg,1,14,j,1,13,43,13,j,1,1.01638534904,03,P09,02,60.0237135222,B,PLT_transfer_02,2014_Apr_02_1426,
ques.jpg,stim_02/c.jpg,stim_02/a.jpg,1,2,f,1,14,44,1,f,1,1.09969865002,03,P09,02,60.0237135222,B,PLT_transfer_02,2014_Apr_02_1426,
ques.jpg,stim_02/a.jpg,stim_02/f.jpg,2,5,j,1,15,45,19,j,1,1.0829746642,03,P09,02,60.0237135222,B,PLT_transfer_02,2014_Apr_02_1426,
ques.jpg,stim_02/d.jpg,stim_02/a.jpg,1,3,f,1,16,46,2,j,0,1.14964608068,03,P09,02,60.0237135222,B,PLT_transfer_02,2014_Apr_02_1426,
ques.jpg,stim_02/a.jpg,stim_02/d.jpg,2,3,j,1,17,47,17,j,1,1.03304091458,03,P09,02,60.0237135222,B,PLT_transfer_02,2014_Apr_02_1426,
ques.jpg,stim_02/c.jpg,stim_02/d.jpg,2,6,j,1,18,48,20,j,1,0.899740893148,03,P09,02,60.0237135222,B,PLT_transfer_02,2014_Apr_02_1426,
ques.jpg,stim_02/e.jpg,stim_02/a.jpg,1,4,f,1,19,49,3,f,1,1.08302022158,03,P09,02,60.0237135222,B,PLT_transfer_02,2014_Apr_02_1426,
ques.jpg,stim_02/c.jpg,stim_02/f.jpg,2,8,j,1,20,50,22,j,1,0.933072769856,03,P09,02,60.0237135222,B,PLT_transfer_02,2014_Apr_02_1426,
ques.jpg,stim_02/c.jpg,stim_02/e.jpg,2,7,j,1,21,51,21,f,0,1.21633244738,03,P09,02,60.0237135222,B,PLT_transfer_02,2014_Apr_02_1426,
ques.jpg,stim_02/a.jpg,stim_02/e.jpg,2,4,j,1,22,52,18,j,1,0.899787364804,03,P09,02,60.0237135222,B,PLT_transfer_02,2014_Apr_02_1426,
ques.jpg,stim_02/d.jpg,stim_02/f.jpg,2,15,f,1,23,53,29,f,1,1.16632715872,03,P09,02,60.0237135222,B,PLT_transfer_02,2014_Apr_02_1426,
ques.jpg,stim_02/b.jpg,stim_02/f.jpg,2,13,f,1,24,54,27,j,0,1.08302534633,03,P09,02,60.0237135222,B,PLT_transfer_02,2014_Apr_02_1426,
ques.jpg,stim_02/e.jpg,stim_02/f.jpg,2,9,j,1,25,55,23,f,0,1.29965492419,03,P09,02,60.0237135222,B,PLT_transfer_02,2014_Apr_02_1426,
ques.jpg,stim_02/a.jpg,stim_02/b.jpg,2,1,j,1,26,56,15,f,0,1.14964048375,03,P09,02,60.0237135222,B,PLT_transfer_02,2014_Apr_02_1426,
ques.jpg,stim_02/e.jpg,stim_02/b.jpg,1,12,j,1,27,57,11,j,1,0.74980729691,03,P09,02,60.0237135222,B,PLT_transfer_02,2014_Apr_02_1426,
ques.jpg,stim_02/f.jpg,stim_02/b.jpg,1,13,j,1,28,58,12,j,1,0.799765620688,03,P09,02,60.0237135222,B,PLT_transfer_02,2014_Apr_02_1426,
ques.jpg,stim_02/e.jpg,stim_02/c.jpg,1,7,f,1,29,59,6,j,0,0.966401533817,03,P09,02,60.0237135222,B,PLT_transfer_02,2014_Apr_02_1426,
ques.jpg,stim_02/a.jpg,stim_02/f.jpg,2,5,j,2,0,60,19,f,0,0.483240080752,03,P09,02,60.0237135222,B,PLT_transfer_02,2014_Apr_02_1426,
ques.jpg,stim_02/c.jpg,stim_02/e.jpg,2,7,j,2,1,61,21,j,1,0.949787011425,03,P09,02,60.0237135222,B,PLT_transfer_02,2014_Apr_02_1426,
ques.jpg,stim_02/e.jpg,stim_02/f.jpg,2,9,j,2,2,62,23,f,0,0.499759271888,03,P09,02,60.0237135222,B,PLT_transfer_02,2014_Apr_02_1426,
ques.jpg,stim_02/b.jpg,stim_02/e.jpg,2,12,f,2,3,63,26,f,1,0.399835364263,03,P09,02,60.0237135222,B,PLT_transfer_02,2014_Apr_02_1426,
ques.jpg,stim_02/b.jpg,stim_02/f.jpg,2,13,f,2,4,64,27,f,1,0.783070257103,03,P09,02,60.0237135222,B,PLT_transfer_02,2014_Apr_02_1426,
ques.jpg,stim_02/f.jpg,stim_02/e.jpg,1,9,f,2,5,65,8,j,0,0.533209451021,03,P09,02,60.0237135222,B,PLT_transfer_02,2014_Apr_02_1426,
ques.jpg,stim_02/c.jpg,stim_02/f.jpg,2,8,j,2,6,66,22,j,1,0.849775276219,03,P09,02,60.0237135222,B,PLT_transfer_02,2014_Apr_02_1426,
ques.jpg,stim_02/d.jpg,stim_02/a.jpg,1,3,f,2,7,67,2,j,0,0.566470233794,03,P09,02,60.0237135222,B,PLT_transfer_02,2014_Apr_02_1426,
ques.jpg,stim_02/a.jpg,stim_02/e.jpg,2,4,j,2,8,68,18,f,0,0.333317085898,03,P09,02,60.0237135222,B,PLT_transfer_02,2014_Apr_02_1426,
ques.jpg,stim_02/a.jpg,stim_02/b.jpg,2,1,j,2,9,69,15,f,0,0.366656312898,03,P09,02,60.0237135222,B,PLT_transfer_02,2014_Apr_02_1426,
ques.jpg,stim_02/f.jpg,stim_02/a.jpg,1,5,f,2,10,70,4,j,0,0.499891929039,03,P09,02,60.0237135222,B,PLT_transfer_02,2014_Apr_02_1426,
ques.jpg,stim_02/e.jpg,stim_02/a.jpg,1,4,f,2,11,71,3,f,1,0.716461793289,03,P09,02,60.0237135222,B,PLT_transfer_02,2014_Apr_02_1426,
ques.jpg,stim_02/f.jpg,stim_02/b.jpg,1,13,j,2,12,72,12,f,0,0.316640657436,03,P09,02,60.0237135222,B,PLT_transfer_02,2014_Apr_02_1426,
ques.jpg,stim_02/c.jpg,stim_02/d.jpg,2,6,j,2,13,73,20,j,1,0.549847314503,03,P09,02,60.0237135222,B,PLT_transfer_02,2014_Apr_02_1426,
ques.jpg,stim_02/c.jpg,stim_02/a.jpg,1,2,f,2,14,74,1,j,0,0.283283075755,03,P09,02,60.0237135222,B,PLT_transfer_02,2014_Apr_02_1426,
ques.jpg,stim_02/f.jpg,stim_02/c.jpg,1,8,f,2,15,75,7,f,1,0.599844624308,03,P09,02,60.0237135222,B,PLT_transfer_02,2014_Apr_02_1426,
ques.jpg,stim_02/b.jpg,stim_02/d.jpg,2,11,f,2,16,76,25,j,0,0.683146063766,03,P09,02,60.0237135222,B,PLT_transfer_02,2014_Apr_02_1426,
ques.jpg,stim_02/e.jpg,stim_02/d.jpg,1,14,j,2,17,77,13,f,0,0.949722386589,03,P09,02,60.0237135222,B,PLT_transfer_02,2014_Apr_02_1426,
ques.jpg,stim_02/d.jpg,stim_02/c.jpg,1,6,f,2,18,78,5,f,1,0.516468797719,03,P09,02,60.0237135222,B,PLT_transfer_02,2014_Apr_02_1426,
ques.jpg,stim_02/e.jpg,stim_02/b.jpg,1,12,j,2,19,79,11,j,1,0.31660964726,03,P09,02,60.0237135222,B,PLT_transfer_02,2014_Apr_02_1426,
ques.jpg,stim_02/c.jpg,stim_02/b.jpg,1,10,j,2,20,80,9,f,0,0.499883941158,03,P09,02,60.0237135222,B,PLT_transfer_02,2014_Apr_02_1426,
ques.jpg,stim_02/d.jpg,stim_02/b.jpg,1,11,j,2,21,81,10,j,1,0.983049661846,03,P09,02,60.0237135222,B,PLT_transfer_02,2014_Apr_02_1426,
ques.jpg,stim_02/b.jpg,stim_02/a.jpg,1,1,f,2,22,82,0,f,1,1.41627507359,03,P09,02,60.0237135222,B,PLT_transfer_02,2014_Apr_02_1426,
ques.jpg,stim_02/e.jpg,stim_02/c.jpg,1,7,f,2,23,83,6,f,1,0.849805366104,03,P09,02,60.0237135222,B,PLT_transfer_02,2014_Apr_02_1426,
ques.jpg,stim_02/d.jpg,stim_02/e.jpg,2,14,f,2,24,84,28,f,1,0.683161853061,03,P09,02,60.0237135222,B,PLT_transfer_02,2014_Apr_02_1426,
ques.jpg,stim_02/a.jpg,stim_02/d.jpg,2,3,j,2,25,85,17,j,1,0.716460051954,03,P09,02,60.0237135222,B,PLT_transfer_02,2014_Apr_02_1426,
ques.jpg,stim_02/f.jpg,stim_02/d.jpg,1,15,j,2,26,86,14,f,0,0.416568537948,03,P09,02,60.0237135222,B,PLT_transfer_02,2014_Apr_02_1426,
ques.jpg,stim_02/a.jpg,stim_02/c.jpg,2,2,j,2,27,87,16,j,1,0.549865587983,03,P09,02,60.0237135222,B,PLT_transfer_02,2014_Apr_02_1426,
ques.jpg,stim_02/d.jpg,stim_02/f.jpg,2,15,f,2,28,88,29,j,0,0.54983949805,03,P09,02,60.0237135222,B,PLT_transfer_02,2014_Apr_02_1426,
ques.jpg,stim_02/b.jpg,stim_02/c.jpg,2,10,f,2,29,89,24,f,1,0.799786324214,03,P09,02,60.0237135222,B,PLT_transfer_02,2014_Apr_02_1426,
ques.jpg,stim_02/b.jpg,stim_02/c.jpg,2,10,f,3,0,90,24,j,0,0.516539837521,03,P09,02,60.0237135222,B,PLT_transfer_02,2014_Apr_02_1426,
ques.jpg,stim_02/c.jpg,stim_02/e.jpg,2,7,j,3,1,91,21,j,1,0.749817089281,03,P09,02,60.0237135222,B,PLT_transfer_02,2014_Apr_02_1426,
ques.jpg,stim_02/a.jpg,stim_02/f.jpg,2,5,j,3,2,92,19,f,0,0.7831074236,03,P09,02,60.0237135222,B,PLT_transfer_02,2014_Apr_02_1426,
ques.jpg,stim_02/e.jpg,stim_02/f.jpg,2,9,j,3,3,93,23,j,1,0.599824850096,03,P09,02,60.0237135222,B,PLT_transfer_02,2014_Apr_02_1426,
ques.jpg,stim_02/d.jpg,stim_02/b.jpg,1,11,j,3,4,94,10,j,1,1.03303548607,03,P09,02,60.0237135222,B,PLT_transfer_02,2014_Apr_02_1426,
ques.jpg,stim_02/a.jpg,stim_02/d.jpg,2,3,j,3,5,95,17,j,1,0.533206735263,03,P09,02,60.0237135222,B,PLT_transfer_02,2014_Apr_02_1426,
ques.jpg,stim_02/b.jpg,stim_02/e.jpg,2,12,f,3,6,96,26,f,1,0.666483578005,03,P09,02,60.0237135222,B,PLT_transfer_02,2014_Apr_02_1426,
ques.jpg,stim_02/f.jpg,stim_02/c.jpg,1,8,f,3,7,97,7,j,0,0.333236322899,03,P09,02,60.0237135222,B,PLT_transfer_02,2014_Apr_02_1426,
ques.jpg,stim_02/d.jpg,stim_02/f.jpg,2,15,f,3,8,98,29,j,0,0.383261875993,03,P09,02,60.0237135222,B,PLT_transfer_02,2014_Apr_02_1426,
ques.jpg,stim_02/a.jpg,stim_02/e.jpg,2,4,j,3,9,99,18,j,1,0.41655740424,03,P09,02,60.0237135222,B,PLT_transfer_02,2014_Apr_02_1426,
ques.jpg,stim_02/e.jpg,stim_02/a.jpg,1,4,f,3,10,100,3,f,1,0.333259838423,03,P09,02,60.0237135222,B,PLT_transfer_02,2014_Apr_02_1426,
ques.jpg,stim_02/f.jpg,stim_02/e.jpg,1,9,f,3,11,101,8,f,1,0.566524997087,03,P09,02,60.0237135222,B,PLT_transfer_02,2014_Apr_02_1426,
ques.jpg,stim_02/a.jpg,stim_02/c.jpg,2,2,j,3,12,102,16,j,1,0.366571198069,03,P09,02,60.0237135222,B,PLT_transfer_02,2014_Apr_02_1426,
ques.jpg,stim_02/c.jpg,stim_02/f.jpg,2,8,j,3,13,103,22,j,1,0.249970798825,03,P09,02,60.0237135222,B,PLT_transfer_02,2014_Apr_02_1426,
ques.jpg,stim_02/c.jpg,stim_02/d.jpg,2,6,j,3,14,104,20,f,0,0.766476326959,03,P09,02,60.0237135222,B,PLT_transfer_02,2014_Apr_02_1426,
ques.jpg,stim_02/d.jpg,stim_02/a.jpg,1,3,f,3,15,105,2,f,1,0.883085020846,03,P09,02,60.0237135222,B,PLT_transfer_02,2014_Apr_02_1426,
ques.jpg,stim_02/c.jpg,stim_02/a.jpg,1,2,f,3,16,106,1,j,0,0.916415517118,03,P09,02,60.0237135222,B,PLT_transfer_02,2014_Apr_02_1426,
ques.jpg,stim_02/e.jpg,stim_02/b.jpg,1,12,j,3,17,107,11,j,1,0.966385837753,03,P09,02,60.0237135222,B,PLT_transfer_02,2014_Apr_02_1426,
ques.jpg,stim_02/d.jpg,stim_02/c.jpg,1,6,f,3,18,108,5,j,0,0.549873296166,03,P09,02,60.0237135222,B,PLT_transfer_02,2014_Apr_02_1426,
ques.jpg,stim_02/e.jpg,stim_02/c.jpg,1,7,f,3,19,109,6,j,0,0.849790830931,03,P09,02,60.0237135222,B,PLT_transfer_02,2014_Apr_02_1426,
ques.jpg,stim_02/c.jpg,stim_02/b.jpg,1,10,j,3,20,110,9,j,1,1.13298458438,03,P09,02,60.0237135222,B,PLT_transfer_02,2014_Apr_02_1426,
ques.jpg,stim_02/f.jpg,stim_02/b.jpg,1,13,j,3,21,111,12,f,0,0.849768407124,03,P09,02,60.0237135222,B,PLT_transfer_02,2014_Apr_02_1426,
ques.jpg,stim_02/b.jpg,stim_02/f.jpg,2,13,f,3,22,112,27,j,0,0.716469829287,03,P09,02,60.0237135222,B,PLT_transfer_02,2014_Apr_02_1426,
ques.jpg,stim_02/f.jpg,stim_02/a.jpg,1,5,f,3,23,113,4,f,1,0.449921686597,03,P09,02,60.0237135222,B,PLT_transfer_02,2014_Apr_02_1426,
ques.jpg,stim_02/f.jpg,stim_02/d.jpg,1,15,j,3,24,114,14,f,0,0.233296084631,03,P09,02,60.0237135222,B,PLT_transfer_02,2014_Apr_02_1426,
ques.jpg,stim_02/d.jpg,stim_02/e.jpg,2,14,f,3,25,115,28,f,1,0.06669673951,03,P09,02,60.0237135222,B,PLT_transfer_02,2014_Apr_02_1426,
ques.jpg,stim_02/a.jpg,stim_02/b.jpg,2,1,j,3,26,116,15,j,1,0.483150451687,03,P09,02,60.0237135222,B,PLT_transfer_02,2014_Apr_02_1426,
ques.jpg,stim_02/b.jpg,stim_02/a.jpg,1,1,f,3,27,117,0,f,1,0.699843929579,03,P09,02,60.0237135222,B,PLT_transfer_02,2014_Apr_02_1426,
ques.jpg,stim_02/b.jpg,stim_02/d.jpg,2,11,f,3,28,118,25,j,0,0.499872789404,03,P09,02,60.0237135222,B,PLT_transfer_02,2014_Apr_02_1426,
ques.jpg,stim_02/e.jpg,stim_02/d.jpg,1,14,j,3,29,119,13,f,0,1.3329250843,03,P09,02,60.0237135222,B,PLT_transfer_02,2014_Apr_02_1426,
ques.jpg,stim_02/b.jpg,stim_02/c.jpg,2,10,f,4,0,120,24,f,1,0.999718108442,03,P09,02,60.0237135222,B,PLT_transfer_02,2014_Apr_02_1426,
ques.jpg,stim_02/a.jpg,stim_02/c.jpg,2,2,j,4,1,121,16,j,1,0.716489847107,03,P09,02,60.0237135222,B,PLT_transfer_02,2014_Apr_02_1426,
ques.jpg,stim_02/f.jpg,stim_02/e.jpg,1,9,f,4,2,122,8,f,1,0.816507425857,03,P09,02,60.0237135222,B,PLT_transfer_02,2014_Apr_02_1426,
ques.jpg,stim_02/d.jpg,stim_02/a.jpg,1,3,f,4,3,123,2,j,0,0.633174777729,03,P09,02,60.0237135222,B,PLT_transfer_02,2014_Apr_02_1426,
ques.jpg,stim_02/b.jpg,stim_02/f.jpg,2,13,f,4,4,124,27,j,0,0.899736848081,03,P09,02,60.0237135222,B,PLT_transfer_02,2014_Apr_02_1426,
ques.jpg,stim_02/c.jpg,stim_02/d.jpg,2,6,j,4,5,125,20,j,1,0.966388120435,03,P09,02,60.0237135222,B,PLT_transfer_02,2014_Apr_02_1426,
ques.jpg,stim_02/a.jpg,stim_02/d.jpg,2,3,j,4,6,126,17,j,1,0.733150534393,03,P09,02,60.0237135222,B,PLT_transfer_02,2014_Apr_02_1426,
ques.jpg,stim_02/e.jpg,stim_02/a.jpg,1,4,f,4,7,127,3,j,0,0.68315432232,03,P09,02,60.0237135222,B,PLT_transfer_02,2014_Apr_02_1426,
ques.jpg,stim_02/c.jpg,stim_02/b.jpg,1,10,j,4,8,128,9,j,1,0.933091852347,03,P09,02,60.0237135222,B,PLT_transfer_02,2014_Apr_02_1426,
ques.jpg,stim_02/b.jpg,stim_02/d.jpg,2,11,f,4,9,129,25,f,1,0.899734213524,03,P09,02,60.0237135222,B,PLT_transfer_02,2014_Apr_02_1426,
ques.jpg,stim_02/f.jpg,stim_02/b.jpg,1,13,j,4,10,130,12,f,0,0.84973469021,03,P09,02,60.0237135222,B,PLT_transfer_02,2014_Apr_02_1426,
ques.jpg,stim_02/a.jpg,stim_02/f.jpg,2,5,j,4,11,131,19,f,0,0.933072135277,03,P09,02,60.0237135222,B,PLT_transfer_02,2014_Apr_02_1426,
ques.jpg,stim_02/b.jpg,stim_02/a.jpg,1,1,f,4,12,132,0,j,0,0.999715528021,03,P09,02,60.0237135222,B,PLT_transfer_02,2014_Apr_02_1426,
ques.jpg,stim_02/e.jpg,stim_02/d.jpg,1,14,j,4,13,133,13,j,1,0.96638470694,03,P09,02,60.0237135222,B,PLT_transfer_02,2014_Apr_02_1426,
ques.jpg,stim_02/c.jpg,stim_02/e.jpg,2,7,j,4,14,134,21,j,1,0.783136776653,03,P09,02,60.0237135222,B,PLT_transfer_02,2014_Apr_02_1426,
ques.jpg,stim_02/d.jpg,stim_02/e.jpg,2,14,f,4,15,135,28,j,0,0.783139684891,03,P09,02,60.0237135222,B,PLT_transfer_02,2014_Apr_02_1426,
ques.jpg,stim_02/c.jpg,stim_02/a.jpg,1,2,f,4,16,136,1,f,1,0.966404896186,03,P09,02,60.0237135222,B,PLT_transfer_02,2014_Apr_02_1426,
ques.jpg,stim_02/f.jpg,stim_02/a.jpg,1,5,f,4,17,137,4,j,0,0.633172684518,03,P09,02,60.0237135222,B,PLT_transfer_02,2014_Apr_02_1426,
ques.jpg,stim_02/f.jpg,stim_02/c.jpg,1,8,f,4,18,138,7,f,1,0.533211986331,03,P09,02,60.0237135222,B,PLT_transfer_02,2014_Apr_02_1426,
ques.jpg,stim_02/c.jpg,stim_02/f.jpg,2,8,j,4,19,139,22,j,1,0.499864428597,03,P09,02,60.0237135222,B,PLT_transfer_02,2014_Apr_02_1426,
ques.jpg,stim_02/f.jpg,stim_02/d.jpg,1,15,j,4,20,140,14,f,0,0.783116864095,03,P09,02,60.0237135222,B,PLT_transfer_02,2014_Apr_02_1426,
ques.jpg,stim_02/d.jpg,stim_02/b.jpg,1,11,j,4,21,141,10,j,1,0.766452405424,03,P09,02,60.0237135222,B,PLT_transfer_02,2014_Apr_02_1426,
ques.jpg,stim_02/e.jpg,stim_02/f.jpg,2,9,j,4,22,142,23,f,0,0.799760766608,03,P09,02,60.0237135222,B,PLT_transfer_02,2014_Apr_02_1426,
ques.jpg,stim_02/a.jpg,stim_02/e.jpg,2,4,j,4,23,143,18,f,0,0.766456270042,03,P09,02,60.0237135222,B,PLT_transfer_02,2014_Apr_02_1426,
ques.jpg,stim_02/d.jpg,stim_02/c.jpg,1,6,f,4,24,144,5,f,1,0.999744285591,03,P09,02,60.0237135222,B,PLT_transfer_02,2014_Apr_02_1426,
ques.jpg,stim_02/e.jpg,stim_02/b.jpg,1,12,j,4,25,145,11,f,0,0.483169744703,03,P09,02,60.0237135222,B,PLT_transfer_02,2014_Apr_02_1426,
ques.jpg,stim_02/e.jpg,stim_02/c.jpg,1,7,f,4,26,146,6,j,0,0.433236813119,03,P09,02,60.0237135222,B,PLT_transfer_02,2014_Apr_02_1426,
ques.jpg,stim_02/b.jpg,stim_02/e.jpg,2,12,f,4,27,147,26,j,0,0.349799053394,03,P09,02,60.0237135222,B,PLT_transfer_02,2014_Apr_02_1426,
ques.jpg,stim_02/a.jpg,stim_02/b.jpg,2,1,j,4,28,148,15,f,0,0.466555802754,03,P09,02,60.0237135222,B,PLT_transfer_02,2014_Apr_02_1426,
ques.jpg,stim_02/d.jpg,stim_02/f.jpg,2,15,f,4,29,149,29,j,0,0.38326307598,03,P09,02,60.0237135222,B,PLT_transfer_02,2014_Apr_02_1426,
ques.jpg,stim_02/b.jpg,stim_02/d.jpg,2,11,f,5,0,150,25,f,1,0.733132020316,03,P09,02,60.0237135222,B,PLT_transfer_02,2014_Apr_02_1426,
ques.jpg,stim_02/e.jpg,stim_02/f.jpg,2,9,j,5,1,151,23,f,0,0.666235992828,03,P09,02,60.0237135222,B,PLT_transfer_02,2014_Apr_02_1426,
ques.jpg,stim_02/b.jpg,stim_02/c.jpg,2,10,f,5,2,152,24,j,0,0.999718562573,03,P09,02,60.0237135222,B,PLT_transfer_02,2014_Apr_02_1426,
ques.jpg,stim_02/f.jpg,stim_02/d.jpg,1,15,j,5,3,153,14,j,1,0.716469318016,03,P09,02,60.0237135222,B,PLT_transfer_02,2014_Apr_02_1426,
ques.jpg,stim_02/e.jpg,stim_02/b.jpg,1,12,j,5,4,154,11,j,1,0.549864132359,03,P09,02,60.0237135222,B,PLT_transfer_02,2014_Apr_02_1426,
ques.jpg,stim_02/b.jpg,stim_02/a.jpg,1,1,f,5,5,155,0,f,1,0.64987791867,03,P09,02,60.0237135222,B,PLT_transfer_02,2014_Apr_02_1426,
ques.jpg,stim_02/e.jpg,stim_02/d.jpg,1,14,j,5,6,156,13,f,0,0.39994773292,03,P09,02,60.0237135222,B,PLT_transfer_02,2014_Apr_02_1426,
ques.jpg,stim_02/b.jpg,stim_02/e.jpg,2,12,f,5,7,157,26,j,0,0.399923633944,03,P09,02,60.0237135222,B,PLT_transfer_02,2014_Apr_02_1426,
ques.jpg,stim_02/a.jpg,stim_02/c.jpg,2,2,j,5,8,158,16,f,0,0.216653132483,03,P09,02,60.0237135222,B,PLT_transfer_02,2014_Apr_02_1426,
ques.jpg,stim_02/a.jpg,stim_02/f.jpg,2,5,j,5,9,159,19,j,1,0.433252671587,03,P09,02,60.0237135222,B,PLT_transfer_02,2014_Apr_02_1426,
ques.jpg,stim_02/b.jpg,stim_02/f.jpg,2,13,f,5,10,160,27,f,1,0.249968248478,03,P09,02,60.0237135222,B,PLT_transfer_02,2014_Apr_02_1426,
ques.jpg,stim_02/d.jpg,stim_02/b.jpg,1,11,j,5,11,161,10,j,1,0.166635597343,03,P09,02,60.0237135222,B,PLT_transfer_02,2014_Apr_02_1426,
ques.jpg,stim_02/c.jpg,stim_02/e.jpg,2,7,j,5,12,162,21,j,1,0.299860221126,03,P09,02,60.0237135222,B,PLT_transfer_02,2014_Apr_02_1426,
ques.jpg,stim_02/d.jpg,stim_02/a.jpg,1,3,f,5,13,163,2,f,1,0.449912736322,03,P09,02,60.0237135222,B,PLT_transfer_02,2014_Apr_02_1426,
ques.jpg,stim_02/c.jpg,stim_02/b.jpg,1,10,j,5,14,164,9,j,1,0.51652110089,03,P09,02,60.0237135222,B,PLT_transfer_02,2014_Apr_02_1426,
ques.jpg,stim_02/f.jpg,stim_02/a.jpg,1,5,f,5,15,165,4,f,1,0.533254972313,03,P09,02,60.0237135222,B,PLT_transfer_02,2014_Apr_02_1426,
ques.jpg,stim_02/c.jpg,stim_02/a.jpg,1,2,f,5,16,166,1,f,1,0.233299007907,03,P09,02,60.0237135222,B,PLT_transfer_02,2014_Apr_02_1426,
ques.jpg,stim_02/f.jpg,stim_02/e.jpg,1,9,f,5,17,167,8,j,0,0.549855275317,03,P09,02,60.0237135222,B,PLT_transfer_02,2014_Apr_02_1426,
ques.jpg,stim_02/e.jpg,stim_02/c.jpg,1,7,f,5,18,168,6,f,1,0.666460029398,03,P09,02,60.0237135222,B,PLT_transfer_02,2014_Apr_02_1426,
ques.jpg,stim_02/a.jpg,stim_02/b.jpg,2,1,j,5,19,169,15,j,1,0.633179045349,03,P09,02,60.0237135222,B,PLT_transfer_02,2014_Apr_02_1426,
ques.jpg,stim_02/f.jpg,stim_02/b.jpg,1,13,j,5,20,170,12,j,1,0.466572301816,03,P09,02,60.0237135222,B,PLT_transfer_02,2014_Apr_02_1426,
ques.jpg,stim_02/a.jpg,stim_02/d.jpg,2,3,j,5,21,171,17,j,1,0.533107431119,03,P09,02,60.0237135222,B,PLT_transfer_02,2014_Apr_02_1426,
ques.jpg,stim_02/c.jpg,stim_02/d.jpg,2,6,j,5,22,172,20,f,0,0.683162439522,03,P09,02,60.0237135222,B,PLT_transfer_02,2014_Apr_02_1426,
ques.jpg,stim_02/d.jpg,stim_02/e.jpg,2,14,f,5,23,173,28,f,1,0.699821412541,03,P09,02,60.0237135222,B,PLT_transfer_02,2014_Apr_02_1426,
ques.jpg,stim_02/d.jpg,stim_02/f.jpg,2,15,f,5,24,174,29,j,0,0.79982552678,03,P09,02,60.0237135222,B,PLT_transfer_02,2014_Apr_02_1426,
ques.jpg,stim_02/e.jpg,stim_02/a.jpg,1,4,f,5,25,175,3,j,0,0.749788864036,03,P09,02,60.0237135222,B,PLT_transfer_02,2014_Apr_02_1426,
ques.jpg,stim_02/d.jpg,stim_02/c.jpg,1,6,f,5,26,176,5,f,1,0.783121847498,03,P09,02,60.0237135222,B,PLT_transfer_02,2014_Apr_02_1426,
ques.jpg,stim_02/f.jpg,stim_02/c.jpg,1,8,f,5,27,177,7,f,1,1.23296893343,03,P09,02,60.0237135222,B,PLT_transfer_02,2014_Apr_02_1426,
ques.jpg,stim_02/c.jpg,stim_02/f.jpg,2,8,j,5,28,178,22,j,1,0.666481677274,03,P09,02,60.0237135222,B,PLT_transfer_02,2014_Apr_02_1426,
ques.jpg,stim_02/a.jpg,stim_02/e.jpg,2,4,j,5,29,179,18,f,0,0.799801367653,03,P09,02,60.0237135222,B,PLT_transfer_02,2014_Apr_02_1426,
