Fb3,Symbol2,Symbol1,PosCond,tID,Correct,trials.thisRepN,trials.thisTrialN,trials.thisN,trials.thisIndex,Response.keys,Response.corr,Response.rt,session,participant,version,frameRate,stimulation,expName,date,
ques.jpg,stim_03/a.jpg,stim_03/b.jpg,2,1,j,0,0,0,15,f,0,1.24963010793,03,P17,03,60.0143910173,B,PLT_transfer_03,2014_Mrz_07_1603,
ques.jpg,stim_03/f.jpg,stim_03/d.jpg,1,15,j,0,1,1,14,j,1,1.04966476017,03,P17,03,60.0143910173,B,PLT_transfer_03,2014_Mrz_07_1603,
ques.jpg,stim_03/c.jpg,stim_03/e.jpg,2,7,j,0,2,2,21,f,0,0.749767282323,03,P17,03,60.0143910173,B,PLT_transfer_03,2014_Mrz_07_1603,
ques.jpg,stim_03/d.jpg,stim_03/c.jpg,1,6,f,0,3,3,5,j,0,0.749796436881,03,P17,03,60.0143910173,B,PLT_transfer_03,2014_Mrz_07_1603,
ques.jpg,stim_03/d.jpg,stim_03/b.jpg,1,11,j,0,4,4,10,j,1,1.06636641542,03,P17,03,60.0143910173,B,PLT_transfer_03,2014_Mrz_07_1603,
ques.jpg,stim_03/c.jpg,stim_03/f.jpg,2,8,j,0,5,5,22,f,0,0.866428775615,03,P17,03,60.0143910173,B,PLT_transfer_03,2014_Mrz_07_1603,
ques.jpg,stim_03/e.jpg,stim_03/c.jpg,1,7,f,0,6,6,6,j,0,1.38291165739,03,P17,03,60.0143910173,B,PLT_transfer_03,2014_Mrz_07_1603,
ques.jpg,stim_03/b.jpg,stim_03/a.jpg,1,1,f,0,7,7,0,f,1,0.899713119023,03,P17,03,60.0143910173,B,PLT_transfer_03,2014_Mrz_07_1603,
ques.jpg,stim_03/b.jpg,stim_03/e.jpg,2,12,f,0,8,8,26,j,0,1.53287570742,03,P17,03,60.0143910173,B,PLT_transfer_03,2014_Mrz_07_1603,
ques.jpg,stim_03/c.jpg,stim_03/d.jpg,2,6,j,0,9,9,20,j,1,1.41621760055,03,P17,03,60.0143910173,B,PLT_transfer_03,2014_Mrz_07_1603,
ques.jpg,stim_03/e.jpg,stim_03/f.jpg,2,9,j,0,10,10,23,f,0,1.08312600986,03,P17,03,60.0143910173,B,PLT_transfer_03,2014_Mrz_07_1603,
ques.jpg,stim_03/a.jpg,stim_03/d.jpg,2,3,j,0,11,11,17,j,1,0.81642477115,03,P17,03,60.0143910173,B,PLT_transfer_03,2014_Mrz_07_1603,
ques.jpg,stim_03/e.jpg,stim_03/d.jpg,1,14,j,0,12,12,13,f,0,1.0330109901,03,P17,03,60.0143910173,B,PLT_transfer_03,2014_Mrz_07_1603,
ques.jpg,stim_03/b.jpg,stim_03/c.jpg,2,10,f,0,13,13,24,j,0,0.883076554775,03,P17,03,60.0143910173,B,PLT_transfer_03,2014_Mrz_07_1603,
ques.jpg,stim_03/b.jpg,stim_03/f.jpg,2,13,f,0,14,14,27,f,1,0.749794151194,03,P17,03,60.0143910173,B,PLT_transfer_03,2014_Mrz_07_1603,
ques.jpg,stim_03/d.jpg,stim_03/e.jpg,2,14,f,0,15,15,28,j,0,1.63286185193,03,P17,03,60.0143910173,B,PLT_transfer_03,2014_Mrz_07_1603,
ques.jpg,stim_03/f.jpg,stim_03/c.jpg,1,8,f,0,16,16,7,f,1,0.86643252294,03,P17,03,60.0143910173,B,PLT_transfer_03,2014_Mrz_07_1603,
ques.jpg,stim_03/a.jpg,stim_03/f.jpg,2,5,j,0,17,17,19,j,1,1.23297685515,03,P17,03,60.0143910173,B,PLT_transfer_03,2014_Mrz_07_1603,
ques.jpg,stim_03/a.jpg,stim_03/e.jpg,2,4,j,0,18,18,18,f,0,1.29963514396,03,P17,03,60.0143910173,B,PLT_transfer_03,2014_Mrz_07_1603,
ques.jpg,stim_03/e.jpg,stim_03/a.jpg,1,4,f,0,19,19,3,j,0,1.13299610305,03,P17,03,60.0143910173,B,PLT_transfer_03,2014_Mrz_07_1603,
ques.jpg,stim_03/e.jpg,stim_03/b.jpg,1,12,j,0,20,20,11,f,0,1.14966442033,03,P17,03,60.0143910173,B,PLT_transfer_03,2014_Mrz_07_1603,
ques.jpg,stim_03/c.jpg,stim_03/b.jpg,1,10,j,0,21,21,9,j,1,1.51622366966,03,P17,03,60.0143910173,B,PLT_transfer_03,2014_Mrz_07_1603,
ques.jpg,stim_03/a.jpg,stim_03/c.jpg,2,2,j,0,22,22,16,None,0,,03,P17,03,60.0143910173,B,PLT_transfer_03,2014_Mrz_07_1603,
ques.jpg,stim_03/f.jpg,stim_03/a.jpg,1,5,f,0,23,23,4,j,0,0.266634198862,03,P17,03,60.0143910173,B,PLT_transfer_03,2014_Mrz_07_1603,
ques.jpg,stim_03/f.jpg,stim_03/e.jpg,1,9,f,0,24,24,8,f,1,1.03297538148,03,P17,03,60.0143910173,B,PLT_transfer_03,2014_Mrz_07_1603,
ques.jpg,stim_03/d.jpg,stim_03/f.jpg,2,15,f,0,25,25,29,j,0,0.783123543719,03,P17,03,60.0143910173,B,PLT_transfer_03,2014_Mrz_07_1603,
ques.jpg,stim_03/f.jpg,stim_03/b.jpg,1,13,j,0,26,26,12,j,1,0.816440274735,03,P17,03,60.0143910173,B,PLT_transfer_03,2014_Mrz_07_1603,
ques.jpg,stim_03/d.jpg,stim_03/a.jpg,1,3,f,0,27,27,2,f,1,1.03304411153,03,P17,03,60.0143910173,B,PLT_transfer_03,2014_Mrz_07_1603,
ques.jpg,stim_03/b.jpg,stim_03/d.jpg,2,11,f,0,28,28,25,j,0,1.26627141198,03,P17,03,60.0143910173,B,PLT_transfer_03,2014_Mrz_07_1603,
ques.jpg,stim_03/c.jpg,stim_03/a.jpg,1,2,f,0,29,29,1,f,1,0.983049794177,03,P17,03,60.0143910173,B,PLT_transfer_03,2014_Mrz_07_1603,
ques.jpg,stim_03/d.jpg,stim_03/a.jpg,1,3,f,1,0,30,2,j,0,0.899701868024,03,P17,03,60.0143910173,B,PLT_transfer_03,2014_Mrz_07_1603,
ques.jpg,stim_03/c.jpg,stim_03/f.jpg,2,8,j,1,1,31,22,f,0,1.21629655605,03,P17,03,60.0143910173,B,PLT_transfer_03,2014_Mrz_07_1603,
ques.jpg,stim_03/b.jpg,stim_03/d.jpg,2,11,f,1,2,32,25,f,1,1.38291721522,03,P17,03,60.0143910173,B,PLT_transfer_03,2014_Mrz_07_1603,
ques.jpg,stim_03/d.jpg,stim_03/b.jpg,1,11,j,1,3,33,10,None,0,,03,P17,03,60.0143910173,B,PLT_transfer_03,2014_Mrz_07_1603,
ques.jpg,stim_03/e.jpg,stim_03/c.jpg,1,7,f,1,4,34,6,j,0,0.466555065919,03,P17,03,60.0143910173,B,PLT_transfer_03,2014_Mrz_07_1603,
ques.jpg,stim_03/e.jpg,stim_03/a.jpg,1,4,f,1,5,35,3,f,1,0.833091614757,03,P17,03,60.0143910173,B,PLT_transfer_03,2014_Mrz_07_1603,
ques.jpg,stim_03/d.jpg,stim_03/f.jpg,2,15,f,1,6,36,29,f,1,0.783115742306,03,P17,03,60.0143910173,B,PLT_transfer_03,2014_Mrz_07_1603,
ques.jpg,stim_03/b.jpg,stim_03/f.jpg,2,13,f,1,7,37,27,f,1,1.19963318309,03,P17,03,60.0143910173,B,PLT_transfer_03,2014_Mrz_07_1603,
ques.jpg,stim_03/a.jpg,stim_03/e.jpg,2,4,j,1,8,38,18,j,1,1.13300994049,03,P17,03,60.0143910173,B,PLT_transfer_03,2014_Mrz_07_1603,
ques.jpg,stim_03/c.jpg,stim_03/b.jpg,1,10,j,1,9,39,9,f,0,1.01639644666,03,P17,03,60.0143910173,B,PLT_transfer_03,2014_Mrz_07_1603,
ques.jpg,stim_03/e.jpg,stim_03/f.jpg,2,9,j,1,10,40,23,f,0,1.09968777795,03,P17,03,60.0143910173,B,PLT_transfer_03,2014_Mrz_07_1603,
ques.jpg,stim_03/b.jpg,stim_03/a.jpg,1,1,f,1,11,41,0,None,0,,03,P17,03,60.0143910173,B,PLT_transfer_03,2014_Mrz_07_1603,
ques.jpg,stim_03/b.jpg,stim_03/e.jpg,2,12,f,1,12,42,26,j,0,0.583061171488,03,P17,03,60.0143910173,B,PLT_transfer_03,2014_Mrz_07_1603,
ques.jpg,stim_03/f.jpg,stim_03/e.jpg,1,9,f,1,13,43,8,j,0,0.616507940136,03,P17,03,60.0143910173,B,PLT_transfer_03,2014_Mrz_07_1603,
ques.jpg,stim_03/f.jpg,stim_03/b.jpg,1,13,j,1,14,44,12,f,0,0.833080339693,03,P17,03,60.0143910173,B,PLT_transfer_03,2014_Mrz_07_1603,
ques.jpg,stim_03/f.jpg,stim_03/d.jpg,1,15,j,1,15,45,14,f,0,0.66648579753,03,P17,03,60.0143910173,B,PLT_transfer_03,2014_Mrz_07_1603,
ques.jpg,stim_03/b.jpg,stim_03/c.jpg,2,10,f,1,16,46,24,j,0,1.01635120205,03,P17,03,60.0143910173,B,PLT_transfer_03,2014_Mrz_07_1603,
ques.jpg,stim_03/e.jpg,stim_03/b.jpg,1,12,j,1,17,47,11,None,0,,03,P17,03,60.0143910173,B,PLT_transfer_03,2014_Mrz_07_1603,
ques.jpg,stim_03/a.jpg,stim_03/c.jpg,2,2,j,1,18,48,16,j,1,0.99971223783,03,P17,03,60.0143910173,B,PLT_transfer_03,2014_Mrz_07_1603,
ques.jpg,stim_03/c.jpg,stim_03/e.jpg,2,7,j,1,19,49,21,f,0,0.849771688288,03,P17,03,60.0143910173,B,PLT_transfer_03,2014_Mrz_07_1603,
ques.jpg,stim_03/a.jpg,stim_03/b.jpg,2,1,j,1,20,50,15,f,0,0.83308441484,03,P17,03,60.0143910173,B,PLT_transfer_03,2014_Mrz_07_1603,
ques.jpg,stim_03/c.jpg,stim_03/a.jpg,1,2,f,1,21,51,1,f,1,0.933059777522,03,P17,03,60.0143910173,B,PLT_transfer_03,2014_Mrz_07_1603,
ques.jpg,stim_03/f.jpg,stim_03/a.jpg,1,5,f,1,22,52,4,f,1,0.933069843573,03,P17,03,60.0143910173,B,PLT_transfer_03,2014_Mrz_07_1603,
ques.jpg,stim_03/d.jpg,stim_03/e.jpg,2,14,f,1,23,53,28,j,0,1.09968702308,03,P17,03,60.0143910173,B,PLT_transfer_03,2014_Mrz_07_1603,
ques.jpg,stim_03/c.jpg,stim_03/d.jpg,2,6,j,1,24,54,20,f,0,1.08302267268,03,P17,03,60.0143910173,B,PLT_transfer_03,2014_Mrz_07_1603,
ques.jpg,stim_03/d.jpg,stim_03/c.jpg,1,6,f,1,25,55,5,j,0,1.08302260651,03,P17,03,60.0143910173,B,PLT_transfer_03,2014_Mrz_07_1603,
ques.jpg,stim_03/f.jpg,stim_03/c.jpg,1,8,f,1,26,56,7,j,0,1.11631662801,03,P17,03,60.0143910173,B,PLT_transfer_03,2014_Mrz_07_1603,
ques.jpg,stim_03/a.jpg,stim_03/d.jpg,2,3,j,1,27,57,17,f,0,1.03302122758,03,P17,03,60.0143910173,B,PLT_transfer_03,2014_Mrz_07_1603,
ques.jpg,stim_03/a.jpg,stim_03/f.jpg,2,5,j,1,28,58,19,j,1,1.08302176441,03,P17,03,60.0143910173,B,PLT_transfer_03,2014_Mrz_07_1603,
ques.jpg,stim_03/e.jpg,stim_03/d.jpg,1,14,j,1,29,59,13,f,0,0.999733975932,03,P17,03,60.0143910173,B,PLT_transfer_03,2014_Mrz_07_1603,
ques.jpg,stim_03/e.jpg,stim_03/f.jpg,2,9,j,2,0,60,23,j,1,1.04967446533,03,P17,03,60.0143910173,B,PLT_transfer_03,2014_Mrz_07_1603,
ques.jpg,stim_03/a.jpg,stim_03/b.jpg,2,1,j,2,1,61,15,f,0,1.04969909061,03,P17,03,60.0143910173,B,PLT_transfer_03,2014_Mrz_07_1603,
ques.jpg,stim_03/f.jpg,stim_03/c.jpg,1,8,f,2,2,62,7,f,1,0.933093837288,03,P17,03,60.0143910173,B,PLT_transfer_03,2014_Mrz_07_1603,
ques.jpg,stim_03/a.jpg,stim_03/f.jpg,2,5,j,2,3,63,19,j,1,0.816404506717,03,P17,03,60.0143910173,B,PLT_transfer_03,2014_Mrz_07_1603,
ques.jpg,stim_03/c.jpg,stim_03/f.jpg,2,8,j,2,4,64,22,f,0,1.41625756702,03,P17,03,60.0143910173,B,PLT_transfer_03,2014_Mrz_07_1603,
ques.jpg,stim_03/d.jpg,stim_03/c.jpg,1,6,f,2,5,65,5,j,0,0.999659161738,03,P17,03,60.0143910173,B,PLT_transfer_03,2014_Mrz_07_1603,
ques.jpg,stim_03/a.jpg,stim_03/d.jpg,2,3,j,2,6,66,17,f,0,1.19964758593,03,P17,03,60.0143910173,B,PLT_transfer_03,2014_Mrz_07_1603,
ques.jpg,stim_03/f.jpg,stim_03/b.jpg,1,13,j,2,7,67,12,None,0,,03,P17,03,60.0143910173,B,PLT_transfer_03,2014_Mrz_07_1603,
ques.jpg,stim_03/d.jpg,stim_03/b.jpg,1,11,j,2,8,68,10,j,1,0.183350873485,03,P17,03,60.0143910173,B,PLT_transfer_03,2014_Mrz_07_1603,
ques.jpg,stim_03/f.jpg,stim_03/a.jpg,1,5,f,2,9,69,4,f,1,0.983074807427,03,P17,03,60.0143910173,B,PLT_transfer_03,2014_Mrz_07_1603,
ques.jpg,stim_03/b.jpg,stim_03/c.jpg,2,10,f,2,10,70,24,j,0,0.833112748354,03,P17,03,60.0143910173,B,PLT_transfer_03,2014_Mrz_07_1603,
ques.jpg,stim_03/c.jpg,stim_03/a.jpg,1,2,f,2,11,71,1,f,1,1.33294220892,03,P17,03,60.0143910173,B,PLT_transfer_03,2014_Mrz_07_1603,
ques.jpg,stim_03/e.jpg,stim_03/d.jpg,1,14,j,2,12,72,13,f,0,1.08302327117,03,P17,03,60.0143910173,B,PLT_transfer_03,2014_Mrz_07_1603,
ques.jpg,stim_03/a.jpg,stim_03/c.jpg,2,2,j,2,13,73,16,j,1,1.29964733931,03,P17,03,60.0143910173,B,PLT_transfer_03,2014_Mrz_07_1603,
ques.jpg,stim_03/d.jpg,stim_03/a.jpg,1,3,f,2,14,74,2,j,0,1.49953919317,03,P17,03,60.0143910173,B,PLT_transfer_03,2014_Mrz_07_1603,
ques.jpg,stim_03/c.jpg,stim_03/b.jpg,1,10,j,2,15,75,9,None,0,,03,P17,03,60.0143910173,B,PLT_transfer_03,2014_Mrz_07_1603,
ques.jpg,stim_03/d.jpg,stim_03/e.jpg,2,14,f,2,16,76,28,j,0,0.499855514412,03,P17,03,60.0143910173,B,PLT_transfer_03,2014_Mrz_07_1603,
ques.jpg,stim_03/b.jpg,stim_03/d.jpg,2,11,f,2,17,77,25,f,1,1.14970159284,03,P17,03,60.0143910173,B,PLT_transfer_03,2014_Mrz_07_1603,
ques.jpg,stim_03/d.jpg,stim_03/f.jpg,2,15,f,2,18,78,29,f,1,1.1829890129,03,P17,03,60.0143910173,B,PLT_transfer_03,2014_Mrz_07_1603,
ques.jpg,stim_03/b.jpg,stim_03/f.jpg,2,13,f,2,19,79,27,f,1,1.04968874186,03,P17,03,60.0143910173,B,PLT_transfer_03,2014_Mrz_07_1603,
ques.jpg,stim_03/e.jpg,stim_03/c.jpg,1,7,f,2,20,80,6,j,0,0.849770187553,03,P17,03,60.0143910173,B,PLT_transfer_03,2014_Mrz_07_1603,
ques.jpg,stim_03/c.jpg,stim_03/e.jpg,2,7,j,2,21,81,21,j,1,0.716496301167,03,P17,03,60.0143910173,B,PLT_transfer_03,2014_Mrz_07_1603,
ques.jpg,stim_03/b.jpg,stim_03/e.jpg,2,12,f,2,22,82,26,f,1,1.09964809119,03,P17,03,60.0143910173,B,PLT_transfer_03,2014_Mrz_07_1603,
ques.jpg,stim_03/e.jpg,stim_03/a.jpg,1,4,f,2,23,83,3,j,0,1.29963076506,03,P17,03,60.0143910173,B,PLT_transfer_03,2014_Mrz_07_1603,
ques.jpg,stim_03/a.jpg,stim_03/e.jpg,2,4,j,2,24,84,18,f,0,1.09969837934,03,P17,03,60.0143910173,B,PLT_transfer_03,2014_Mrz_07_1603,
ques.jpg,stim_03/b.jpg,stim_03/a.jpg,1,1,f,2,25,85,0,f,1,1.24962842374,03,P17,03,60.0143910173,B,PLT_transfer_03,2014_Mrz_07_1603,
ques.jpg,stim_03/e.jpg,stim_03/b.jpg,1,12,j,2,26,86,11,j,1,1.33294490964,03,P17,03,60.0143910173,B,PLT_transfer_03,2014_Mrz_07_1603,
ques.jpg,stim_03/c.jpg,stim_03/d.jpg,2,6,j,2,27,87,20,f,0,1.38287795551,03,P17,03,60.0143910173,B,PLT_transfer_03,2014_Mrz_07_1603,
ques.jpg,stim_03/f.jpg,stim_03/d.jpg,1,15,j,2,28,88,14,j,1,1.0496858667,03,P17,03,60.0143910173,B,PLT_transfer_03,2014_Mrz_07_1603,
ques.jpg,stim_03/f.jpg,stim_03/e.jpg,1,9,f,2,29,89,8,f,1,1.06636072225,03,P17,03,60.0143910173,B,PLT_transfer_03,2014_Mrz_07_1603,
ques.jpg,stim_03/c.jpg,stim_03/b.jpg,1,10,j,3,0,90,9,f,0,1.13300964877,03,P17,03,60.0143910173,B,PLT_transfer_03,2014_Mrz_07_1603,
ques.jpg,stim_03/e.jpg,stim_03/f.jpg,2,9,j,3,1,91,23,j,1,0.916404777392,03,P17,03,60.0143910173,B,PLT_transfer_03,2014_Mrz_07_1603,
ques.jpg,stim_03/f.jpg,stim_03/d.jpg,1,15,j,3,2,92,14,j,1,0.916382224259,03,P17,03,60.0143910173,B,PLT_transfer_03,2014_Mrz_07_1603,
ques.jpg,stim_03/a.jpg,stim_03/d.jpg,2,3,j,3,3,93,17,j,1,0.816393568493,03,P17,03,60.0143910173,B,PLT_transfer_03,2014_Mrz_07_1603,
ques.jpg,stim_03/e.jpg,stim_03/b.jpg,1,12,j,3,4,94,11,f,0,0.683155074192,03,P17,03,60.0143910173,B,PLT_transfer_03,2014_Mrz_07_1603,
ques.jpg,stim_03/a.jpg,stim_03/c.jpg,2,2,j,3,5,95,16,j,1,0.583160674127,03,P17,03,60.0143910173,B,PLT_transfer_03,2014_Mrz_07_1603,
ques.jpg,stim_03/f.jpg,stim_03/e.jpg,1,9,f,3,6,96,8,f,1,0.89972093247,03,P17,03,60.0143910173,B,PLT_transfer_03,2014_Mrz_07_1603,
ques.jpg,stim_03/a.jpg,stim_03/b.jpg,2,1,j,3,7,97,15,f,0,1.16635548922,03,P17,03,60.0143910173,B,PLT_transfer_03,2014_Mrz_07_1603,
ques.jpg,stim_03/a.jpg,stim_03/e.jpg,2,4,j,3,8,98,18,f,0,1.08301031793,03,P17,03,60.0143910173,B,PLT_transfer_03,2014_Mrz_07_1603,
ques.jpg,stim_03/a.jpg,stim_03/f.jpg,2,5,j,3,9,99,19,j,1,0.916406437522,03,P17,03,60.0143910173,B,PLT_transfer_03,2014_Mrz_07_1603,
ques.jpg,stim_03/f.jpg,stim_03/c.jpg,1,8,f,3,10,100,7,f,1,1.11635459149,03,P17,03,60.0143910173,B,PLT_transfer_03,2014_Mrz_07_1603,
ques.jpg,stim_03/b.jpg,stim_03/a.jpg,1,1,f,3,11,101,0,f,1,0.833093335041,03,P17,03,60.0143910173,B,PLT_transfer_03,2014_Mrz_07_1603,
ques.jpg,stim_03/d.jpg,stim_03/c.jpg,1,6,f,3,12,102,5,j,0,0.816408834489,03,P17,03,60.0143910173,B,PLT_transfer_03,2014_Mrz_07_1603,
ques.jpg,stim_03/e.jpg,stim_03/a.jpg,1,4,f,3,13,103,3,f,1,1.01636434175,03,P17,03,60.0143910173,B,PLT_transfer_03,2014_Mrz_07_1603,
ques.jpg,stim_03/d.jpg,stim_03/e.jpg,2,14,f,3,14,104,28,j,0,1.19966090007,03,P17,03,60.0143910173,B,PLT_transfer_03,2014_Mrz_07_1603,
ques.jpg,stim_03/d.jpg,stim_03/a.jpg,1,3,f,3,15,105,2,f,1,1.44958319117,03,P17,03,60.0143910173,B,PLT_transfer_03,2014_Mrz_07_1603,
ques.jpg,stim_03/b.jpg,stim_03/c.jpg,2,10,f,3,16,106,24,j,0,1.24963790935,03,P17,03,60.0143910173,B,PLT_transfer_03,2014_Mrz_07_1603,
ques.jpg,stim_03/c.jpg,stim_03/d.jpg,2,6,j,3,17,107,20,f,0,0.849772680758,03,P17,03,60.0143910173,B,PLT_transfer_03,2014_Mrz_07_1603,
ques.jpg,stim_03/d.jpg,stim_03/f.jpg,2,15,f,3,18,108,29,j,0,0.88309387488,03,P17,03,60.0143910173,B,PLT_transfer_03,2014_Mrz_07_1603,
ques.jpg,stim_03/f.jpg,stim_03/a.jpg,1,5,f,3,19,109,4,f,1,0.883082756209,03,P17,03,60.0143910173,B,PLT_transfer_03,2014_Mrz_07_1603,
ques.jpg,stim_03/e.jpg,stim_03/c.jpg,1,7,f,3,20,110,6,j,0,1.18298026714,03,P17,03,60.0143910173,B,PLT_transfer_03,2014_Mrz_07_1603,
ques.jpg,stim_03/b.jpg,stim_03/d.jpg,2,11,f,3,21,111,25,f,1,1.59948023143,03,P17,03,60.0143910173,B,PLT_transfer_03,2014_Mrz_07_1603,
ques.jpg,stim_03/c.jpg,stim_03/a.jpg,1,2,f,3,22,112,1,None,0,,03,P17,03,60.0143910173,B,PLT_transfer_03,2014_Mrz_07_1603,
ques.jpg,stim_03/c.jpg,stim_03/f.jpg,2,8,j,3,23,113,22,j,1,0.316596952667,03,P17,03,60.0143910173,B,PLT_transfer_03,2014_Mrz_07_1603,
ques.jpg,stim_03/f.jpg,stim_03/b.jpg,1,13,j,3,24,114,12,f,0,1.04969740341,03,P17,03,60.0143910173,B,PLT_transfer_03,2014_Mrz_07_1603,
ques.jpg,stim_03/e.jpg,stim_03/d.jpg,1,14,j,3,25,115,13,j,1,1.04967327135,03,P17,03,60.0143910173,B,PLT_transfer_03,2014_Mrz_07_1603,
ques.jpg,stim_03/d.jpg,stim_03/b.jpg,1,11,j,3,26,116,10,f,0,1.33293989316,03,P17,03,60.0143910173,B,PLT_transfer_03,2014_Mrz_07_1603,
ques.jpg,stim_03/b.jpg,stim_03/e.jpg,2,12,f,3,27,117,26,f,1,1.0330227614,03,P17,03,60.0143910173,B,PLT_transfer_03,2014_Mrz_07_1603,
ques.jpg,stim_03/c.jpg,stim_03/e.jpg,2,7,j,3,28,118,21,j,1,0.86642826434,03,P17,03,60.0143910173,B,PLT_transfer_03,2014_Mrz_07_1603,
ques.jpg,stim_03/b.jpg,stim_03/f.jpg,2,13,f,3,29,119,27,f,1,1.33293478645,03,P17,03,60.0143910173,B,PLT_transfer_03,2014_Mrz_07_1603,
ques.jpg,stim_03/d.jpg,stim_03/f.jpg,2,15,f,4,0,120,29,j,0,1.04973583005,03,P17,03,60.0143910173,B,PLT_transfer_03,2014_Mrz_07_1603,
ques.jpg,stim_03/b.jpg,stim_03/c.jpg,2,10,f,4,1,121,24,j,0,1.2163128867,03,P17,03,60.0143910173,B,PLT_transfer_03,2014_Mrz_07_1603,
ques.jpg,stim_03/c.jpg,stim_03/d.jpg,2,6,j,4,2,122,20,f,0,1.11634580663,03,P17,03,60.0143910173,B,PLT_transfer_03,2014_Mrz_07_1603,
ques.jpg,stim_03/e.jpg,stim_03/a.jpg,1,4,f,4,3,123,3,j,0,0.983062876734,03,P17,03,60.0143910173,B,PLT_transfer_03,2014_Mrz_07_1603,
ques.jpg,stim_03/d.jpg,stim_03/e.jpg,2,14,f,4,4,124,28,f,1,0.816431534982,03,P17,03,60.0143910173,B,PLT_transfer_03,2014_Mrz_07_1603,
ques.jpg,stim_03/c.jpg,stim_03/b.jpg,1,10,j,4,5,125,9,f,0,0.899729810564,03,P17,03,60.0143910173,B,PLT_transfer_03,2014_Mrz_07_1603,
ques.jpg,stim_03/b.jpg,stim_03/a.jpg,1,1,f,4,6,126,0,j,0,1.11631480848,03,P17,03,60.0143910173,B,PLT_transfer_03,2014_Mrz_07_1603,
ques.jpg,stim_03/f.jpg,stim_03/b.jpg,1,13,j,4,7,127,12,j,1,1.11640266614,03,P17,03,60.0143910173,B,PLT_transfer_03,2014_Mrz_07_1603,
ques.jpg,stim_03/a.jpg,stim_03/f.jpg,2,5,j,4,8,128,19,j,1,1.03302696586,03,P17,03,60.0143910173,B,PLT_transfer_03,2014_Mrz_07_1603,
ques.jpg,stim_03/a.jpg,stim_03/d.jpg,2,3,j,4,9,129,17,f,0,1.18299564441,03,P17,03,60.0143910173,B,PLT_transfer_03,2014_Mrz_07_1603,
ques.jpg,stim_03/f.jpg,stim_03/c.jpg,1,8,f,4,10,130,7,j,0,1.09966739322,03,P17,03,60.0143910173,B,PLT_transfer_03,2014_Mrz_07_1603,
ques.jpg,stim_03/c.jpg,stim_03/a.jpg,1,2,f,4,11,131,1,f,1,1.49951057093,03,P17,03,60.0143910173,B,PLT_transfer_03,2014_Mrz_07_1603,
ques.jpg,stim_03/c.jpg,stim_03/e.jpg,2,7,j,4,12,132,21,j,1,1.29962136969,03,P17,03,60.0143910173,B,PLT_transfer_03,2014_Mrz_07_1603,
ques.jpg,stim_03/d.jpg,stim_03/b.jpg,1,11,j,4,13,133,10,j,1,0.966398637611,03,P17,03,60.0143910173,B,PLT_transfer_03,2014_Mrz_07_1603,
ques.jpg,stim_03/f.jpg,stim_03/a.jpg,1,5,f,4,14,134,4,f,1,1.4662381101,03,P17,03,60.0143910173,B,PLT_transfer_03,2014_Mrz_07_1603,
ques.jpg,stim_03/f.jpg,stim_03/e.jpg,1,9,f,4,15,135,8,j,0,1.24964945207,03,P17,03,60.0143910173,B,PLT_transfer_03,2014_Mrz_07_1603,
ques.jpg,stim_03/e.jpg,stim_03/b.jpg,1,12,j,4,16,136,11,f,0,1.06636203652,03,P17,03,60.0143910173,B,PLT_transfer_03,2014_Mrz_07_1603,
ques.jpg,stim_03/a.jpg,stim_03/e.jpg,2,4,j,4,17,137,18,j,1,1.01634681112,03,P17,03,60.0143910173,B,PLT_transfer_03,2014_Mrz_07_1603,
ques.jpg,stim_03/d.jpg,stim_03/a.jpg,1,3,f,4,18,138,2,f,1,1.1496733706,03,P17,03,60.0143910173,B,PLT_transfer_03,2014_Mrz_07_1603,
ques.jpg,stim_03/a.jpg,stim_03/c.jpg,2,2,j,4,19,139,16,f,0,1.18294306455,03,P17,03,60.0143910173,B,PLT_transfer_03,2014_Mrz_07_1603,
ques.jpg,stim_03/f.jpg,stim_03/d.jpg,1,15,j,4,20,140,14,j,1,1.14969420345,03,P17,03,60.0143910173,B,PLT_transfer_03,2014_Mrz_07_1603,
ques.jpg,stim_03/d.jpg,stim_03/c.jpg,1,6,f,4,21,141,5,f,1,1.1996457664,03,P17,03,60.0143910173,B,PLT_transfer_03,2014_Mrz_07_1603,
ques.jpg,stim_03/e.jpg,stim_03/c.jpg,1,7,f,4,22,142,6,j,0,1.18298853171,03,P17,03,60.0143910173,B,PLT_transfer_03,2014_Mrz_07_1603,
ques.jpg,stim_03/a.jpg,stim_03/b.jpg,2,1,j,4,23,143,15,j,1,1.03303567554,03,P17,03,60.0143910173,B,PLT_transfer_03,2014_Mrz_07_1603,
ques.jpg,stim_03/b.jpg,stim_03/e.jpg,2,12,f,4,24,144,26,f,1,1.24964830322,03,P17,03,60.0143910173,B,PLT_transfer_03,2014_Mrz_07_1603,
ques.jpg,stim_03/e.jpg,stim_03/f.jpg,2,9,j,4,25,145,23,j,1,1.21626845712,03,P17,03,60.0143910173,B,PLT_transfer_03,2014_Mrz_07_1603,
ques.jpg,stim_03/c.jpg,stim_03/f.jpg,2,8,j,4,26,146,22,f,0,1.03301507126,03,P17,03,60.0143910173,B,PLT_transfer_03,2014_Mrz_07_1603,
ques.jpg,stim_03/b.jpg,stim_03/d.jpg,2,11,f,4,27,147,25,f,1,1.14964724759,03,P17,03,60.0143910173,B,PLT_transfer_03,2014_Mrz_07_1603,
ques.jpg,stim_03/b.jpg,stim_03/f.jpg,2,13,f,4,28,148,27,j,0,0.96640790367,03,P17,03,60.0143910173,B,PLT_transfer_03,2014_Mrz_07_1603,
ques.jpg,stim_03/e.jpg,stim_03/d.jpg,1,14,j,4,29,149,13,f,0,0.949715752078,03,P17,03,60.0143910173,B,PLT_transfer_03,2014_Mrz_07_1603,
ques.jpg,stim_03/c.jpg,stim_03/f.jpg,2,8,j,5,0,150,22,j,1,0.916413017902,03,P17,03,60.0143910173,B,PLT_transfer_03,2014_Mrz_07_1603,
ques.jpg,stim_03/b.jpg,stim_03/f.jpg,2,13,f,5,1,151,27,j,0,0.999672545044,03,P17,03,60.0143910173,B,PLT_transfer_03,2014_Mrz_07_1603,
ques.jpg,stim_03/c.jpg,stim_03/a.jpg,1,2,f,5,2,152,1,f,1,1.26623229964,03,P17,03,60.0143910173,B,PLT_transfer_03,2014_Mrz_07_1603,
ques.jpg,stim_03/a.jpg,stim_03/b.jpg,2,1,j,5,3,153,15,j,1,1.41616740864,03,P17,03,60.0143910173,B,PLT_transfer_03,2014_Mrz_07_1603,
ques.jpg,stim_03/e.jpg,stim_03/d.jpg,1,14,j,5,4,154,13,f,0,1.06637500479,03,P17,03,60.0143910173,B,PLT_transfer_03,2014_Mrz_07_1603,
ques.jpg,stim_03/f.jpg,stim_03/b.jpg,1,13,j,5,5,155,12,f,0,1.23296558309,03,P17,03,60.0143910173,B,PLT_transfer_03,2014_Mrz_07_1603,
ques.jpg,stim_03/c.jpg,stim_03/e.jpg,2,7,j,5,6,156,21,f,0,1.14953772701,03,P17,03,60.0143910173,B,PLT_transfer_03,2014_Mrz_07_1603,
ques.jpg,stim_03/d.jpg,stim_03/e.jpg,2,14,f,5,7,157,28,j,0,0.999716950559,03,P17,03,60.0143910173,B,PLT_transfer_03,2014_Mrz_07_1603,
ques.jpg,stim_03/d.jpg,stim_03/a.jpg,1,3,f,5,8,158,2,f,1,1.18302355387,03,P17,03,60.0143910173,B,PLT_transfer_03,2014_Mrz_07_1603,
ques.jpg,stim_03/f.jpg,stim_03/c.jpg,1,8,f,5,9,159,7,j,0,1.19967643372,03,P17,03,60.0143910173,B,PLT_transfer_03,2014_Mrz_07_1603,
ques.jpg,stim_03/a.jpg,stim_03/d.jpg,2,3,j,5,10,160,17,f,0,1.11633708793,03,P17,03,60.0143910173,B,PLT_transfer_03,2014_Mrz_07_1603,
ques.jpg,stim_03/f.jpg,stim_03/a.jpg,1,5,f,5,11,161,4,j,0,1.18297354541,03,P17,03,60.0143910173,B,PLT_transfer_03,2014_Mrz_07_1603,
ques.jpg,stim_03/c.jpg,stim_03/d.jpg,2,6,j,5,12,162,20,j,1,1.14969030875,03,P17,03,60.0143910173,B,PLT_transfer_03,2014_Mrz_07_1603,
ques.jpg,stim_03/b.jpg,stim_03/c.jpg,2,10,f,5,13,163,24,f,1,1.31628729601,03,P17,03,60.0143910173,B,PLT_transfer_03,2014_Mrz_07_1603,
ques.jpg,stim_03/c.jpg,stim_03/b.jpg,1,10,j,5,14,164,9,f,0,1.19963859957,03,P17,03,60.0143910173,B,PLT_transfer_03,2014_Mrz_07_1603,
ques.jpg,stim_03/e.jpg,stim_03/c.jpg,1,7,f,5,15,165,6,j,0,1.1829744627,03,P17,03,60.0143910173,B,PLT_transfer_03,2014_Mrz_07_1603,
ques.jpg,stim_03/a.jpg,stim_03/e.jpg,2,4,j,5,16,166,18,f,0,1.38293094439,03,P17,03,60.0143910173,B,PLT_transfer_03,2014_Mrz_07_1603,
ques.jpg,stim_03/d.jpg,stim_03/f.jpg,2,15,f,5,17,167,29,j,0,1.41622319448,03,P17,03,60.0143910173,B,PLT_transfer_03,2014_Mrz_07_1603,
ques.jpg,stim_03/d.jpg,stim_03/c.jpg,1,6,f,5,18,168,5,None,0,,03,P17,03,60.0143910173,B,PLT_transfer_03,2014_Mrz_07_1603,
ques.jpg,stim_03/e.jpg,stim_03/b.jpg,1,12,j,5,19,169,11,j,1,1.16629035913,03,P17,03,60.0143910173,B,PLT_transfer_03,2014_Mrz_07_1603,
ques.jpg,stim_03/e.jpg,stim_03/a.jpg,1,4,f,5,20,170,3,f,1,0.916400897735,03,P17,03,60.0143910173,B,PLT_transfer_03,2014_Mrz_07_1603,
ques.jpg,stim_03/e.jpg,stim_03/f.jpg,2,9,j,5,21,171,23,j,1,0.799712258882,03,P17,03,60.0143910173,B,PLT_transfer_03,2014_Mrz_07_1603,
ques.jpg,stim_03/f.jpg,stim_03/e.jpg,1,9,f,5,22,172,8,j,0,0.949704317623,03,P17,03,60.0143910173,B,PLT_transfer_03,2014_Mrz_07_1603,
ques.jpg,stim_03/a.jpg,stim_03/c.jpg,2,2,j,5,23,173,16,f,0,1.16630592588,03,P17,03,60.0143910173,B,PLT_transfer_03,2014_Mrz_07_1603,
ques.jpg,stim_03/a.jpg,stim_03/f.jpg,2,5,j,5,24,174,19,None,0,,03,P17,03,60.0143910173,B,PLT_transfer_03,2014_Mrz_07_1603,
ques.jpg,stim_03/b.jpg,stim_03/d.jpg,2,11,f,5,25,175,25,j,0,0.483173964203,03,P17,03,60.0143910173,B,PLT_transfer_03,2014_Mrz_07_1603,
ques.jpg,stim_03/b.jpg,stim_03/e.jpg,2,12,f,5,26,176,26,f,1,0.849763847775,03,P17,03,60.0143910173,B,PLT_transfer_03,2014_Mrz_07_1603,
ques.jpg,stim_03/b.jpg,stim_03/a.jpg,1,1,f,5,27,177,0,j,0,0.683151014087,03,P17,03,60.0143910173,B,PLT_transfer_03,2014_Mrz_07_1603,
ques.jpg,stim_03/f.jpg,stim_03/d.jpg,1,15,j,5,28,178,14,f,0,0.699813683303,03,P17,03,60.0143910173,B,PLT_transfer_03,2014_Mrz_07_1603,
ques.jpg,stim_03/d.jpg,stim_03/b.jpg,1,11,j,5,29,179,10,f,0,0.716478728435,03,P17,03,60.0143910173,B,PLT_transfer_03,2014_Mrz_07_1603,
