Fb3,Symbol2,Symbol1,PosCond,tID,Correct,trials.thisRepN,trials.thisTrialN,trials.thisN,trials.thisIndex,Response.keys,Response.corr,Response.rt,session,participant,version,frameRate,stimulation,expName,date,
ques.jpg,stim_01/a.jpg,stim_01/e.jpg,2,4,j,0,0,0,18,j,1,1.18304311096,02,P30,01,60.0171107929,B,PLT_transfer_01,2014_Mrz_26_1825,
ques.jpg,stim_01/a.jpg,stim_01/d.jpg,2,3,j,0,1,1,17,f,0,0.799784130948,02,P30,01,60.0171107929,B,PLT_transfer_01,2014_Mrz_26_1825,
ques.jpg,stim_01/f.jpg,stim_01/a.jpg,1,5,f,0,2,2,4,f,1,0.866393067721,02,P30,01,60.0171107929,B,PLT_transfer_01,2014_Mrz_26_1825,
ques.jpg,stim_01/c.jpg,stim_01/d.jpg,2,6,j,0,3,3,20,f,0,0.849740795929,02,P30,01,60.0171107929,B,PLT_transfer_01,2014_Mrz_26_1825,
ques.jpg,stim_01/d.jpg,stim_01/c.jpg,1,6,f,0,4,4,5,j,0,0.66647342201,02,P30,01,60.0171107929,B,PLT_transfer_01,2014_Mrz_26_1825,
ques.jpg,stim_01/d.jpg,stim_01/b.jpg,1,11,j,0,5,5,10,f,0,0.949751920663,02,P30,01,60.0171107929,B,PLT_transfer_01,2014_Mrz_26_1825,
ques.jpg,stim_01/d.jpg,stim_01/e.jpg,2,14,f,0,6,6,28,j,0,1.14970115412,02,P30,01,60.0171107929,B,PLT_transfer_01,2014_Mrz_26_1825,
ques.jpg,stim_01/b.jpg,stim_01/e.jpg,2,12,f,0,7,7,26,f,1,0.866440904952,02,P30,01,60.0171107929,B,PLT_transfer_01,2014_Mrz_26_1825,
ques.jpg,stim_01/e.jpg,stim_01/d.jpg,1,14,j,0,8,8,13,f,0,0.899743680122,02,P30,01,60.0171107929,B,PLT_transfer_01,2014_Mrz_26_1825,
ques.jpg,stim_01/b.jpg,stim_01/f.jpg,2,13,f,0,9,9,27,j,0,0.91643508846,02,P30,01,60.0171107929,B,PLT_transfer_01,2014_Mrz_26_1825,
ques.jpg,stim_01/b.jpg,stim_01/c.jpg,2,10,f,0,10,10,24,j,0,0.833245674847,02,P30,01,60.0171107929,B,PLT_transfer_01,2014_Mrz_26_1825,
ques.jpg,stim_01/c.jpg,stim_01/b.jpg,1,10,j,0,11,11,9,f,0,1.01637158217,02,P30,01,60.0171107929,B,PLT_transfer_01,2014_Mrz_26_1825,
ques.jpg,stim_01/c.jpg,stim_01/e.jpg,2,7,j,0,12,12,21,j,1,0.899773147568,02,P30,01,60.0171107929,B,PLT_transfer_01,2014_Mrz_26_1825,
ques.jpg,stim_01/e.jpg,stim_01/c.jpg,1,7,f,0,13,13,6,f,1,1.09968930459,02,P30,01,60.0171107929,B,PLT_transfer_01,2014_Mrz_26_1825,
ques.jpg,stim_01/a.jpg,stim_01/f.jpg,2,5,j,0,14,14,19,j,1,0.816443425239,02,P30,01,60.0171107929,B,PLT_transfer_01,2014_Mrz_26_1825,
ques.jpg,stim_01/d.jpg,stim_01/a.jpg,1,3,f,0,15,15,2,j,0,0.566547836483,02,P30,01,60.0171107929,B,PLT_transfer_01,2014_Mrz_26_1825,
ques.jpg,stim_01/c.jpg,stim_01/a.jpg,1,2,f,0,16,16,1,f,1,0.699864265684,02,P30,01,60.0171107929,B,PLT_transfer_01,2014_Mrz_26_1825,
ques.jpg,stim_01/e.jpg,stim_01/a.jpg,1,4,f,0,17,17,3,f,1,0.883077691142,02,P30,01,60.0171107929,B,PLT_transfer_01,2014_Mrz_26_1825,
ques.jpg,stim_01/f.jpg,stim_01/c.jpg,1,8,f,0,18,18,7,f,1,0.633161293525,02,P30,01,60.0171107929,B,PLT_transfer_01,2014_Mrz_26_1825,
ques.jpg,stim_01/b.jpg,stim_01/a.jpg,1,1,f,0,19,19,0,j,0,0.616547968813,02,P30,01,60.0171107929,B,PLT_transfer_01,2014_Mrz_26_1825,
ques.jpg,stim_01/f.jpg,stim_01/b.jpg,1,13,j,0,20,20,12,f,0,0.566524793052,02,P30,01,60.0171107929,B,PLT_transfer_01,2014_Mrz_26_1825,
ques.jpg,stim_01/a.jpg,stim_01/c.jpg,2,2,j,0,21,21,16,j,1,0.949753818393,02,P30,01,60.0171107929,B,PLT_transfer_01,2014_Mrz_26_1825,
ques.jpg,stim_01/e.jpg,stim_01/b.jpg,1,12,j,0,22,22,11,f,0,0.649832981704,02,P30,01,60.0171107929,B,PLT_transfer_01,2014_Mrz_26_1825,
ques.jpg,stim_01/b.jpg,stim_01/d.jpg,2,11,f,0,23,23,25,j,0,0.61651351794,02,P30,01,60.0171107929,B,PLT_transfer_01,2014_Mrz_26_1825,
ques.jpg,stim_01/f.jpg,stim_01/e.jpg,1,9,f,0,24,24,8,f,1,0.949664210042,02,P30,01,60.0171107929,B,PLT_transfer_01,2014_Mrz_26_1825,
ques.jpg,stim_01/c.jpg,stim_01/f.jpg,2,8,j,0,25,25,22,j,1,0.849779234741,02,P30,01,60.0171107929,B,PLT_transfer_01,2014_Mrz_26_1825,
ques.jpg,stim_01/e.jpg,stim_01/f.jpg,2,9,j,0,26,26,23,j,1,0.866447891371,02,P30,01,60.0171107929,B,PLT_transfer_01,2014_Mrz_26_1825,
ques.jpg,stim_01/d.jpg,stim_01/f.jpg,2,15,f,0,27,27,29,j,0,0.599863510797,02,P30,01,60.0171107929,B,PLT_transfer_01,2014_Mrz_26_1825,
ques.jpg,stim_01/f.jpg,stim_01/d.jpg,1,15,j,0,28,28,14,f,0,0.649719111883,02,P30,01,60.0171107929,B,PLT_transfer_01,2014_Mrz_26_1825,
ques.jpg,stim_01/a.jpg,stim_01/b.jpg,2,1,j,0,29,29,15,f,0,0.733137690695,02,P30,01,60.0171107929,B,PLT_transfer_01,2014_Mrz_26_1825,
ques.jpg,stim_01/a.jpg,stim_01/b.jpg,2,1,j,1,0,30,15,f,0,0.716474258086,02,P30,01,60.0171107929,B,PLT_transfer_01,2014_Mrz_26_1825,
ques.jpg,stim_01/e.jpg,stim_01/f.jpg,2,9,j,1,1,31,23,j,1,0.71647211074,02,P30,01,60.0171107929,B,PLT_transfer_01,2014_Mrz_26_1825,
ques.jpg,stim_01/d.jpg,stim_01/a.jpg,1,3,f,1,2,32,2,j,0,0.566502206748,02,P30,01,60.0171107929,B,PLT_transfer_01,2014_Mrz_26_1825,
ques.jpg,stim_01/e.jpg,stim_01/c.jpg,1,7,f,1,3,33,6,j,0,0.533216017924,02,P30,01,60.0171107929,B,PLT_transfer_01,2014_Mrz_26_1825,
ques.jpg,stim_01/c.jpg,stim_01/e.jpg,2,7,j,1,4,34,21,f,0,0.483240123009,02,P30,01,60.0171107929,B,PLT_transfer_01,2014_Mrz_26_1825,
ques.jpg,stim_01/e.jpg,stim_01/b.jpg,1,12,j,1,5,35,11,f,0,0.649824714099,02,P30,01,60.0171107929,B,PLT_transfer_01,2014_Mrz_26_1825,
ques.jpg,stim_01/b.jpg,stim_01/d.jpg,2,11,f,1,6,36,25,j,0,0.499877285132,02,P30,01,60.0171107929,B,PLT_transfer_01,2014_Mrz_26_1825,
ques.jpg,stim_01/c.jpg,stim_01/a.jpg,1,2,f,1,7,37,1,f,1,0.699820804359,02,P30,01,60.0171107929,B,PLT_transfer_01,2014_Mrz_26_1825,
ques.jpg,stim_01/f.jpg,stim_01/c.jpg,1,8,f,1,8,38,7,f,1,0.616523508848,02,P30,01,60.0171107929,B,PLT_transfer_01,2014_Mrz_26_1825,
ques.jpg,stim_01/f.jpg,stim_01/b.jpg,1,13,j,1,9,39,12,f,0,0.649843192157,02,P30,01,60.0171107929,B,PLT_transfer_01,2014_Mrz_26_1825,
ques.jpg,stim_01/d.jpg,stim_01/b.jpg,1,11,j,1,10,40,10,j,1,0.449911651791,02,P30,01,60.0171107929,B,PLT_transfer_01,2014_Mrz_26_1825,
ques.jpg,stim_01/a.jpg,stim_01/e.jpg,2,4,j,1,11,41,18,j,1,0.683190502328,02,P30,01,60.0171107929,B,PLT_transfer_01,2014_Mrz_26_1825,
ques.jpg,stim_01/b.jpg,stim_01/f.jpg,2,13,f,1,12,42,27,j,0,0.46656394162,02,P30,01,60.0171107929,B,PLT_transfer_01,2014_Mrz_26_1825,
ques.jpg,stim_01/c.jpg,stim_01/f.jpg,2,8,j,1,13,43,22,j,1,0.849768900982,02,P30,01,60.0171107929,B,PLT_transfer_01,2014_Mrz_26_1825,
ques.jpg,stim_01/d.jpg,stim_01/f.jpg,2,15,f,1,14,44,29,j,0,0.499926626115,02,P30,01,60.0171107929,B,PLT_transfer_01,2014_Mrz_26_1825,
ques.jpg,stim_01/b.jpg,stim_01/a.jpg,1,1,f,1,15,45,0,j,0,0.483200216535,02,P30,01,60.0171107929,B,PLT_transfer_01,2014_Mrz_26_1825,
ques.jpg,stim_01/b.jpg,stim_01/c.jpg,2,10,f,1,16,46,24,j,0,0.44987872272,02,P30,01,60.0171107929,B,PLT_transfer_01,2014_Mrz_26_1825,
ques.jpg,stim_01/d.jpg,stim_01/e.jpg,2,14,f,1,17,47,28,j,0,0.450095088003,02,P30,01,60.0171107929,B,PLT_transfer_01,2014_Mrz_26_1825,
ques.jpg,stim_01/a.jpg,stim_01/f.jpg,2,5,j,1,18,48,19,j,1,0.483230144135,02,P30,01,60.0171107929,B,PLT_transfer_01,2014_Mrz_26_1825,
ques.jpg,stim_01/b.jpg,stim_01/e.jpg,2,12,f,1,19,49,26,j,0,0.433203530803,02,P30,01,60.0171107929,B,PLT_transfer_01,2014_Mrz_26_1825,
ques.jpg,stim_01/c.jpg,stim_01/d.jpg,2,6,j,1,20,50,20,j,1,0.449932463664,02,P30,01,60.0171107929,B,PLT_transfer_01,2014_Mrz_26_1825,
ques.jpg,stim_01/a.jpg,stim_01/c.jpg,2,2,j,1,21,51,16,j,1,0.899625335151,02,P30,01,60.0171107929,B,PLT_transfer_01,2014_Mrz_26_1825,
ques.jpg,stim_01/f.jpg,stim_01/e.jpg,1,9,f,1,22,52,8,f,1,0.599838647831,02,P30,01,60.0171107929,B,PLT_transfer_01,2014_Mrz_26_1825,
ques.jpg,stim_01/e.jpg,stim_01/d.jpg,1,14,j,1,23,53,13,j,1,0.79973340952,02,P30,01,60.0171107929,B,PLT_transfer_01,2014_Mrz_26_1825,
ques.jpg,stim_01/f.jpg,stim_01/d.jpg,1,15,j,1,24,54,14,f,0,0.633180219702,02,P30,01,60.0171107929,B,PLT_transfer_01,2014_Mrz_26_1825,
ques.jpg,stim_01/a.jpg,stim_01/d.jpg,2,3,j,1,25,55,17,f,0,0.633170845329,02,P30,01,60.0171107929,B,PLT_transfer_01,2014_Mrz_26_1825,
ques.jpg,stim_01/d.jpg,stim_01/c.jpg,1,6,f,1,26,56,5,j,0,0.566526152434,02,P30,01,60.0171107929,B,PLT_transfer_01,2014_Mrz_26_1825,
ques.jpg,stim_01/c.jpg,stim_01/b.jpg,1,10,j,1,27,57,9,f,0,0.766634007261,02,P30,01,60.0171107929,B,PLT_transfer_01,2014_Mrz_26_1825,
ques.jpg,stim_01/f.jpg,stim_01/a.jpg,1,5,f,1,28,58,4,f,1,0.566531027587,02,P30,01,60.0171107929,B,PLT_transfer_01,2014_Mrz_26_1825,
ques.jpg,stim_01/e.jpg,stim_01/a.jpg,1,4,f,1,29,59,3,j,0,0.516565123566,02,P30,01,60.0171107929,B,PLT_transfer_01,2014_Mrz_26_1825,
ques.jpg,stim_01/f.jpg,stim_01/e.jpg,1,9,f,2,0,60,8,f,1,0.616525529884,02,P30,01,60.0171107929,B,PLT_transfer_01,2014_Mrz_26_1825,
ques.jpg,stim_01/c.jpg,stim_01/b.jpg,1,10,j,2,1,61,9,f,0,0.616516766037,02,P30,01,60.0171107929,B,PLT_transfer_01,2014_Mrz_26_1825,
ques.jpg,stim_01/c.jpg,stim_01/a.jpg,1,2,f,2,2,62,1,f,1,0.649872743816,02,P30,01,60.0171107929,B,PLT_transfer_01,2014_Mrz_26_1825,
ques.jpg,stim_01/c.jpg,stim_01/d.jpg,2,6,j,2,3,63,20,f,0,0.599843357566,02,P30,01,60.0171107929,B,PLT_transfer_01,2014_Mrz_26_1825,
ques.jpg,stim_01/b.jpg,stim_01/a.jpg,1,1,f,2,4,64,0,f,1,0.716479461058,02,P30,01,60.0171107929,B,PLT_transfer_01,2014_Mrz_26_1825,
ques.jpg,stim_01/f.jpg,stim_01/c.jpg,1,8,f,2,5,65,7,f,1,0.633174472379,02,P30,01,60.0171107929,B,PLT_transfer_01,2014_Mrz_26_1825,
ques.jpg,stim_01/d.jpg,stim_01/e.jpg,2,14,f,2,6,66,28,j,0,0.566562504042,02,P30,01,60.0171107929,B,PLT_transfer_01,2014_Mrz_26_1825,
ques.jpg,stim_01/e.jpg,stim_01/b.jpg,1,12,j,2,7,67,11,f,0,0.616515205154,02,P30,01,60.0171107929,B,PLT_transfer_01,2014_Mrz_26_1825,
ques.jpg,stim_01/e.jpg,stim_01/d.jpg,1,14,j,2,8,68,13,f,0,0.799795655672,02,P30,01,60.0171107929,B,PLT_transfer_01,2014_Mrz_26_1825,
ques.jpg,stim_01/d.jpg,stim_01/c.jpg,1,6,f,2,9,69,5,j,0,0.533199209029,02,P30,01,60.0171107929,B,PLT_transfer_01,2014_Mrz_26_1825,
ques.jpg,stim_01/d.jpg,stim_01/b.jpg,1,11,j,2,10,70,10,j,1,0.516573472385,02,P30,01,60.0171107929,B,PLT_transfer_01,2014_Mrz_26_1825,
ques.jpg,stim_01/b.jpg,stim_01/e.jpg,2,12,f,2,11,71,26,j,0,0.549888791807,02,P30,01,60.0171107929,B,PLT_transfer_01,2014_Mrz_26_1825,
ques.jpg,stim_01/a.jpg,stim_01/e.jpg,2,4,j,2,12,72,18,f,0,0.683190863223,02,P30,01,60.0171107929,B,PLT_transfer_01,2014_Mrz_26_1825,
ques.jpg,stim_01/a.jpg,stim_01/d.jpg,2,3,j,2,13,73,17,f,0,0.61651148487,02,P30,01,60.0171107929,B,PLT_transfer_01,2014_Mrz_26_1825,
ques.jpg,stim_01/f.jpg,stim_01/a.jpg,1,5,f,2,14,74,4,f,1,0.583187004609,02,P30,01,60.0171107929,B,PLT_transfer_01,2014_Mrz_26_1825,
ques.jpg,stim_01/a.jpg,stim_01/c.jpg,2,2,j,2,15,75,16,f,0,0.549870852105,02,P30,01,60.0171107929,B,PLT_transfer_01,2014_Mrz_26_1825,
ques.jpg,stim_01/c.jpg,stim_01/f.jpg,2,8,j,2,16,76,22,j,1,0.583117215654,02,P30,01,60.0171107929,B,PLT_transfer_01,2014_Mrz_26_1825,
ques.jpg,stim_01/f.jpg,stim_01/d.jpg,1,15,j,2,17,77,14,f,0,0.533220219397,02,P30,01,60.0171107929,B,PLT_transfer_01,2014_Mrz_26_1825,
ques.jpg,stim_01/b.jpg,stim_01/c.jpg,2,10,f,2,18,78,24,j,0,0.499886779799,02,P30,01,60.0171107929,B,PLT_transfer_01,2014_Mrz_26_1825,
ques.jpg,stim_01/f.jpg,stim_01/b.jpg,1,13,j,2,19,79,12,f,0,0.633184144477,02,P30,01,60.0171107929,B,PLT_transfer_01,2014_Mrz_26_1825,
ques.jpg,stim_01/b.jpg,stim_01/f.jpg,2,13,f,2,20,80,27,j,0,0.616531054649,02,P30,01,60.0171107929,B,PLT_transfer_01,2014_Mrz_26_1825,
ques.jpg,stim_01/a.jpg,stim_01/b.jpg,2,1,j,2,21,81,15,f,0,0.56653339749,02,P30,01,60.0171107929,B,PLT_transfer_01,2014_Mrz_26_1825,
ques.jpg,stim_01/e.jpg,stim_01/f.jpg,2,9,j,2,22,82,23,j,1,0.633185230188,02,P30,01,60.0171107929,B,PLT_transfer_01,2014_Mrz_26_1825,
ques.jpg,stim_01/e.jpg,stim_01/c.jpg,1,7,f,2,23,83,6,j,0,0.666506678899,02,P30,01,60.0171107929,B,PLT_transfer_01,2014_Mrz_26_1825,
ques.jpg,stim_01/e.jpg,stim_01/a.jpg,1,4,f,2,24,84,3,f,1,0.733129675718,02,P30,01,60.0171107929,B,PLT_transfer_01,2014_Mrz_26_1825,
ques.jpg,stim_01/c.jpg,stim_01/e.jpg,2,7,j,2,25,85,21,j,1,0.899744044029,02,P30,01,60.0171107929,B,PLT_transfer_01,2014_Mrz_26_1825,
ques.jpg,stim_01/a.jpg,stim_01/f.jpg,2,5,j,2,26,86,19,j,1,0.733147834981,02,P30,01,60.0171107929,B,PLT_transfer_01,2014_Mrz_26_1825,
ques.jpg,stim_01/d.jpg,stim_01/a.jpg,1,3,f,2,27,87,2,j,0,0.566515779581,02,P30,01,60.0171107929,B,PLT_transfer_01,2014_Mrz_26_1825,
ques.jpg,stim_01/d.jpg,stim_01/f.jpg,2,15,f,2,28,88,29,j,0,0.56653480199,02,P30,01,60.0171107929,B,PLT_transfer_01,2014_Mrz_26_1825,
ques.jpg,stim_01/b.jpg,stim_01/d.jpg,2,11,f,2,29,89,25,j,0,0.533193681244,02,P30,01,60.0171107929,B,PLT_transfer_01,2014_Mrz_26_1825,
ques.jpg,stim_01/e.jpg,stim_01/b.jpg,1,12,j,3,0,90,11,f,0,0.583194845152,02,P30,01,60.0171107929,B,PLT_transfer_01,2014_Mrz_26_1825,
ques.jpg,stim_01/d.jpg,stim_01/c.jpg,1,6,f,3,1,91,5,j,0,0.516540982404,02,P30,01,60.0171107929,B,PLT_transfer_01,2014_Mrz_26_1825,
ques.jpg,stim_01/f.jpg,stim_01/a.jpg,1,5,f,3,2,92,4,f,1,0.499845131992,02,P30,01,60.0171107929,B,PLT_transfer_01,2014_Mrz_26_1825,
ques.jpg,stim_01/b.jpg,stim_01/c.jpg,2,10,f,3,3,93,24,j,0,0.466554735685,02,P30,01,60.0171107929,B,PLT_transfer_01,2014_Mrz_26_1825,
ques.jpg,stim_01/d.jpg,stim_01/f.jpg,2,15,f,3,4,94,29,j,0,0.499859796539,02,P30,01,60.0171107929,B,PLT_transfer_01,2014_Mrz_26_1825,
ques.jpg,stim_01/e.jpg,stim_01/f.jpg,2,9,j,3,5,95,23,f,0,0.549871017516,02,P30,01,60.0171107929,B,PLT_transfer_01,2014_Mrz_26_1825,
ques.jpg,stim_01/a.jpg,stim_01/c.jpg,2,2,j,3,6,96,16,j,1,0.483232871935,02,P30,01,60.0171107929,B,PLT_transfer_01,2014_Mrz_26_1825,
ques.jpg,stim_01/a.jpg,stim_01/f.jpg,2,5,j,3,7,97,19,j,1,0.566521169014,02,P30,01,60.0171107929,B,PLT_transfer_01,2014_Mrz_26_1825,
ques.jpg,stim_01/a.jpg,stim_01/e.jpg,2,4,j,3,8,98,18,j,1,0.699818678062,02,P30,01,60.0171107929,B,PLT_transfer_01,2014_Mrz_26_1825,
ques.jpg,stim_01/d.jpg,stim_01/b.jpg,1,11,j,3,9,99,10,j,1,0.466555009363,02,P30,01,60.0171107929,B,PLT_transfer_01,2014_Mrz_26_1825,
ques.jpg,stim_01/b.jpg,stim_01/e.jpg,2,12,f,3,10,100,26,j,0,0.549860999541,02,P30,01,60.0171107929,B,PLT_transfer_01,2014_Mrz_26_1825,
ques.jpg,stim_01/d.jpg,stim_01/a.jpg,1,3,f,3,11,101,2,j,0,0.466549517674,02,P30,01,60.0171107929,B,PLT_transfer_01,2014_Mrz_26_1825,
ques.jpg,stim_01/d.jpg,stim_01/e.jpg,2,14,f,3,12,102,28,j,0,0.599871832543,02,P30,01,60.0171107929,B,PLT_transfer_01,2014_Mrz_26_1825,
ques.jpg,stim_01/a.jpg,stim_01/d.jpg,2,3,j,3,13,103,17,f,0,0.633186463259,02,P30,01,60.0171107929,B,PLT_transfer_01,2014_Mrz_26_1825,
ques.jpg,stim_01/f.jpg,stim_01/e.jpg,1,9,f,3,14,104,8,f,1,0.649835805743,02,P30,01,60.0171107929,B,PLT_transfer_01,2014_Mrz_26_1825,
ques.jpg,stim_01/b.jpg,stim_01/a.jpg,1,1,f,3,15,105,0,j,0,0.483235061394,02,P30,01,60.0171107929,B,PLT_transfer_01,2014_Mrz_26_1825,
ques.jpg,stim_01/c.jpg,stim_01/b.jpg,1,10,j,3,16,106,9,j,1,0.699688282046,02,P30,01,60.0171107929,B,PLT_transfer_01,2014_Mrz_26_1825,
ques.jpg,stim_01/c.jpg,stim_01/e.jpg,2,7,j,3,17,107,21,j,1,0.883056497318,02,P30,01,60.0171107929,B,PLT_transfer_01,2014_Mrz_26_1825,
ques.jpg,stim_01/c.jpg,stim_01/a.jpg,1,2,f,3,18,108,1,f,1,1.01637563327,02,P30,01,60.0171107929,B,PLT_transfer_01,2014_Mrz_26_1825,
ques.jpg,stim_01/e.jpg,stim_01/c.jpg,1,7,f,3,19,109,6,f,1,0.633188000087,02,P30,01,60.0171107929,B,PLT_transfer_01,2014_Mrz_26_1825,
ques.jpg,stim_01/c.jpg,stim_01/d.jpg,2,6,j,3,20,110,20,f,0,1.01641118187,02,P30,01,60.0171107929,B,PLT_transfer_01,2014_Mrz_26_1825,
ques.jpg,stim_01/a.jpg,stim_01/b.jpg,2,1,j,3,21,111,15,f,0,0.783126993032,02,P30,01,60.0171107929,B,PLT_transfer_01,2014_Mrz_26_1825,
ques.jpg,stim_01/f.jpg,stim_01/c.jpg,1,8,f,3,22,112,7,f,1,0.849750179324,02,P30,01,60.0171107929,B,PLT_transfer_01,2014_Mrz_26_1825,
ques.jpg,stim_01/b.jpg,stim_01/f.jpg,2,13,f,3,23,113,27,j,0,0.73315592514,02,P30,01,60.0171107929,B,PLT_transfer_01,2014_Mrz_26_1825,
ques.jpg,stim_01/e.jpg,stim_01/a.jpg,1,4,f,3,24,114,3,f,1,0.783209954818,02,P30,01,60.0171107929,B,PLT_transfer_01,2014_Mrz_26_1825,
ques.jpg,stim_01/f.jpg,stim_01/d.jpg,1,15,j,3,25,115,14,f,0,0.616525896803,02,P30,01,60.0171107929,B,PLT_transfer_01,2014_Mrz_26_1825,
ques.jpg,stim_01/c.jpg,stim_01/f.jpg,2,8,j,3,26,116,22,j,1,0.549979422714,02,P30,01,60.0171107929,B,PLT_transfer_01,2014_Mrz_26_1825,
ques.jpg,stim_01/b.jpg,stim_01/d.jpg,2,11,f,3,27,117,25,j,0,0.616511797656,02,P30,01,60.0171107929,B,PLT_transfer_01,2014_Mrz_26_1825,
ques.jpg,stim_01/f.jpg,stim_01/b.jpg,1,13,j,3,28,118,12,f,0,0.516539126773,02,P30,01,60.0171107929,B,PLT_transfer_01,2014_Mrz_26_1825,
ques.jpg,stim_01/e.jpg,stim_01/d.jpg,1,14,j,3,29,119,13,f,0,0.549911113449,02,P30,01,60.0171107929,B,PLT_transfer_01,2014_Mrz_26_1825,
ques.jpg,stim_01/e.jpg,stim_01/a.jpg,1,4,f,4,0,120,3,f,1,0.783117164538,02,P30,01,60.0171107929,B,PLT_transfer_01,2014_Mrz_26_1825,
ques.jpg,stim_01/b.jpg,stim_01/e.jpg,2,12,f,4,1,121,26,j,0,0.633177527983,02,P30,01,60.0171107929,B,PLT_transfer_01,2014_Mrz_26_1825,
ques.jpg,stim_01/d.jpg,stim_01/f.jpg,2,15,f,4,2,122,29,j,0,0.599802094723,02,P30,01,60.0171107929,B,PLT_transfer_01,2014_Mrz_26_1825,
ques.jpg,stim_01/f.jpg,stim_01/b.jpg,1,13,j,4,3,123,12,f,0,0.499870316766,02,P30,01,60.0171107929,B,PLT_transfer_01,2014_Mrz_26_1825,
ques.jpg,stim_01/f.jpg,stim_01/d.jpg,1,15,j,4,4,124,14,f,0,0.499877480615,02,P30,01,60.0171107929,B,PLT_transfer_01,2014_Mrz_26_1825,
ques.jpg,stim_01/e.jpg,stim_01/f.jpg,2,9,j,4,5,125,23,j,1,0.699827132121,02,P30,01,60.0171107929,B,PLT_transfer_01,2014_Mrz_26_1825,
ques.jpg,stim_01/c.jpg,stim_01/b.jpg,1,10,j,4,6,126,9,f,0,0.999709999174,02,P30,01,60.0171107929,B,PLT_transfer_01,2014_Mrz_26_1825,
ques.jpg,stim_01/b.jpg,stim_01/a.jpg,1,1,f,4,7,127,0,j,0,0.499893666965,02,P30,01,60.0171107929,B,PLT_transfer_01,2014_Mrz_26_1825,
ques.jpg,stim_01/a.jpg,stim_01/e.jpg,2,4,j,4,8,128,18,f,0,0.616431299015,02,P30,01,60.0171107929,B,PLT_transfer_01,2014_Mrz_26_1825,
ques.jpg,stim_01/d.jpg,stim_01/b.jpg,1,11,j,4,9,129,10,j,1,0.649880876088,02,P30,01,60.0171107929,B,PLT_transfer_01,2014_Mrz_26_1825,
ques.jpg,stim_01/f.jpg,stim_01/c.jpg,1,8,f,4,10,130,7,f,1,0.666490754207,02,P30,01,60.0171107929,B,PLT_transfer_01,2014_Mrz_26_1825,
ques.jpg,stim_01/b.jpg,stim_01/f.jpg,2,13,f,4,11,131,27,j,0,0.483191109837,02,P30,01,60.0171107929,B,PLT_transfer_01,2014_Mrz_26_1825,
ques.jpg,stim_01/b.jpg,stim_01/c.jpg,2,10,f,4,12,132,24,j,0,0.549838392195,02,P30,01,60.0171107929,B,PLT_transfer_01,2014_Mrz_26_1825,
ques.jpg,stim_01/a.jpg,stim_01/b.jpg,2,1,j,4,13,133,15,j,1,0.549882280582,02,P30,01,60.0171107929,B,PLT_transfer_01,2014_Mrz_26_1825,
ques.jpg,stim_01/f.jpg,stim_01/e.jpg,1,9,f,4,14,134,8,f,1,0.533268152874,02,P30,01,60.0171107929,B,PLT_transfer_01,2014_Mrz_26_1825,
ques.jpg,stim_01/b.jpg,stim_01/d.jpg,2,11,f,4,15,135,25,j,0,0.499868509258,02,P30,01,60.0171107929,B,PLT_transfer_01,2014_Mrz_26_1825,
ques.jpg,stim_01/c.jpg,stim_01/d.jpg,2,6,j,4,16,136,20,f,0,0.499878307681,02,P30,01,60.0171107929,B,PLT_transfer_01,2014_Mrz_26_1825,
ques.jpg,stim_01/d.jpg,stim_01/a.jpg,1,3,f,4,17,137,2,j,0,0.483212195395,02,P30,01,60.0171107929,B,PLT_transfer_01,2014_Mrz_26_1825,
ques.jpg,stim_01/d.jpg,stim_01/c.jpg,1,6,f,4,18,138,5,j,0,0.433227966707,02,P30,01,60.0171107929,B,PLT_transfer_01,2014_Mrz_26_1825,
ques.jpg,stim_01/c.jpg,stim_01/e.jpg,2,7,j,4,19,139,21,j,1,1.08302618778,02,P30,01,60.0171107929,B,PLT_transfer_01,2014_Mrz_26_1825,
ques.jpg,stim_01/e.jpg,stim_01/d.jpg,1,14,j,4,20,140,13,f,0,0.566515869803,02,P30,01,60.0171107929,B,PLT_transfer_01,2014_Mrz_26_1825,
ques.jpg,stim_01/e.jpg,stim_01/b.jpg,1,12,j,4,21,141,11,f,0,0.849812542765,02,P30,01,60.0171107929,B,PLT_transfer_01,2014_Mrz_26_1825,
ques.jpg,stim_01/e.jpg,stim_01/c.jpg,1,7,f,4,22,142,6,j,0,0.599855883796,02,P30,01,60.0171107929,B,PLT_transfer_01,2014_Mrz_26_1825,
ques.jpg,stim_01/a.jpg,stim_01/d.jpg,2,3,j,4,23,143,17,f,0,0.783131411044,02,P30,01,60.0171107929,B,PLT_transfer_01,2014_Mrz_26_1825,
ques.jpg,stim_01/c.jpg,stim_01/f.jpg,2,8,j,4,24,144,22,j,1,0.66649580079,02,P30,01,60.0171107929,B,PLT_transfer_01,2014_Mrz_26_1825,
ques.jpg,stim_01/d.jpg,stim_01/e.jpg,2,14,f,4,25,145,28,j,0,0.849784248239,02,P30,01,60.0171107929,B,PLT_transfer_01,2014_Mrz_26_1825,
ques.jpg,stim_01/c.jpg,stim_01/a.jpg,1,2,f,4,26,146,1,f,1,1.01623556214,02,P30,01,60.0171107929,B,PLT_transfer_01,2014_Mrz_26_1825,
ques.jpg,stim_01/f.jpg,stim_01/a.jpg,1,5,f,4,27,147,4,f,1,0.699821062997,02,P30,01,60.0171107929,B,PLT_transfer_01,2014_Mrz_26_1825,
ques.jpg,stim_01/a.jpg,stim_01/f.jpg,2,5,j,4,28,148,19,j,1,0.816442616226,02,P30,01,60.0171107929,B,PLT_transfer_01,2014_Mrz_26_1825,
ques.jpg,stim_01/a.jpg,stim_01/c.jpg,2,2,j,4,29,149,16,f,0,0.549854909361,02,P30,01,60.0171107929,B,PLT_transfer_01,2014_Mrz_26_1825,
ques.jpg,stim_01/d.jpg,stim_01/b.jpg,1,11,j,5,0,150,10,j,1,0.483224026888,02,P30,01,60.0171107929,B,PLT_transfer_01,2014_Mrz_26_1825,
ques.jpg,stim_01/e.jpg,stim_01/f.jpg,2,9,j,5,1,151,23,j,1,0.949707466862,02,P30,01,60.0171107929,B,PLT_transfer_01,2014_Mrz_26_1825,
ques.jpg,stim_01/a.jpg,stim_01/f.jpg,2,5,j,5,2,152,19,j,1,0.733137080177,02,P30,01,60.0171107929,B,PLT_transfer_01,2014_Mrz_26_1825,
ques.jpg,stim_01/a.jpg,stim_01/e.jpg,2,4,j,5,3,153,18,f,0,1.08306445816,02,P30,01,60.0171107929,B,PLT_transfer_01,2014_Mrz_26_1825,
ques.jpg,stim_01/c.jpg,stim_01/e.jpg,2,7,j,5,4,154,21,f,0,0.716469653613,02,P30,01,60.0171107929,B,PLT_transfer_01,2014_Mrz_26_1825,
ques.jpg,stim_01/a.jpg,stim_01/d.jpg,2,3,j,5,5,155,17,f,0,0.799793652681,02,P30,01,60.0171107929,B,PLT_transfer_01,2014_Mrz_26_1825,
ques.jpg,stim_01/e.jpg,stim_01/c.jpg,1,7,f,5,6,156,6,f,1,1.11634334779,02,P30,01,60.0171107929,B,PLT_transfer_01,2014_Mrz_26_1825,
ques.jpg,stim_01/a.jpg,stim_01/b.jpg,2,1,j,5,7,157,15,f,0,1.23298064525,02,P30,01,60.0171107929,B,PLT_transfer_01,2014_Mrz_26_1825,
ques.jpg,stim_01/b.jpg,stim_01/e.jpg,2,12,f,5,8,158,26,j,0,0.599851646228,02,P30,01,60.0171107929,B,PLT_transfer_01,2014_Mrz_26_1825,
ques.jpg,stim_01/c.jpg,stim_01/d.jpg,2,6,j,5,9,159,20,f,0,0.533213157796,02,P30,01,60.0171107929,B,PLT_transfer_01,2014_Mrz_26_1825,
ques.jpg,stim_01/b.jpg,stim_01/c.jpg,2,10,f,5,10,160,24,j,0,0.599839059854,02,P30,01,60.0171107929,B,PLT_transfer_01,2014_Mrz_26_1825,
ques.jpg,stim_01/b.jpg,stim_01/f.jpg,2,13,f,5,11,161,27,j,0,0.483210496168,02,P30,01,60.0171107929,B,PLT_transfer_01,2014_Mrz_26_1825,
ques.jpg,stim_01/f.jpg,stim_01/a.jpg,1,5,f,5,12,162,4,f,1,0.46657136413,02,P30,01,60.0171107929,B,PLT_transfer_01,2014_Mrz_26_1825,
ques.jpg,stim_01/f.jpg,stim_01/c.jpg,1,8,f,5,13,163,7,f,1,0.466565210794,02,P30,01,60.0171107929,B,PLT_transfer_01,2014_Mrz_26_1825,
ques.jpg,stim_01/b.jpg,stim_01/d.jpg,2,11,f,5,14,164,25,j,0,0.533219696095,02,P30,01,60.0171107929,B,PLT_transfer_01,2014_Mrz_26_1825,
ques.jpg,stim_01/c.jpg,stim_01/b.jpg,1,10,j,5,15,165,9,f,0,0.483275250561,02,P30,01,60.0171107929,B,PLT_transfer_01,2014_Mrz_26_1825,
ques.jpg,stim_01/d.jpg,stim_01/c.jpg,1,6,f,5,16,166,5,j,0,0.533218345729,02,P30,01,60.0171107929,B,PLT_transfer_01,2014_Mrz_26_1825,
ques.jpg,stim_01/e.jpg,stim_01/d.jpg,1,14,j,5,17,167,13,f,0,0.433181882843,02,P30,01,60.0171107929,B,PLT_transfer_01,2014_Mrz_26_1825,
ques.jpg,stim_01/b.jpg,stim_01/a.jpg,1,1,f,5,18,168,0,j,0,0.583187747463,02,P30,01,60.0171107929,B,PLT_transfer_01,2014_Mrz_26_1825,
ques.jpg,stim_01/d.jpg,stim_01/f.jpg,2,15,f,5,19,169,29,j,0,0.483224655451,02,P30,01,60.0171107929,B,PLT_transfer_01,2014_Mrz_26_1825,
ques.jpg,stim_01/c.jpg,stim_01/a.jpg,1,2,f,5,20,170,1,f,1,0.549863766442,02,P30,01,60.0171107929,B,PLT_transfer_01,2014_Mrz_26_1825,
ques.jpg,stim_01/a.jpg,stim_01/c.jpg,2,2,j,5,21,171,16,j,1,0.516550642482,02,P30,01,60.0171107929,B,PLT_transfer_01,2014_Mrz_26_1825,
ques.jpg,stim_01/c.jpg,stim_01/f.jpg,2,8,j,5,22,172,22,j,1,0.516508877372,02,P30,01,60.0171107929,B,PLT_transfer_01,2014_Mrz_26_1825,
ques.jpg,stim_01/d.jpg,stim_01/a.jpg,1,3,f,5,23,173,2,j,0,0.533196333861,02,P30,01,60.0171107929,B,PLT_transfer_01,2014_Mrz_26_1825,
ques.jpg,stim_01/f.jpg,stim_01/d.jpg,1,15,j,5,24,174,14,f,0,0.483236763634,02,P30,01,60.0171107929,B,PLT_transfer_01,2014_Mrz_26_1825,
ques.jpg,stim_01/e.jpg,stim_01/a.jpg,1,4,f,5,25,175,3,f,1,0.466589339929,02,P30,01,60.0171107929,B,PLT_transfer_01,2014_Mrz_26_1825,
ques.jpg,stim_01/d.jpg,stim_01/e.jpg,2,14,f,5,26,176,28,j,0,0.433191771488,02,P30,01,60.0171107929,B,PLT_transfer_01,2014_Mrz_26_1825,
ques.jpg,stim_01/f.jpg,stim_01/e.jpg,1,9,f,5,27,177,8,f,1,0.449896776721,02,P30,01,60.0171107929,B,PLT_transfer_01,2014_Mrz_26_1825,
ques.jpg,stim_01/e.jpg,stim_01/b.jpg,1,12,j,5,28,178,11,j,1,0.483220111128,02,P30,01,60.0171107929,B,PLT_transfer_01,2014_Mrz_26_1825,
ques.jpg,stim_01/f.jpg,stim_01/b.jpg,1,13,j,5,29,179,12,f,0,0.499880476091,02,P30,01,60.0171107929,B,PLT_transfer_01,2014_Mrz_26_1825,
